sep=;
timestamp;gyro-alpha;gyro-beta;gyro-gamma;accel-x;accel-y;accel-z
1445425928947;328.6197509765625;-114.77455139160156;-12.387670516967773;2.5173492431640625;-5.8065185546875;-2.4183197021484375
1445425928976;329.8092956542969;-111.1394271850586;-11.18628978729248;4.459075927734375;-7.0029296875;-3.085174560546875
1445425929009;330.1398620605469;-108.9793701171875;-10.900986671447754;5.2239837646484375;-7.5128631591796875;-3.34014892578125
1445425929042;330.269287109375;-105.72492218017578;-11.5214204788208;4.71405029296875;-10.670608520507812;-6.75286865234375
1445425929075;330.2164001464844;-105.05770874023438;-12.16379451751709;0.595245361328125;-7.7678375244140625;-7.4589385986328125
1445425929107;328.26690673828125;-106.4739761352539;-12.586892127990723;-0.1696624755859375;-4.6885528564453125;-5.360321044921875
1445425929142;325.8271789550781;-106.46631622314453;-12.225144386291504;4.0864105224609375;-13.063430786132812;-0.3981475830078125
1445425929174;326.8008728027344;-105.45020294189453;-11.799216270446777;8.636703491210938;-17.868698120117188;-3.9481658935546875
1445425929208;331.4313659667969;-102.39910888671875;-10.249946594238281;6.969573974609375;-12.29852294921875;-3.771636962890625
1445425929241;330.8554992675781;-100.38114929199219;-10.117877006530762;1.98779296875;-3.5509796142578125;3.1910858154296875
1445425929273;333.97393798828125;-100.35247802734375;-9.859650611877441;0.0853118896484375;-6.5322113037109375;4.6816864013671875
1445425929308;341.803955078125;-97.1744384765625;-11.089232444763184;-0.9345855712890625;-11.043258666992188;1.700469970703125
1445425929338;344.19256591796875;-93.16498565673828;-11.997295379638672;-0.91497802734375;-13.083053588867188;-2.908660888671875
1445425929373;343.9231262207031;-92.63611602783203;-11.170045852661133;0.0068511962890625;-11.572830200195312;-0.9080963134765625
1445425929405;347.9613037109375;-91.29241943359375;-9.143959999084473;2.5369720458984375;-9.533035278320312;-0.005889892578125
1445425929438;348.672607421875;-89.81290435791016;-8.719592094421387;2.49774169921875;-8.94464111328125;-0.574676513671875
1445425929471;348.0709533691406;-87.85236358642578;-8.648401260375977;2.0074005126953125;-9.101547241210938;-0.2608642578125
1445425929504;348.8818054199219;-86.40742492675781;-8.972909927368164;0.869842529296875;-9.846847534179688;0.052947998046875
1445425929537;348.9920349121094;-85.71903991699219;-8.896925926208496;0.7717742919921875;-9.180007934570312;-0.182403564453125
1445425929570;349.84503173828125;-84.11833190917969;-8.735648155212402;1.046356201171875;-9.00347900390625;-0.005889892578125
1445425929603;350.0618591308594;-81.97608184814453;-9.204781532287598;1.3405609130859375;-9.238845825195312;-0.182403564453125
1445425929635;349.937744140625;-80.72802734375;-9.553384780883789;1.12481689453125;-9.768402099609375;-1.00616455078125
1445425929668;350.0101318359375;-78.22905731201172;-10.499735832214355;0.2029876708984375;-10.19989013671875;-1.2219085693359375
1445425929702;350.5207214355469;-76.65478515625;-11.453130722045898;-0.542327880859375;-11.749343872070312;0.7001953125
1445425929735;351.2467041015625;-76.52399444580078;-11.531702041625977;0.928680419921875;-11.651275634765625;0.111785888671875
1445425929768;351.9256591796875;-76.41495513916016;-11.398221969604492;3.2038116455078125;-12.043548583984375;-1.4768829345703125
1445425929801;351.7507629394531;-76.56586456298828;-11.854785919189453;-0.91497802734375;-15.083602905273438;-0.77081298828125
1445425929833;350.9529724121094;-77.22026062011719;-11.749340057373047;-2.5232696533203125;-16.025039672851562;-0.82965087890625
1445425929867;349.82427978515625;-80.62132263183594;-10.486024856567383;1.105194091796875;-12.553482055664062;-1.51611328125
1445425929900;347.4820861816406;-86.84151458740234;-9.862261772155762;5.7535552978515625;-8.709274291992188;-0.3197021484375
1445425929933;346.4256896972656;-91.0514907836914;-10.292622566223145;5.714324951171875;-8.630828857421875;1.38665771484375
1445425929967;346.2294616699219;-98.78816223144531;-11.953348159790039;2.635040283203125;-12.29852294921875;0.7982635498046875
1445425929999;345.02972412109375;-101.25469207763672;-12.438883781433105;1.5955352783203125;-15.397415161132812;-1.8691558837890625
1445425930032;340.26641845703125;-106.45004272460938;-11.140397071838379;1.8308868408203125;-12.906524658203125;-0.692352294921875
1445425930065;334.608642578125;-110.76976776123047;-10.176989555358887;0.8502197265625;-8.081649780273438;0.1706390380859375
1445425930099;331.8048400878906;-112.42498779296875;-10.279484748840332;0.987518310546875;-6.296844482421875;-0.182403564453125
1445425930130;327.85552978515625;-114.79881286621094;-10.99846363067627;2.10546875;-4.472808837890625;-0.5942840576171875
1445425930163;325.52142333984375;-115.00972747802734;-11.36878490447998;2.2623748779296875;-5.2573394775390625;-0.692352294921875
1445425930198;324.7866516113281;-114.42040252685547;-11.22059440612793;2.55657958984375;-5.276947021484375;-0.88848876953125
1445425930230;324.5015869140625;-112.08795166015625;-10.28175163269043;3.7333831787109375;-6.43414306640625;-2.3006439208984375
1445425930263;325.1591796875;-108.64683532714844;-9.473773002624512;4.1060333251953125;-10.8275146484375;-5.1249542236328125
1445425930296;324.9937744140625;-106.95479583740234;-9.594466209411621;3.5960845947265625;-12.200454711914062;-8.537673950195312
1445425930330;323.2145690917969;-106.25076293945312;-10.37088394165039;0.987518310546875;-11.180557250976562;-8.439605712890625
1445425930363;321.7799377441406;-108.14775848388672;-10.13690185546875;-0.1892852783203125;-5.35540771484375;-4.340423583984375
1445425930396;320.2942199707031;-107.9569320678711;-10.124405860900879;2.2035369873046875;-7.316741943359375;-2.1241302490234375
1445425930428;321.426025390625;-106.19681549072266;-9.559967041015625;7.3226165771484375;-18.162887573242188;1.44549560546875
1445425930462;324.74578857421875;-104.68038177490234;-8.729510307312012;6.577301025390625;-12.35736083984375;-4.0658416748046875
1445425930494;325.99212646484375;-100.8774642944336;-7.867119789123535;4.007965087890625;-6.7087249755859375;0.01373291015625
1445425930527;330.90191650390625;-99.8581771850586;-7.759450912475586;0.9090576171875;-4.55126953125;6.2115325927734375
1445425930561;334.96124267578125;-98.50719451904297;-8.245147705078125;-0.7972869873046875;-12.612335205078125;0.0921783447265625
1445425930593;338.9917907714844;-94.89151000976562;-9.631487846374512;-1.6798858642578125;-14.377532958984375;-1.75146484375
1445425930626;342.177734375;-93.40968322753906;-7.48227596282959;1.791656494140625;-10.513702392578125;0.896331787109375
1445425930659;345.0834045410156;-91.9002914428711;-6.5526251792907715;3.92950439453125;-9.278060913085938;0.876708984375
1445425930692;346.85540771484375;-89.57149505615234;-6.018957138061523;2.7723236083984375;-8.925033569335938;0.052947998046875
1445425930726;347.8837890625;-88.8117904663086;-6.168200969696045;1.4582366943359375;-9.591873168945312;0.9159393310546875
1445425930759;351.32427978515625;-87.25183868408203;-6.732181072235107;1.046356201171875;-9.846847534179688;0.759033203125
1445425930792;353.68798828125;-85.76152801513672;-7.1911187171936035;0.28143310546875;-9.552658081054688;0.876708984375
1445425930825;354.8519592285156;-84.78758239746094;-7.496584415435791;0.9678955078125;-9.650726318359375;0.4844512939453125
1445425930858;356.3470153808594;-82.68255615234375;-8.388437271118164;1.105194091796875;-9.670333862304688;0.3471527099609375
1445425930892;357.8864440917969;-80.63995361328125;-9.63310718536377;1.12481689453125;-10.25872802734375;0.4256134033203125
1445425930923;358.8072204589844;-79.77130889892578;-10.37968635559082;0.6933135986328125;-10.572540283203125;0.4648284912109375
1445425930959;0.743682861328125;-78.53790283203125;-11.75309944152832;0.8894500732421875;-11.45513916015625;0.8571014404296875
1445425930989;1.772796630859375;-78.16165924072266;-12.315045356750488;1.164031982421875;-11.376693725585938;-0.2216339111328125
1445425931023;3.85205078125;-77.8213119506836;-13.617644309997559;1.2621002197265625;-11.435531616210938;-1.3003692626953125
1445425931061;5.7091064453125;-77.9874267578125;-14.90119457244873;0.536407470703125;-11.16094970703125;-1.6730194091796875
1445425931093;6.720489501953125;-78.77481842041016;-15.634297370910645;1.5759124755859375;-12.29852294921875;-1.18267822265625
1445425931121;6.737030029296875;-79.75943756103516;-15.751557350158691;2.183929443359375;-12.808456420898438;-1.457275390625
1445425931154;7.10821533203125;-83.72476959228516;-16.140186309814453;2.5369720458984375;-12.455429077148438;-0.3785400390625
1445425931187;7.67919921875;-86.60910034179688;-16.07486915588379;3.9687347412109375;-12.121994018554688;-0.3785400390625
1445425931220;9.2886962890625;-94.43680572509766;-15.851021766662598;4.5375213623046875;-10.807907104492188;0.36676025390625
1445425931253;10.2926025390625;-98.14505004882812;-15.596251487731934;2.0858612060546875;-9.670333862304688;-1.378814697265625
1445425931286;11.516571044921875;-102.78043365478516;-14.160665512084961;1.438629150390625;-9.00347900390625;-1.7318572998046875
1445425931318;10.514068603515625;-106.65724182128906;-11.501730918884277;-0.3069610595703125;-8.042434692382812;-1.6141815185546875
1445425931352;7.91961669921875;-109.6499252319336;-8.278645515441895;-0.1892852783203125;-7.0029296875;-2.26141357421875
1445425931388;6.049102783203125;-110.4530029296875;-6.952427387237549;1.5170745849609375;-6.61065673828125;-1.9868316650390625
1445425931417;1.490142822265625;-111.06727600097656;-5.4272990226745605;2.2035369873046875;-6.296844482421875;-1.5553436279296875
1445425931451;359.5888977050781;-111.04692077636719;-4.9117560386657715;3.0665283203125;-6.5125885009765625;-1.2219085693359375
1445425931484;357.3964538574219;-110.32112121582031;-4.099642753601074;2.5958099365234375;-7.35595703125;-1.3395843505859375
1445425931517;355.9466552734375;-108.73663330078125;-3.7747151851654053;1.0855865478515625;-8.925033569335938;-2.6732940673828125
1445425931551;354.9012756347656;-107.85842895507812;-3.7451627254486084;0.3795013427734375;-10.160659790039062;-4.4384918212890625
1445425931583;351.8475341796875;-106.4583969116211;-3.755248546600342;0.0068511962890625;-10.5333251953125;-5.419158935546875
1445425931616;347.5829162597656;-106.35791778564453;-3.676809072494507;-1.7191162109375;-11.376693725585938;-6.7724761962890625
1445425931649;344.90423583984375;-106.75869750976562;-3.517584800720215;-1.522979736328125;-11.494369506835938;-7.4001007080078125
1445425931682;338.79864501953125;-108.30553436279297;-3.7784247398376465;-0.287353515625;-7.7874603271484375;-4.673858642578125
1445425931715;333.44769287109375;-109.5779037475586;-4.694679260253906;1.3993988037109375;-5.47308349609375;-1.3003692626953125
1445425931749;331.87939453125;-109.114013671875;-4.760468482971191;2.183929443359375;-5.8261260986328125;-1.2415313720703125
1445425931781;331.2846984863281;-106.68651580810547;-4.439696788787842;5.6162567138671875;-12.9849853515625;-1.084625244140625
1445425931814;336.026123046875;-103.25;-5.015904426574707;7.9698486328125;-21.202957153320312;-5.8114166259765625
1445425931847;335.91656494140625;-102.16232299804688;-6.115864276885986;2.988067626953125;-12.808456420898438;-3.889312744140625
1445425931880;336.95703125;-101.31690216064453;-6.597539901733398;-3.052825927734375;-4.7670135498046875;10.938339233398438
1445425931912;342.7805480957031;-96.31584930419922;-8.121712684631348;0.359893798828125;-11.357070922851562;0.2883148193359375
1445425931947;342.89959716796875;-94.63587188720703;-9.127096176147461;-0.718841552734375;-14.593276977539062;-3.0459442138671875
1445425931979;342.3124694824219;-93.98229217529297;-7.8120951652526855;2.2035369873046875;-10.396026611328125;-1.6141815185546875
1445425932013;343.14013671875;-93.20514678955078;-7.018841743469238;3.57647705078125;-7.57171630859375;0.504058837890625
1445425932044;343.02728271484375;-91.85150146484375;-6.83866024017334;2.49774169921875;-7.826690673828125;0.24908447265625
1445425932078;342.17071533203125;-90.19925689697266;-7.0362677574157715;1.1444244384765625;-8.728897094726562;0.07257080078125
1445425932111;342.3470458984375;-89.22900390625;-7.200500965118408;1.12481689453125;-9.081939697265625;0.504058837890625
1445425932144;341.9697265625;-86.5633773803711;-7.733726501464844;1.30133056640625;-9.434967041015625;0.3471527099609375
1445425932176;341.6070861816406;-85.12775421142578;-8.101165771484375;1.497467041015625;-9.611495971679688;-0.810028076171875
1445425932211;341.32269287109375;-82.64106750488281;-9.074387550354004;1.24249267578125;-10.239120483398438;-1.00616455078125
1445425932243;342.3072509765625;-80.46318817138672;-10.175414085388184;0.4579620361328125;-10.101821899414062;-0.9669342041015625
1445425932276;342.4752502441406;-79.51805877685547;-10.593698501586914;0.4971771240234375;-10.9451904296875;1.1120758056640625
1445425932309;343.26007080078125;-78.77981567382812;-11.261817932128906;2.3996734619140625;-12.278900146484375;0.36676025390625
1445425932343;343.2756042480469;-78.22254180908203;-11.275684356689453;1.105194091796875;-14.063705444335938;-0.9669342041015625
1445425932376;343.0682678222656;-78.023193359375;-11.429543495178223;-0.718841552734375;-15.338577270507812;-0.7904205322265625
1445425932407;342.00750732421875;-78.89978790283203;-11.33330249786377;-0.6207733154296875;-15.181671142578125;-0.7904205322265625
1445425932442;340.6756286621094;-82.42460632324219;-10.331107139587402;3.949127197265625;-10.19989013671875;-1.3003692626953125
1445425932475;339.321044921875;-85.19292449951172;-10.121439933776855;4.89056396484375;-8.3170166015625;0.1510162353515625
1445425932511;337.64111328125;-92.90486145019531;-11.014269828796387;2.7723236083984375;-9.12115478515625;1.50433349609375
1445425932541;337.0159912109375;-99.89947509765625;-11.860389709472656;2.066253662109375;-14.240234375;-1.2415313720703125
1445425932573;334.8314514160156;-102.11856079101562;-11.956948280334473;1.30133056640625;-15.083602905273438;-1.12384033203125
1445425932608;329.5196533203125;-107.3937759399414;-10.402084350585938;1.2621002197265625;-11.141326904296875;0.562896728515625
1445425932639;326.81988525390625;-109.9039077758789;-9.818219184875488;1.4582366943359375;-7.434417724609375;0.24908447265625
1445425932672;320.9619445800781;-113.71691131591797;-10.237197875976562;1.98779296875;-5.9830322265625;-0.0843353271484375
1445425932708;316.6673583984375;-116.09307861328125;-10.898104667663574;2.360443115234375;-4.6689453125;0.1706390380859375
1445425932737;315.3052978515625;-116.27465057373047;-11.026529312133789;2.2231597900390625;-4.9435272216796875;0.2686920166015625
1445425932772;313.4700012207031;-114.97734069824219;-10.78747844696045;2.0270233154296875;-5.41424560546875;-0.123565673828125
1445425932804;312.69940185546875;-112.47727966308594;-10.253454208374023;3.3607330322265625;-7.1990509033203125;-1.7318572998046875
1445425932837;313.03717041015625;-111.08332824707031;-9.972281455993652;3.9098968505859375;-10.08221435546875;-3.28131103515625
1445425932870;313.097412109375;-108.7594223022461;-9.945664405822754;3.7137603759765625;-11.16094970703125;-8.047332763671875
1445425932904;312.3276672363281;-109.73133850097656;-9.74776554107666;2.9488525390625;-9.846847534179688;-6.046783447265625
1445425932937;313.5855712890625;-110.2237319946289;-8.945364952087402;2.635040283203125;-9.00347900390625;-5.2230224609375
1445425932969;312.7142639160156;-109.48479461669922;-8.599985122680664;1.1444244384765625;-6.1595458984375;-2.281036376953125
1445425933001;311.74755859375;-109.07997131347656;-8.659592628479004;3.831451416015625;-10.239120483398438;-0.9669342041015625
1445425933035;313.66766357421875;-106.78363037109375;-8.176376342773438;6.08697509765625;-16.946868896484375;0.5432891845703125
1445425933068;321.2767333984375;-102.74015808105469;-6.267523288726807;5.6358642578125;-15.240509033203125;-5.1837921142578125
1445425933101;322.59295654296875;-101.54268646240234;-5.821643829345703;3.9883575439453125;-9.140777587890625;-2.26141357421875
1445425933134;328.5341491699219;-101.16960144042969;-4.70509147644043;1.732818603515625;-4.1982269287109375;6.6234130859375
1445425933167;336.0017395019531;-97.64823913574219;-5.092468738555908;0.1441497802734375;-10.14105224609375;1.818145751953125
1445425933200;338.05072021484375;-95.81881713867188;-5.210436820983887;-1.9348602294921875;-12.788848876953125;-0.3197021484375
1445425933233;343.43548583984375;-93.0359115600586;-3.4371070861816406;0.6148681640625;-11.45513916015625;1.0532379150390625
1445425933266;346.2666015625;-90.0445785522461;-2.3305375576019287;2.9096221923828125;-9.552658081054688;-0.1627960205078125
1445425933300;347.21826171875;-89.16746520996094;-2.1207873821258545;2.0270233154296875;-9.238845825195312;-0.3785400390625
1445425933332;351.8188171386719;-87.40545654296875;-2.0546488761901855;0.4971771240234375;-10.278350830078125;0.5236663818359375
1445425933365;356.2850646972656;-85.49856567382812;-2.475724935531616;-0.3854217529296875;-9.709564208984375;0.4256134033203125
1445425933398;357.7003479003906;-84.65056610107422;-2.6643052101135254;-0.7972869873046875;-9.317291259765625;0.1706390380859375
1445425933431;359.6470642089844;-82.54542541503906;-3.0281946659088135;-0.208892822265625;-9.101547241210938;-0.2216339111328125
1445425933464;0.302703857421875;-81.387939453125;-3.265514850616455;1.0855865478515625;-9.552658081054688;-0.5942840576171875
1445425933497;1.28228759765625;-79.04995727539062;-4.265570640563965;0.7325439453125;-10.121444702148438;-1.12384033203125
1445425933530;2.358673095703125;-76.97929382324219;-6.133394718170166;-1.09149169921875;-11.376693725585938;0.2098541259765625
1445425933567;3.7376708984375;-76.4650650024414;-6.921908378601074;0.7129364013671875;-11.651275634765625;-0.692352294921875
1445425933596;6.064697265625;-76.06884002685547;-7.5715131759643555;1.791656494140625;-12.494644165039062;-1.2219085693359375
1445425933629;6.86822509765625;-76.30927276611328;-7.9034881591796875;0.987518310546875;-13.926422119140625;-1.51611328125
1445425933664;7.245452880859375;-76.76445007324219;-7.890363693237305;0.1441497802734375;-15.024765014648438;-1.143463134765625
1445425933697;7.472412109375;-79.56950378417969;-7.548489093780518;0.477569580078125;-13.67144775390625;-2.14373779296875
1445425933728;7.79534912109375;-82.45748901367188;-7.273589134216309;5.00823974609375;-10.552932739257812;-0.1039581298828125
1445425933765;8.864715576171875;-91.09454345703125;-7.137528896331787;6.4988555908203125;-11.690505981445312;1.1512908935546875
1445425933794;8.681121826171875;-99.46528625488281;-8.298357009887695;2.870391845703125;-13.004592895507812;1.523956298828125
1445425933829;7.53607177734375;-102.44149017333984;-9.287825584411621;1.222869873046875;-12.769241333007812;-1.947601318359375
1445425933860;4.87841796875;-109.38793182373047;-9.73331356048584;0.987518310546875;-11.16094970703125;-1.457275390625
1445425933892;359.615478515625;-114.90702819824219;-9.735321998596191;0.7717742919921875;-7.5913238525390625;-0.3589324951171875
1445425933926;357;-116.91973876953125;-10.119705200195312;0.8894500732421875;-5.7476806640625;-0.1627960205078125
1445425933960;352.7024230957031;-119.61636352539062;-11.878884315490723;2.3408355712890625;-4.0020904541015625;-0.1039581298828125
1445425933991;350.8424377441406;-120.38469696044922;-13.242799758911133;2.7919464111328125;-4.7081756591796875;-0.3785400390625
1445425934027;350.4555358886719;-119.95330047607422;-13.48494815826416;2.419281005859375;-4.8258514404296875;-0.515838623046875
1445425934058;350.43133544921875;-117.68054962158203;-12.919819831848145;2.419281005859375;-5.29656982421875;-1.319976806640625
1445425934091;352.0540466308594;-113.9763412475586;-11.304725646972656;4.125640869140625;-6.8264007568359375;-2.7713623046875
1445425934124;353.00555419921875;-111.79242706298828;-10.77082633972168;4.1060333251953125;-8.356246948242188;-3.908935546875
1445425934157;354.1864318847656;-108.6685562133789;-11.052871704101562;3.9883575439453125;-14.279464721679688;-10.832427978515625
1445425934191;353.7469482421875;-108.59321594238281;-11.433405876159668;2.49774169921875;-14.86785888671875;-10.420547485351562
1445425934224;350.8961486816406;-109.79263305664062;-12.188225746154785;2.242767333984375;-7.669769287109375;-5.79180908203125
1445425934257;350.16192626953125;-108.88910675048828;-12.564937591552734;5.773162841796875;-13.749893188476562;1.4847259521484375
1445425934289;353.382568359375;-107.88050842285156;-11.64880084991455;6.851898193359375;-12.9849853515625;-2.065277099609375
1445425934322;355.2760925292969;-104.62948608398438;-10.727608680725098;4.459075927734375;-9.45458984375;-0.4373779296875
1445425934354;359.86224365234375;-102.72704315185547;-9.409017562866211;1.164031982421875;-4.39434814453125;4.3286590576171875
1445425934389;4.18536376953125;-101.41021728515625;-9.146702766418457;0.3991241455078125;-6.120330810546875;4.6424713134765625
1445425934421;9.284912109375;-97.68451690673828;-9.898838996887207;-2.150604248046875;-14.161773681640625;-2.5948486328125
1445425934454;13.29443359375;-96.08057403564453;-7.987439155578613;0.10491943359375;-10.7098388671875;0.504058837890625
1445425934487;16.5250244140625;-94.88370513916016;-6.937963485717773;1.5759124755859375;-9.415359497070312;0.327545166015625
1445425934522;18.8314208984375;-92.4703598022461;-6.277986526489258;1.24249267578125;-8.689666748046875;-0.3785400390625
1445425934553;18.078125;-91.6122055053711;-6.2522292137146;1.30133056640625;-9.297683715820312;-0.82965087890625
1445425934586;18.363739013671875;-90.04670715332031;-6.453856468200684;1.6543731689453125;-9.886077880859375;-0.810028076171875
1445425934619;19.2122802734375;-88.21625518798828;-6.2868475914001465;2.066253662109375;-9.219223022460938;-0.4962158203125
1445425934653;19.862518310546875;-87.24573516845703;-6.262930393218994;1.811279296875;-8.807342529296875;0.504058837890625
1445425934686;21.513763427734375;-85.291015625;-6.837878704071045;1.3797760009765625;-9.06231689453125;0.4648284912109375
1445425934718;21.98193359375;-82.98383331298828;-8.022435188293457;0.10491943359375;-9.807632446289062;-0.241241455078125
1445425934751;22.227294921875;-81.73799133300781;-8.65684986114502;-0.2481231689453125;-10.121444702148438;-0.5942840576171875
1445425934784;22.90277099609375;-79.73467254638672;-9.563789367675781;-0.7580718994140625;-11.043258666992188;0.01373291015625
1445425934818;24.355804443359375;-79.0501480102539;-10.175260543823242;1.556304931640625;-12.690780639648438;-0.064727783203125
1445425934849;24.96435546875;-78.9973373413086;-10.126605033874512;3.1449737548828125;-13.73028564453125;-1.1042327880859375
1445425934883;25.14263916015625;-79.19288635253906;-10.081751823425293;-0.3657989501953125;-15.260116577148438;-1.261138916015625
1445425934916;24.50531005859375;-81.39662170410156;-9.647128105163574;-0.85614013671875;-14.86785888671875;-1.0453948974609375
1445425934949;24.361236572265625;-83.58551025390625;-9.109162330627441;1.615142822265625;-12.612335205078125;-1.712249755859375
1445425934982;23.3033447265625;-90.36311340332031;-8.496320724487305;5.4593505859375;-8.728897094726562;-0.241241455078125
1445425935014;22.78216552734375;-94.59571075439453;-8.900079727172852;4.94940185546875;-9.042709350585938;0.7001953125
1445425935047;22.287872314453125;-102.14849090576172;-10.143362045288086;1.0071258544921875;-13.083053588867188;1.32781982421875
1445425935081;18.9127197265625;-107.3316650390625;-9.367085456848145;-0.091217041015625;-13.73028564453125;-1.1630706787109375
1445425935116;16.280792236328125;-110.1655044555664;-8.246868133544922;0.7717742919921875;-9.788009643554688;-0.0451202392578125
1445425935147;9.830291748046875;-114.82837677001953;-7.295544147491455;1.12481689453125;-8.218948364257812;0.0921783447265625
1445425935180;3.86114501953125;-118.54257202148438;-8.042282104492188;2.164306640625;-5.9241943359375;-0.692352294921875
1445425935216;1.659698486328125;-119.60204315185547;-8.41785717010498;2.61541748046875;-5.492706298828125;-0.77081298828125
1445425935246;358.3523254394531;-119.62702178955078;-9.257641792297363;2.419281005859375;-5.7476806640625;-0.300079345703125
1445425935279;355.9939270019531;-117.85501098632812;-9.855835914611816;2.1446990966796875;-5.6888275146484375;-0.2020263671875
1445425935313;355.46240234375;-116.6353759765625;-9.80808162689209;2.3996734619140625;-5.7672882080078125;-0.8492584228515625
1445425935344;356.385986328125;-113.61385345458984;-9.196833610534668;3.92950439453125;-7.6501617431640625;-2.692901611328125
1445425935378;357.11871337890625;-112.0960693359375;-9.09505844116211;2.9684600830078125;-10.8863525390625;-6.5763397216796875
1445425935411;356.05377197265625;-110.62872314453125;-9.626744270324707;1.98779296875;-10.964813232421875;-8.439605712890625
1445425935444;355.5563659667969;-111.64679718017578;-9.020162582397461;1.24249267578125;-11.16094970703125;-7.243194580078125
1445425935477;354.9580383300781;-112.01117706298828;-8.65849494934082;3.8510589599609375;-9.101547241210938;-1.6730194091796875
1445425935510;351.5420227050781;-111.52528381347656;-9.394274711608887;6.1065826416015625;-15.534713745117188;0.7394256591796875
1445425935542;356.2748107910156;-109.10395050048828;-8.153267860412598;7.2441558837890625;-14.514816284179688;-3.889312744140625
1445425935578;358.3796081542969;-107.25032043457031;-7.35019063949585;5.322052001953125;-9.611495971679688;-2.7713623046875
1445425935609;359.3251037597656;-105.4185562133789;-6.992584705352783;1.53668212890625;-4.8062286376953125;2.838043212890625
1445425935642;6.391845703125;-104.0602035522461;-6.436767578125;-0.8169097900390625;-8.5523681640625;1.641632080078125
1445425935676;9.55206298828125;-102.34040832519531;-6.646368503570557;-1.5426025390625;-11.435531616210938;-0.94732666015625
1445425935710;11.997528076171875;-99.64884185791016;-5.91781759262085;-1.0522613525390625;-11.670883178710938;-0.1039581298828125
1445425935741;16.1842041015625;-98.21538543701172;-3.96311354637146;2.0858612060546875;-9.827239990234375;0.6021270751953125
1445425935775;18.098236083984375;-96.60002899169922;-3.572404623031616;1.7720489501953125;-9.846847534179688;-0.1627960205078125
1445425935807;17.98321533203125;-94.3568115234375;-3.3102242946624756;1.7132110595703125;-9.493820190429688;-0.9669342041015625
1445425935840;19.046478271484375;-93.54104614257812;-3.171863317489624;2.046630859375;-9.591873168945312;0.24908447265625
1445425935875;21.90435791015625;-91.7208480834961;-3.249816417694092;1.47784423828125;-9.984146118164062;0.2294769287109375
1445425935909;24.040985107421875;-89.94518280029297;-3.261373281478882;0.928680419921875;-9.45458984375;0.562896728515625
1445425935939;25.1829833984375;-89.03756713867188;-3.2616913318634033;0.8306121826171875;-8.905410766601562;0.5432891845703125
1445425935972;26.5672607421875;-87.00991821289062;-3.841907501220703;0.477569580078125;-9.081939697265625;0.19024658203125
1445425936010;27.500640869140625;-84.7285385131836;-5.017452716827393;0.0853118896484375;-9.846847534179688;-0.5550537109375
1445425936038;28.012054443359375;-83.63681030273438;-5.655717372894287;-0.0519866943359375;-10.337188720703125;-0.751190185546875
1445425936071;28.533538818359375;-81.62703704833984;-6.649486541748047;-0.7384490966796875;-10.7098388671875;-1.084625244140625
1445425936103;29.680206298828125;-80.3200912475586;-7.2714080810546875;-0.1304473876953125;-10.7098388671875;0.1510162353515625
1445425936137;30.941497802734375;-80.1685791015625;-7.333529472351074;1.811279296875;-10.356796264648438;0.24908447265625
1445425936170;32.7691650390625;-80.28339385986328;-7.425383567810059;3.3018798828125;-12.220062255859375;-1.2219085693359375
1445425936203;33.426300048828125;-80.41404724121094;-7.648414611816406;-0.9934234619140625;-14.946304321289062;-1.00616455078125
1445425936236;33.725433349609375;-81.74942016601562;-7.989296913146973;-2.0721588134765625;-17.672561645507812;-0.3197021484375
1445425936269;33.363494873046875;-85.89366912841797;-6.775941848754883;2.61541748046875;-12.631942749023438;-1.457275390625
1445425936302;32.87109375;-89.17047882080078;-6.690844535827637;4.517913818359375;-9.533035278320312;-0.94732666015625
1445425936335;32.494384765625;-97.84911346435547;-8.075318336486816;7.2441558837890625;-9.297683715820312;0.7198028564453125
1445425936368;32.864013671875;-105.28160858154297;-10.581254959106445;3.0861358642578125;-12.65155029296875;0.7198028564453125
1445425936402;32.128875732421875;-107.75318145751953;-11.366328239440918;1.36016845703125;-12.867294311523438;-0.633514404296875
1445425936434;28.875946044921875;-112.97500610351562;-10.754583358764648;0.34027099609375;-9.827239990234375;-1.1042327880859375
1445425936467;24.107391357421875;-116.6009521484375;-10.608769416809082;0.7129364013671875;-7.3363494873046875;-0.2804718017578125
1445425936500;21.9732666015625;-117.96949768066406;-10.930392265319824;1.2032623291015625;-6.120330810546875;-0.4373779296875
1445425936533;18.8702392578125;-119.79769897460938;-11.590598106384277;2.5173492431640625;-5.218109130859375;-1.496490478515625
1445425936567;17.784271240234375;-119.88440704345703;-11.601813316345215;2.55657958984375;-6.355682373046875;-1.947601318359375
1445425936598;16.2615966796875;-118.4812240600586;-11.187997817993164;2.2035369873046875;-6.3164520263671875;-2.2418060302734375
1445425936632;15.8277587890625;-115.87952423095703;-10.241169929504395;2.8311614990234375;-7.12060546875;-2.8694305419921875
1445425936666;15.977783203125;-114.41780853271484;-9.713685035705566;3.556854248046875;-8.003204345703125;-3.4185943603515625
1445425936698;16.181182861328125;-111.9350814819336;-9.530470848083496;3.57647705078125;-9.768402099609375;-5.7133636474609375
1445425936731;15.7918701171875;-110.82478332519531;-10.240829467773438;2.4585113525390625;-10.356796264648438;-7.635467529296875
1445425936764;15.478546142578125;-110.97460174560547;-10.197649002075195;1.3405609130859375;-10.003753662109375;-7.5962371826171875
1445425936797;14.214263916015625;-111.44953918457031;-9.444190979003906;0.242218017578125;-6.5910491943359375;-4.9876708984375
1445425936831;13.01397705078125;-111.3381118774414;-9.151761054992676;5.1651458740234375;-13.84796142578125;-1.4180450439453125
1445425936863;12.6083984375;-109.93780517578125;-8.569167137145996;7.146087646484375;-19.1435546875;-0.300079345703125
1445425936896;16.3546142578125;-106.88626861572266;-7.43548583984375;6.9891815185546875;-10.905975341796875;-3.4185943603515625
1445425936930;16.30828857421875;-106.0866470336914;-7.638540267944336;2.7134857177734375;-4.0020904541015625;3.7402496337890625
1445425936963;19.525909423828125;-105.54876708984375;-7.492766380310059;1.2817230224609375;-5.845733642578125;4.8778228759765625
1445425936996;26.14959716796875;-102.29603576660156;-7.915223121643066;-2.5821075439453125;-11.729736328125;0.19024658203125
1445425937029;27.30511474609375;-100.01889038085938;-8.090590476989746;-1.5426025390625;-12.435806274414062;-1.7318572998046875
1445425937061;30.11724853515625;-98.03447723388672;-6.007148265838623;0.8109893798828125;-10.788284301757812;-0.9080963134765625
1445425937096;33.44488525390625;-95.55145263671875;-4.526021957397461;2.811553955078125;-8.983871459960938;-0.4569854736328125
1445425937129;33.2972412109375;-94.47553253173828;-4.3124470710754395;1.791656494140625;-9.00347900390625;-0.3589324951171875
1445425937160;33.88507080078125;-92.63809204101562;-4.28572416305542;1.8701171875;-9.081939697265625;0.07257080078125
1445425937193;36.039886474609375;-90.78932189941406;-4.690391540527344;0.869842529296875;-10.042984008789062;0.30792236328125
1445425937225;36.319091796875;-89.88127899169922;-4.66815710067749;0.418731689453125;-9.90570068359375;-0.0254974365234375
1445425937260;37.626708984375;-87.90277862548828;-4.383885383605957;0.654083251953125;-9.12115478515625;-0.0254974365234375
1445425937291;38.4810791015625;-86.8144302368164;-4.458615303039551;0.928680419921875;-9.199615478515625;-0.3393096923828125
1445425937325;39.267242431640625;-84.47388458251953;-5.1591973304748535;0.7325439453125;-9.591873168945312;-0.3589324951171875
1445425937358;40.21820068359375;-82.29771423339844;-6.3103413581848145;-0.3069610595703125;-10.278350830078125;-0.7904205322265625
1445425937391;40.66595458984375;-81.43183135986328;-6.795099258422852;-1.03265380859375;-10.7098388671875;-0.633514404296875
1445425937424;42.6656494140625;-80.6585464477539;-7.204330921173096;0.5560302734375;-11.082489013671875;0.2883148193359375
1445425937457;44.605377197265625;-80.4216079711914;-7.215407371520996;3.7137603759765625;-11.670883178710938;-1.143463134765625
1445425937490;45.175811767578125;-80.36155700683594;-7.601300239562988;2.5173492431640625;-12.808456420898438;-1.3592071533203125
1445425937528;45.4761962890625;-81.23089599609375;-8.123927116394043;-1.4445343017578125;-16.044662475585938;-0.7904205322265625
1445425937559;44.833038330078125;-84.5842056274414;-7.462615489959717;-0.405029296875;-13.78912353515625;-0.9669342041015625
1445425937589;44.41162109375;-87.22203826904297;-6.983516216278076;2.752716064453125;-11.16094970703125;-1.06500244140625
1445425937622;42.68780517578125;-94.84516906738281;-7.545811176300049;5.439727783203125;-10.454864501953125;0.7394256591796875
1445425937655;42.702362060546875;-102.36449432373047;-9.245017051696777;1.2817230224609375;-13.357635498046875;0.4256134033203125
1445425937688;41.83056640625;-104.82461547851562;-9.711517333984375;0.1245269775390625;-13.455703735351562;-1.143463134765625
1445425937721;37.57708740234375;-109.94062042236328;-8.843027114868164;0.16375732421875;-10.062606811523438;-0.6138916015625
1445425937756;34.600494384765625;-112.34262084960938;-8.150824546813965;0.3206634521484375;-8.4935302734375;0.0921783447265625
1445425937787;28.6766357421875;-116.19631958007812;-8.375377655029297;1.9485626220703125;-5.7476806640625;-0.241241455078125
1445425937820;25.115203857421875;-118.74497985839844;-9.27552318572998;2.73309326171875;-5.47308349609375;-1.00616455078125
1445425937854;24.001617431640625;-119.20687103271484;-9.51964282989502;2.046630859375;-6.5322113037109375;-1.1630706787109375
1445425937886;22.15386962890625;-118.65130615234375;-9.68610954284668;1.9681854248046875;-6.4537506103515625;-1.143463134765625
1445425937919;20.55078125;-116.80198669433594;-9.248367309570312;2.3408355712890625;-6.49298095703125;-1.692626953125
1445425937953;19.965362548828125;-115.40900421142578;-8.931981086730957;2.7919464111328125;-7.1598358154296875;-2.398712158203125
1445425937985;19.47711181640625;-112.27272033691406;-8.72751235961914;3.380340576171875;-10.749069213867188;-4.968048095703125
1445425938018;19.057769775390625;-111.03900909423828;-9.026687622070312;2.301605224609375;-10.160659790039062;-8.498443603515625
1445425938051;16.59478759765625;-110.1202392578125;-10.092595100402832;1.3405609130859375;-10.7686767578125;-7.5766143798828125
1445425938084;15.09222412109375;-111.27111053466797;-9.854998588562012;0.928680419921875;-8.022811889648438;-5.9487152099609375
1445425938117;13.634918212890625;-111.25763702392578;-9.698113441467285;3.6745452880859375;-9.513427734375;-1.1630706787109375
1445425938150;12.755950927734375;-110.03816223144531;-9.065129280090332;5.263214111328125;-13.985260009765625;1.4258880615234375
1445425938183;17.2276611328125;-106.89769744873047;-7.5525617599487305;6.2438812255859375;-14.75018310546875;-3.1832427978515625
1445425938216;17.653350830078125;-105.09490966796875;-7.395379066467285;4.9690093994140625;-11.16094970703125;-2.9478759765625
1445425938249;18.643890380859375;-103.6431655883789;-7.8210601806640625;1.6935882568359375;-5.17889404296875;2.720367431640625
1445425938282;25.810546875;-101.86609649658203;-8.664060592651367;-0.267730712890625;-8.395462036132812;4.3286590576171875
1445425938316;28.466705322265625;-100.29828643798828;-9.541117668151855;-1.5622100830078125;-11.710113525390625;1.3670501708984375
1445425938348;29.226287841796875;-97.982421875;-9.613313674926758;-1.5818328857421875;-12.671173095703125;-1.692626953125
1445425938381;29.958587646484375;-97.73332214355469;-8.488322257995605;2.5958099365234375;-9.591873168945312;0.111785888671875
1445425938413;33.391815185546875;-95.27446746826172;-6.582405090332031;3.262664794921875;-9.278060913085938;0.111785888671875
1445425938447;33.04681396484375;-93.1463623046875;-6.418754577636719;2.73309326171875;-8.925033569335938;-1.319976806640625
1445425938480;33.855438232421875;-92.44277954101562;-6.536052227020264;1.732818603515625;-9.415359497070312;0.1706390380859375
1445425938513;35.80621337890625;-90.91998291015625;-6.9211344718933105;1.105194091796875;-9.846847534179688;0.7001953125
1445425938546;36.139068603515625;-89.1365966796875;-7.013093948364258;0.654083251953125;-9.591873168945312;0.2883148193359375
1445425938582;36.568756103515625;-88.16832733154297;-7.049436569213867;0.8502197265625;-9.650726318359375;0.052947998046875
1445425938612;37.261962890625;-85.97201538085938;-7.344902038574219;1.105194091796875;-9.748779296875;-0.300079345703125
1445425938645;37.970703125;-83.7338638305664;-7.985843658447266;0.6933135986328125;-10.160659790039062;-0.77081298828125
1445425938678;38.2940673828125;-82.69346618652344;-8.412656784057617;-0.267730712890625;-10.08221435546875;-0.123565673828125
1445425938712;38.893707275390625;-81.25242614746094;-8.920342445373535;1.3797760009765625;-10.454864501953125;0.19024658203125
1445425938745;40.65936279296875;-80.46578216552734;-9.405043601989746;2.3996734619140625;-10.8863525390625;-0.0451202392578125
1445425938776;41.87353515625;-80.28877258300781;-9.794849395751953;2.183929443359375;-10.572540283203125;-0.5942840576171875
1445425938810;42.2210693359375;-79.90898132324219;-10.583357810974121;0.5560302734375;-12.161224365234375;-1.378814697265625
1445425938843;41.725494384765625;-79.921142578125;-10.986542701721191;-2.1898345947265625;-17.064544677734375;-0.6727447509765625
1445425938876;40.078094482421875;-81.24810791015625;-10.992158889770508;-2.856689453125;-15.5543212890625;-0.868865966796875
1445425938909;37.8924560546875;-85.79753112792969;-10.124210357666016;2.2819976806640625;-10.8863525390625;-0.6727447509765625
1445425938942;36.868560791015625;-89.20307922363281;-9.90944766998291;4.694427490234375;-9.984146118164062;-0.2608642578125
1445425938975;33.661865234375;-96.98409271240234;-10.835411071777344;2.8311614990234375;-10.690231323242188;1.2885894775390625
1445425939009;31.963714599609375;-103.391357421875;-12.188750267028809;-0.85614013671875;-13.024200439453125;0.0333404541015625
1445425939041;29.43609619140625;-105.65057373046875;-12.376079559326172;-1.5818328857421875;-13.357635498046875;-1.2219085693359375
1445425939075;21.8529052734375;-110.47137451171875;-10.9700345993042;-0.954193115234375;-10.729446411132812;-0.064727783203125
1445425939109;13.33026123046875;-114.36070251464844;-9.916378021240234;-0.7580718994140625;-7.944366455078125;-0.4177703857421875
1445425939142;9.386993408203125;-115.99037170410156;-9.73907470703125;-0.032379150390625;-6.8852386474609375;-0.9669342041015625
1445425939172;2.423675537109375;-117.87938690185547;-9.915705680847168;0.5560302734375;-7.2186737060546875;-0.5550537109375
1445425939206;356.10980224609375;-118.12106323242188;-10.389394760131836;1.046356201171875;-7.7089996337890625;-0.515838623046875
1445425939239;353.20556640625;-117.80424499511719;-10.435924530029297;1.75244140625;-7.7678375244140625;-0.751190185546875
1445425939272;347.64215087890625;-116.48027801513672;-10.230931282043457;2.73309326171875;-8.4346923828125;-1.378814697265625
1445425939305;345.2395935058594;-115.55134582519531;-10.06348705291748;3.380340576171875;-8.983871459960938;-2.1633453369140625
1445425939338;341.6036071777344;-113.86231994628906;-10.1165771484375;3.4195709228515625;-8.983871459960938;-2.7125244140625
1445425939370;338.7158203125;-112.99983215332031;-11.049771308898926;3.0861358642578125;-8.2581787109375;-3.4382171630859375
1445425939404;337.1263732910156;-112.82588195800781;-11.626184463500977;0.869842529296875;-8.473922729492188;-6.0075531005859375
1445425939438;332.87115478515625;-112.32061767578125;-12.246095657348633;-1.1895599365234375;-10.905975341796875;-6.98822021484375
1445425939470;330.02978515625;-112.4073715209961;-10.652499198913574;-0.58154296875;-10.7098388671875;-7.811981201171875
1445425939504;327.1474914550781;-112.72689056396484;-10.438492774963379;-0.4638671875;-7.68939208984375;-4.791534423828125
1445425939536;323.2308349609375;-112.22334289550781;-10.01552963256836;4.32177734375;-11.494369506835938;0.81787109375
1445425939569;327.1116027832031;-109.4853515625;-8.69739055633545;7.9502410888671875;-15.94659423828125;-2.6536865234375
1445425939601;327.94140625;-107.9547348022461;-8.78764533996582;7.0676422119140625;-12.376968383789062;-3.595123291015625
1445425939636;328.4726867675781;-106.6424560546875;-9.981351852416992;1.2032623291015625;-5.1200408935546875;3.524505615234375
1445425939668;336.94683837890625;-104.15716552734375;-10.33203411102295;-0.7384490966796875;-8.1993408203125;4.3874969482421875
1445425939701;339.34478759765625;-102.09080505371094;-10.884303092956543;-1.6602783203125;-11.474761962890625;-0.123565673828125
1445425939734;339.84881591796875;-99.79389190673828;-10.408180236816406;0.2029876708984375;-11.023651123046875;-0.574676513671875
1445425939768;341.16021728515625;-99.28583526611328;-9.535502433776855;2.8899993896484375;-8.88580322265625;0.07257080078125
1445425939801;341.3187255859375;-97.30862426757812;-8.976017951965332;2.8899993896484375;-8.807342529296875;0.052947998046875
1445425939833;339.5224609375;-95.7204360961914;-9.191858291625977;2.5958099365234375;-9.297683715820312;-0.1627960205078125
1445425939866;339.93682861328125;-94.82086181640625;-9.133336067199707;2.635040283203125;-9.395751953125;0.13140869140625
1445425939899;340.6852722167969;-93.08984375;-9.02178955078125;1.5759124755859375;-9.474197387695312;0.30792236328125
1445425939932;340.50701904296875;-92.18605041503906;-9.017374038696289;0.7521514892578125;-9.434967041015625;0.327545166015625
1445425939964;340.76898193359375;-90.34612274169922;-8.9956636428833;0.928680419921875;-9.513427734375;0.19024658203125
1445425939998;340.94720458984375;-88.1616439819336;-9.160176277160645;1.438629150390625;-9.552658081054688;-0.4962158203125
1445425940031;341.1370849609375;-87.03958129882812;-9.397478103637695;0.9090576171875;-9.846847534179688;-0.810028076171875
1445425940065;341.43670654296875;-84.99445343017578;-10.100326538085938;0.04608154296875;-10.08221435546875;-0.868865966796875
1445425940097;341.286376953125;-83.32691192626953;-10.685325622558594;-1.464141845703125;-10.964813232421875;0.4059906005859375
1445425940131;341.5285339355469;-82.86460876464844;-10.678740501403809;2.43890380859375;-12.278900146484375;0.58251953125
1445425940163;342.14794921875;-82.34394836425781;-10.153936386108398;3.2822723388671875;-13.436080932617188;-0.241241455078125
1445425940195;341.6711120605469;-82.10232543945312;-10.040579795837402;0.9090576171875;-15.240509033203125;-0.9865570068359375
1445425940231;341.10125732421875;-82.67675018310547;-10.056377410888672;-0.0519866943359375;-14.98553466796875;-0.9080963134765625
1445425940262;340.2783508300781;-85.86396789550781;-9.691123008728027;2.2819976806640625;-12.02392578125;-0.7315826416015625
1445425940295;338.82769775390625;-91.46243286132812;-9.641437530517578;4.5963592529296875;-8.571990966796875;-0.4962158203125
1445425940329;337.9697265625;-95.08300018310547;-10.071030616760254;4.8513336181640625;-8.88580322265625;0.327545166015625
1445425940361;337.6909484863281;-102.71923065185547;-11.515961647033691;3.6745452880859375;-11.984695434570312;0.8374786376953125
1445425940394;337.3177185058594;-105.50259399414062;-11.88892650604248;1.105194091796875;-12.612335205078125;-1.18267822265625
1445425940427;335.2825927734375;-110.05133819580078;-10.314238548278809;0.5167999267578125;-11.45513916015625;-1.18267822265625
1445425940460;331.10675048828125;-113.6710433959961;-8.829178810119629;1.2817230224609375;-8.611221313476562;0.4648284912109375
1445425940494;328.9449157714844;-115.3526611328125;-8.901244163513184;2.7723236083984375;-6.414520263671875;-0.241241455078125
1445425940527;325.2099609375;-118.1701431274414;-9.598718643188477;3.1449737548828125;-5.7476806640625;-0.8492584228515625
1445425940559;323.05224609375;-119.28414916992188;-10.129077911376953;2.752716064453125;-6.4537506103515625;-1.2219085693359375
1445425940592;322.40679931640625;-119.06208038330078;-10.27405071258545;2.3996734619140625;-6.806793212890625;-1.06500244140625
1445425940625;321.602294921875;-117.7714614868164;-10.284740447998047;2.49774169921875;-6.55181884765625;-1.496490478515625
1445425940659;321.67694091796875;-116.00789642333984;-10.023311614990234;2.929229736328125;-7.5913238525390625;-3.791259765625
1445425940691;321.8475646972656;-115.08235168457031;-10.057112693786621;3.1842041015625;-8.2581787109375;-4.5169525146484375
1445425940725;322.0691223144531;-113.77793884277344;-10.580811500549316;3.0076904296875;-8.395462036132812;-5.477996826171875
1445425940757;322.24127197265625;-113.4538803100586;-10.83005142211914;2.1446990966796875;-9.886077880859375;-6.3802032470703125
1445425940790;322.51123046875;-113.37529754638672;-10.929746627807617;2.1446990966796875;-10.494094848632812;-6.497894287109375
1445425940822;321.28985595703125;-113.53949737548828;-11.072639465332031;3.75299072265625;-8.964248657226562;-2.4183197021484375
1445425940856;320.5671081542969;-113.08645629882812;-11.034467697143555;8.577865600585938;-19.202392578125;-0.2608642578125
1445425940889;325.2823181152344;-110.9085464477539;-9.866626739501953;7.9698486328125;-15.593551635742188;-2.9282684326171875
1445425940924;328.3268737792969;-108.59622192382812;-9.124276161193848;1.5955352783203125;-5.8653564453125;0.9159393310546875
1445425940955;329.2450256347656;-107.9920425415039;-8.706233978271484;0.654083251953125;-5.8653564453125;5.8780975341796875
1445425940988;337.98583984375;-105.6500244140625;-6.380865573883057;-0.287353515625;-8.728897094726562;3.6225738525390625
1445425941021;342.99774169921875;-100.48580169677734;-6.73048734664917;-2.1309967041015625;-14.318679809570312;-2.9871063232421875
1445425941054;343.6036376953125;-99.4938735961914;-6.155287742614746;-1.974090576171875;-12.749618530273438;-2.4183197021484375
1445425941087;349.5439147949219;-98.5168685913086;-2.9467453956604004;3.0272979736328125;-8.88580322265625;-0.0451202392578125
1445425941120;355.1977233886719;-95.42940521240234;-1.4914475679397583;3.3018798828125;-9.00347900390625;0.24908447265625
1445425941153;355.7125549316406;-94.16533660888672;-1.6406170129776;1.615142822265625;-9.768402099609375;-0.1431732177734375
1445425941186;358.61090087890625;-92.1387939453125;-1.3903512954711914;0.987518310546875;-9.90570068359375;0.7394256591796875
1445425941218;0.285186767578125;-91.22270202636719;-1.108210802078247;0.9678955078125;-9.866470336914062;0.8374786376953125
1445425941252;3.1751708984375;-89.46407318115234;-0.6829830408096313;0.869842529296875;-9.827239990234375;0.8374786376953125
1445425941285;6.559234619140625;-87.48468017578125;-0.7593271136283875;0.16375732421875;-9.474197387695312;0.641357421875
1445425941317;7.8914794921875;-86.54496765136719;-1.010792851448059;-0.091217041015625;-9.317291259765625;0.30792236328125
1445425941351;9.97857666015625;-84.72677612304688;-1.7909282445907593;-0.58154296875;-9.591873168945312;-0.123565673828125
1445425941384;11.382354736328125;-82.82899475097656;-2.749912738800049;-0.8169097900390625;-10.121444702148438;-0.4962158203125
1445425941417;11.7247314453125;-81.91230773925781;-3.138134479522705;-0.6207733154296875;-10.239120483398438;-0.574676513671875
1445425941450;12.808319091796875;-80.0726318359375;-4.043910980224609;-0.267730712890625;-10.5921630859375;-0.241241455078125
1445425941483;15.07342529296875;-78.85795593261719;-5.0943098068237305;0.9482879638671875;-11.239395141601562;-0.300079345703125
1445425941517;16.213592529296875;-78.62425994873047;-5.583790302276611;1.556304931640625;-11.51397705078125;-0.5354461669921875
1445425941549;16.869384765625;-78.5498275756836;-6.208949565887451;0.4971771240234375;-12.886917114257812;-0.5942840576171875
1445425941582;16.26312255859375;-79.42900085449219;-6.419771194458008;-1.405303955078125;-15.534713745117188;0.445220947265625
1445425941615;15.578033447265625;-80.53266143798828;-6.224778175354004;-0.3069610595703125;-15.475875854492188;1.131683349609375
1445425941648;14.298614501953125;-84.83306121826172;-5.664124965667725;3.498016357421875;-10.847137451171875;-0.4569854736328125
1445425941681;13.435638427734375;-88.01679229736328;-5.761713981628418;4.7924957275390625;-9.160385131835938;0.2098541259765625
1445425941714;13.506378173828125;-95.6214370727539;-6.730042457580566;4.576751708984375;-10.101821899414062;0.955169677734375
1445425941748;14.1552734375;-101.68962860107422;-7.871745586395264;3.57647705078125;-11.612045288085938;1.1709136962890625
1445425941781;13.342132568359375;-103.99346923828125;-8.011102676391602;2.360443115234375;-11.690505981445312;-0.2216339111328125
1445425941813;9.9669189453125;-108.80059814453125;-7.011354446411133;0.0068511962890625;-10.513702392578125;-1.0257720947265625
1445425941846;7.731903076171875;-111.03713989257812;-6.5142364501953125;-0.150054931640625;-9.081939697265625;-0.064727783203125
1445425941879;2.803131103515625;-114.89131164550781;-6.326731204986572;2.0074005126953125;-7.0029296875;-0.574676513671875
1445425941912;359.1744689941406;-117.22601318359375;-6.350257396697998;2.7723236083984375;-6.0418701171875;-0.751190185546875
1445425941945;357.35589599609375;-117.59835052490234;-6.330114364624023;2.242767333984375;-6.72833251953125;-1.2807464599609375
1445425941978;356.8569641113281;-117.2317123413086;-6.296443462371826;2.301605224609375;-7.042144775390625;-1.5945587158203125
1445425942011;356.2327575683594;-115.87810516357422;-6.290529727935791;2.8507843017578125;-7.9639739990234375;-2.5948486328125
1445425942044;355.7655334472656;-114.1112289428711;-6.893639087677002;2.9488525390625;-9.3369140625;-3.5558929443359375
1445425942076;355.2890625;-113.54922485351562;-7.594067096710205;2.43890380859375;-9.356521606445312;-4.1835174560546875
1445425942110;354.2228088378906;-113.263427734375;-8.709342002868652;1.36016845703125;-8.787734985351562;-4.9484405517578125
1445425942143;353.6811218261719;-113.34551239013672;-8.914459228515625;2.0270233154296875;-9.827239990234375;-4.8307647705078125
1445425942178;353.3431396484375;-113.38619232177734;-8.656852722167969;1.8308868408203125;-9.552658081054688;-5.0465087890625
1445425942212;353.743408203125;-113.70466613769531;-8.047009468078613;2.301605224609375;-6.747955322265625;-4.144287109375
1445425942242;353.3077087402344;-113.6942138671875;-8.116661071777344;2.0074005126953125;-5.8065185546875;-2.8105926513671875
1445425942276;352.29339599609375;-112.11116027832031;-7.899881839752197;3.5372467041015625;-10.474472045898438;-2.281036376953125
1445425942308;353.6518249511719;-109.1728515625;-7.561879634857178;7.51873779296875;-20.771453857421875;-2.8498077392578125
1445425942346;356.06268310546875;-107.79666900634766;-7.17724609375;6.7342071533203125;-16.57421875;-3.9285430908203125
1445425942375;358.3664245605469;-106.59164428710938;-6.3682661056518555;2.38006591796875;-5.610382080078125;-0.6531219482421875
1445425942406;0.360809326171875;-106.8250503540039;-5.767407417297363;0.6344757080078125;-5.8653564453125;4.9366607666015625
1445425942441;7.865753173828125;-104.96892547607422;-4.765795707702637;0.3991241455078125;-8.1405029296875;3.77947998046875
1445425942475;10.314208984375;-101.19722747802734;-6.056135654449463;-0.58154296875;-12.9261474609375;-1.51611328125
1445425942508;10.440338134765625;-100.09961700439453;-5.914883136749268;-0.091217041015625;-11.043258666992188;-1.2219085693359375
1445425942538;14.15521240234375;-98.73641204833984;-3.1001951694488525;1.2817230224609375;-9.90570068359375;-0.3785400390625
1445425942573;17.9957275390625;-96.28598022460938;-0.8297005891799927;3.0272979736328125;-9.140777587890625;-0.5550537109375
1445425942607;19.060699462890625;-94.9837417602539;-0.23188897967338562;3.2234344482421875;-9.160385131835938;-0.7119598388671875
1445425942638;20.998626708984375;-92.71417999267578;0.2657875418663025;2.301605224609375;-9.729171752929688;-0.005889892578125
1445425942671;24.468048095703125;-90.8544692993164;0.5294026732444763;1.3993988037109375;-9.650726318359375;0.896331787109375
1445425942704;26.528533935546875;-89.92779541015625;0.681398332118988;1.0071258544921875;-9.631103515625;1.26898193359375
1445425942736;30.09112548828125;-87.69298553466797;0.9996360540390015;0.5756378173828125;-9.886077880859375;1.0336151123046875
1445425942771;31.648468017578125;-86.49467468261719;1.1182668209075928;0.418731689453125;-9.984146118164062;0.4844512939453125
1445425942803;35.0650634765625;-84.3074722290039;1.0773636102676392;0.2618255615234375;-10.062606811523438;0.4648284912109375
1445425942835;38.237335205078125;-82.54097747802734;0.700255274772644;-0.542327880859375;-10.25872802734375;0.7394256591796875
1445425942869;39.72265625;-81.7854995727539;0.49629631638526917;-0.6207733154296875;-10.278350830078125;0.955169677734375
1445425942902;43.069580078125;-80.36642456054688;-0.018190501257777214;0.242218017578125;-10.396026611328125;1.1512908935546875
1445425942935;46.925567626953125;-79.08455657958984;-0.8390179872512817;1.3209381103515625;-10.101821899414062;0.8571014404296875
1445425942968;48.77264404296875;-78.4495620727539;-1.3314296007156372;1.222869873046875;-10.062606811523438;0.7001953125
1445425943001;52.26275634765625;-77.19629669189453;-2.407212495803833;1.24249267578125;-10.062606811523438;0.445220947265625
1445425943033;54.082427978515625;-76.6785888671875;-2.912820816040039;0.869842529296875;-10.376419067382812;-0.1431732177734375
1445425943067;57.746490478515625;-75.83008575439453;-3.944960117340088;0.3991241455078125;-10.7686767578125;-0.3393096923828125
1445425943099;61.279632568359375;-75.37955474853516;-5.2677741050720215;-0.7972869873046875;-13.259567260742188;-0.4766082763671875
1445425943133;62.567291259765625;-75.52787780761719;-5.826115131378174;-0.4246368408203125;-16.201568603515625;1.1512908935546875
1445425943166;64.59588623046875;-77.46971893310547;-6.127371311187744;3.2038116455078125;-13.985260009765625;0.504058837890625
1445425943200;65.70877075195312;-82.0809326171875;-5.993595600128174;4.32177734375;-8.081649780273438;-0.241241455078125
1445425943232;66.36392211914062;-85.37964630126953;-6.283041477203369;4.6748199462890625;-7.7286224365234375;-0.0451202392578125
1445425943266;70.73699951171875;-93.3918685913086;-7.462834358215332;5.4005126953125;-11.357070922851562;1.4062652587890625
1445425943298;73.75042724609375;-99.22322845458984;-8.460357666015625;3.2234344482421875;-12.906524658203125;0.759033203125
1445425943331;73.125;-101.28663635253906;-8.500459671020508;1.7720489501953125;-11.984695434570312;-0.574676513671875
1445425943364;71.67745971679688;-106.14580535888672;-7.799506664276123;0.3795013427734375;-9.827239990234375;-0.88848876953125
1445425943397;70.75439453125;-108.26697540283203;-7.5692009925842285;0.869842529296875;-7.63055419921875;-0.2608642578125
1445425943432;69.96432495117188;-111.55889892578125;-7.541419506072998;1.6347503662109375;-6.66949462890625;-0.810028076171875
1445425943463;68.60693359375;-113.13758850097656;-7.909751892089844;2.811553955078125;-6.061492919921875;-1.888763427734375
1445425943496;67.57107543945312;-113.05984497070312;-8.520014762878418;3.2234344482421875;-7.1598358154296875;-2.457550048828125
1445425943529;67.49264526367188;-112.68075561523438;-8.828132629394531;3.4587860107421875;-7.3951873779296875;-2.8302001953125
1445425943562;68.53945922851562;-111.78750610351562;-9.557185173034668;2.635040283203125;-7.4736480712890625;-3.261688232421875
1445425943595;69.29058837890625;-111.33279418945312;-9.954549789428711;2.0074005126953125;-7.5128631591796875;-3.595123291015625
1445425943628;71.0562744140625;-110.37647247314453;-10.616861343383789;1.47784423828125;-7.35595703125;-4.281585693359375
1445425943661;72.88946533203125;-109.1260986328125;-11.106793403625488;1.3993988037109375;-7.86590576171875;-4.65423583984375
1445425943695;73.68869018554688;-108.3825454711914;-11.257062911987305;2.419281005859375;-9.238845825195312;-5.4387664794921875
1445425943727;75.35443115234375;-107.58271026611328;-11.307223320007324;2.988067626953125;-9.513427734375;-5.7722015380859375
1445425943760;77.41738891601562;-108.08885955810547;-11.294719696044922;2.61541748046875;-7.7286224365234375;-5.1445770263671875
1445425943795;77.63787841796875;-107.94437408447266;-11.243266105651855;2.5173492431640625;-7.1009979248046875;-4.3011932373046875
1445425943826;77.35003662109375;-105.9674301147461;-11.01538372039795;6.9303436279296875;-14.69134521484375;-2.20257568359375
1445425943860;78.6138916015625;-104.77442932128906;-11.004977226257324;6.832275390625;-16.848800659179688;-2.4379425048828125
1445425943893;82.342041015625;-102.81726837158203;-10.55482292175293;4.5571441650390625;-10.905975341796875;-3.3597564697265625
1445425943926;86.1884765625;-102.4250259399414;-9.077534675598145;1.12481689453125;-4.8062286376953125;1.56317138671875
1445425943959;93.25018310546875;-99.98661041259766;-8.25523853302002;1.0659637451171875;-8.277786254882812;2.2300262451171875
1445425943992;96.01397705078125;-98.30782318115234;-8.421670913696289;-0.326568603515625;-11.78857421875;-1.4180450439453125
1445425944025;98.84945678710938;-95.84175872802734;-8.089963912963867;0.1833648681640625;-10.905975341796875;-0.4766082763671875
1445425944057;101.13729858398438;-95.37844848632812;-7.145660400390625;2.419281005859375;-8.670059204101562;0.6609649658203125
1445425944091;107.3016357421875;-93.66254425048828;-5.707659721374512;2.55657958984375;-8.866195678710938;0.2686920166015625
1445425944125;111.51663208007812;-90.93400573730469;-5.591926574707031;1.30133056640625;-10.356796264648438;-0.1627960205078125
1445425944158;113.02536010742188;-89.7031021118164;-5.604957103729248;1.046356201171875;-10.180282592773438;0.3471527099609375
1445425944192;116.04684448242188;-87.86073303222656;-5.488009452819824;0.7129364013671875;-9.944915771484375;0.6609649658203125
1445425944223;118.466552734375;-86.27631378173828;-5.296126365661621;0.5756378173828125;-10.02337646484375;0.0333404541015625
1445425944255;120.09709167480469;-85.43822479248047;-5.227814197540283;0.4579620361328125;-9.768402099609375;0.19024658203125
1445425944287;123.1822509765625;-83.57410430908203;-5.3675923347473145;0.1441497802734375;-9.376129150390625;0.2098541259765625
1445425944323;124.18435668945312;-82.64838409423828;-5.588531017303467;0.1833648681640625;-9.68994140625;-0.4177703857421875
1445425944354;125.94375610351562;-81.0171890258789;-6.341085910797119;0.0068511962890625;-9.709564208984375;-0.3197021484375
1445425944387;128.1842498779297;-79.5472412109375;-7.4384870529174805;-0.6207733154296875;-10.25872802734375;0.759033203125
1445425944420;129.26564025878906;-78.87361907958984;-7.904109001159668;-0.3069610595703125;-10.396026611328125;0.81787109375
1445425944453;131.4219970703125;-77.6506118774414;-8.559638023376465;0.3795013427734375;-10.9451904296875;0.2883148193359375
1445425944486;134.37384033203125;-77.06097412109375;-9.423369407653809;2.55657958984375;-11.16094970703125;-1.143463134765625
1445425944519;135.6945037841797;-76.89627075195312;-9.964485168457031;1.6347503662109375;-11.592437744140625;-0.9865570068359375
1445425944552;137.98817443847656;-77.18936157226562;-10.777295112609863;0.10491943359375;-13.985260009765625;-0.9669342041015625
1445425944585;139.224365234375;-78.92408752441406;-10.500547409057617;-0.601165771484375;-14.652114868164062;-0.1039581298828125
1445425944618;139.5546417236328;-80.44769287109375;-10.166788101196289;1.53668212890625;-13.49493408203125;0.4844512939453125
1445425944651;139.42662048339844;-85.64844512939453;-9.595898628234863;5.6750946044921875;-9.846847534179688;-0.064727783203125
1445425944683;139.14085388183594;-89.2685775756836;-9.915148735046387;6.8126678466796875;-10.14105224609375;0.641357421875
1445425944717;139.74899291992188;-97.14734649658203;-11.618338584899902;6.0673675537109375;-11.121719360351562;1.32781982421875
1445425944750;140.3416748046875;-102.45426177978516;-13.09449291229248;1.47784423828125;-11.710113525390625;-0.4569854736328125
1445425944783;140.4002685546875;-104.79744720458984;-12.621256828308105;0.6933135986328125;-10.729446411132812;-1.12384033203125
1445425944816;138.54464721679688;-108.99917602539062;-11.047563552856445;1.0071258544921875;-8.964248657226562;0.13140869140625
1445425944849;136.35733032226562;-111.96879577636719;-10.605157852172852;2.10546875;-6.983306884765625;0.01373291015625
1445425944882;135.28179931640625;-112.97994995117188;-10.744982719421387;2.55657958984375;-5.9438018798828125;-0.7315826416015625
1445425944915;133.4009246826172;-113.85071563720703;-11.351446151733398;2.7723236083984375;-5.7476806640625;-1.810302734375
1445425944948;132.83880615234375;-112.71875;-11.90676498413086;2.066253662109375;-6.7087249755859375;-1.3984375
1445425944981;133.11367797851562;-111.70848846435547;-11.958815574645996;2.164306640625;-7.0029296875;-1.4180450439453125
1445425945014;134.2008514404297;-109.58405303955078;-11.8394775390625;2.2623748779296875;-7.9835968017578125;-3.085174560546875
1445425945047;135.45523071289062;-108.02555847167969;-11.747745513916016;2.183929443359375;-9.631103515625;-5.5172271728515625
1445425945080;135.97665405273438;-107.5843505859375;-11.812936782836914;2.752716064453125;-9.729171752929688;-5.96832275390625
1445425945113;137.70404052734375;-107.87682342529297;-12.003408432006836;2.6546478271484375;-10.219512939453125;-7.0862884521484375
1445425945147;138.3277130126953;-108.48446655273438;-12.204508781433105;2.10546875;-6.8460235595703125;-4.41888427734375
1445425945179;137.1912384033203;-109.0866470336914;-12.882367134094238;2.360443115234375;-5.8065185546875;-2.8498077392578125
1445425945213;135.85240173339844;-108.01376342773438;-12.891883850097656;5.96929931640625;-13.083053588867188;-2.1241302490234375
1445425945245;136.6109619140625;-106.90237426757812;-12.38672161102295;7.28338623046875;-20.379196166992188;-1.75146484375
1445425945279;141.31996154785156;-104.20748138427734;-11.053559303283691;4.753265380859375;-12.082763671875;-3.9481658935546875
1445425945311;142.966796875;-102.96369171142578;-10.200540542602539;0.7913818359375;-4.021697998046875;2.269256591796875
1445425945346;145.3377227783203;-102.79977416992188;-9.524120330810547;1.0267486572265625;-7.3951873779296875;3.2499237060546875
1445425945377;152.23641967773438;-100.61528015136719;-9.08979320526123;-0.032379150390625;-10.239120483398438;-0.123565673828125
1445425945409;156.3373565673828;-97.59700012207031;-9.604185104370117;-1.6798858642578125;-13.083053588867188;-2.37908935546875
1445425945451;161.83050537109375;-96.46439361572266;-7.484634876251221;1.2621002197265625;-9.650726318359375;0.7001953125
1445425945478;165.30093383789062;-95.36388397216797;-6.56818151473999;2.67425537109375;-8.905410766601562;0.7786407470703125
1445425945509;167.5523223876953;-94.1591796875;-6.178625583648682;1.7132110595703125;-9.552658081054688;-0.3589324951171875
1445425945542;168.5888671875;-92.17655181884766;-5.940703868865967;1.4582366943359375;-9.68994140625;-0.2804718017578125
1445425945575;171.2107696533203;-90.42566680908203;-5.706605911254883;1.046356201171875;-9.984146118164062;0.621734619140625
1445425945609;172.5476837158203;-89.64045715332031;-5.617362976074219;0.536407470703125;-9.788009643554688;0.0333404541015625
1445425945645;175.46742248535156;-88.15995025634766;-5.374208927154541;0.301055908203125;-9.513427734375;0.01373291015625
1445425945674;178.33705139160156;-86.38458251953125;-5.562446594238281;-0.1892852783203125;-9.434967041015625;0.2883148193359375
1445425945707;179.3561248779297;-85.40618896484375;-5.817776203155518;0.1441497802734375;-9.572265625;0.07257080078125
1445425945740;181.21917724609375;-83.37723541259766;-6.640057563781738;0.3206634521484375;-9.68994140625;-0.6531219482421875
1445425945772;182.0703125;-82.46235656738281;-7.131115436553955;-0.208892822265625;-10.25872802734375;-0.3981475830078125
1445425945806;184.23193359375;-80.9408950805664;-8.167301177978516;-0.1892852783203125;-10.31756591796875;-0.2020263671875
1445425945841;186.8167724609375;-79.9590835571289;-8.835379600524902;0.3795013427734375;-10.7098388671875;0.07257080078125
1445425945872;188.279541015625;-79.8350601196289;-9.109664916992188;1.7132110595703125;-11.965087890625;-0.3197021484375
1445425945905;190.7662353515625;-79.91773986816406;-9.978958129882812;1.046356201171875;-12.671173095703125;-0.8492584228515625
1445425945938;193.0394287109375;-80.65354919433594;-10.646744728088379;-2.0721588134765625;-12.9849853515625;-1.18267822265625
1445425945971;193.8538818359375;-81.34645080566406;-10.604968070983887;-1.8171844482421875;-12.220062255859375;-1.5553436279296875
1445425946003;193.68316650390625;-83.69647979736328;-10.080862045288086;2.066253662109375;-11.21978759765625;-2.634063720703125
1445425946037;193.7764892578125;-89.09014892578125;-10.824270248413086;2.125091552734375;-11.553207397460938;-1.7906951904296875
1445425946070;194.3326416015625;-93.01631164550781;-11.260493278503418;3.1057586669921875;-13.1026611328125;0.01373291015625
1445425946103;195.21728515625;-99.9342269897461;-11.74885368347168;4.4002227783203125;-15.397415161132812;0.994384765625
1445425946137;193.719482421875;-104.86380004882812;-11.96372127532959;0.16375732421875;-14.063705444335938;-1.2415313720703125
1445425946172;191.566162109375;-107.04521942138672;-11.57949447631836;-0.0716094970703125;-12.239669799804688;-0.515838623046875
1445425946202;186.22967529296875;-111.69647979736328;-10.68714714050293;0.928680419921875;-8.218948364257812;0.504058837890625
1445425946235;180.682373046875;-115.60313415527344;-10.993911743164062;1.5759124755859375;-4.845458984375;0.81787109375
1445425946268;178.01136779785156;-116.84842681884766;-11.48248291015625;1.36016845703125;-4.10015869140625;0.8571014404296875
1445425946302;173.10641479492188;-117.9137191772461;-12.735381126403809;1.0659637451171875;-3.335235595703125;0.759033203125
1445425946335;171.22975158691406;-117.73346710205078;-13.167133331298828;1.0659637451171875;-3.1194915771484375;0.4648284912109375
1445425946367;168.9955291748047;-116.29119110107422;-13.167935371398926;1.046356201171875;-3.3548583984375;0.052947998046875
1445425946400;167.53868103027344;-114.1483383178711;-12.608847618103027;1.928955078125;-6.2576141357421875;-3.1832427978515625
1445425946434;166.5764923095703;-113.29042053222656;-12.325697898864746;3.4587860107421875;-10.101821899414062;-6.164459228515625
1445425946466;164.1774139404297;-113.69599914550781;-11.736860275268555;4.7336578369140625;-15.04437255859375;-9.753692626953125
1445425946499;164.22140502929688;-115.55432891845703;-10.832647323608398;2.73309326171875;-11.808181762695312;-9.792922973632812
1445425946534;164.44049072265625;-116.09549713134766;-10.646414756774902;2.164306640625;-8.670059204101562;-8.282699584960938
1445425946565;161.69664001464844;-115.90878295898438;-11.710555076599121;3.1253662109375;-7.042144775390625;-3.6343536376953125
1445425946598;159.99560546875;-114.73147583007812;-12.251258850097656;4.3610076904296875;-10.08221435546875;-2.4967803955078125
1445425946631;159.35247802734375;-111.21739959716797;-11.801142692565918;4.7336578369140625;-12.690780639648438;-2.9871063232421875
1445425946664;163.30319213867188;-107.70697021484375;-10.531803131103516;4.262939453125;-13.651840209960938;-3.85009765625
1445425946698;165.17279052734375;-106.41537475585938;-10.23816967010498;1.5955352783203125;-7.061767578125;-1.202301025390625
1445425946731;167.0752716064453;-105.65192413330078;-10.28299331665039;0.536407470703125;-6.1007080078125;2.269256591796875
1445425946763;171.56015014648438;-104.57568359375;-9.491464614868164;-1.0130462646484375;-8.82696533203125;4.3874969482421875
1445425946797;173.7670135498047;-102.52725219726562;-9.351778984069824;-1.856414794921875;-10.101821899414062;2.2300262451171875
1445425946829;177.64784240722656;-98.88758850097656;-9.51894760131836;0.2618255615234375;-11.886642456054688;-0.5550537109375
1445425946862;180.5943603515625;-96.74913024902344;-8.257888793945312;1.18365478515625;-10.435256958007812;-1.437652587890625
1445425946896;181.24041748046875;-95.71427917480469;-7.320062160491943;2.066253662109375;-9.474197387695312;-1.712249755859375
1445425946930;182.56475830078125;-93.87355041503906;-5.84296178817749;2.360443115234375;-8.4935302734375;-0.6531219482421875
1445425946961;185.093505859375;-91.81385040283203;-5.426723957061768;1.2621002197265625;-8.82696533203125;0.7198028564453125
1445425947002;185.63836669921875;-89.6956558227539;-5.9424214363098145;0.4579620361328125;-9.356521606445312;0.562896728515625
1445425947028;185.876708984375;-88.79222869873047;-6.142934799194336;0.1245269775390625;-9.317291259765625;0.13140869140625
1445425947060;186.53656005859375;-87.75669860839844;-6.18689489364624;0.536407470703125;-9.709564208984375;0.07257080078125
1445425947093;188.9674072265625;-84.98786926269531;-6.358492851257324;1.046356201171875;-9.827239990234375;0.01373291015625
1445425947126;190.190673828125;-82.1718978881836;-7.078169822692871;0.5560302734375;-10.160659790039062;-0.574676513671875
1445425947159;191.01959228515625;-81.13926696777344;-7.487186908721924;-0.0716094970703125;-10.19989013671875;0.58251953125
1445425947191;194.0609130859375;-79.83889770507812;-8.15649700164795;0.6344757080078125;-10.749069213867188;1.1709136962890625
1445425947228;197.2381591796875;-79.06050109863281;-8.950136184692383;1.0659637451171875;-11.357070922851562;-0.6727447509765625
1445425947259;198.55645751953125;-78.71250915527344;-9.449156761169434;-0.0519866943359375;-11.121719360351562;-0.7315826416015625
1445425947292;200.54901123046875;-78.33855438232422;-10.251960754394531;-1.405303955078125;-13.78912353515625;-1.06500244140625
1445425947324;200.92608642578125;-78.55352020263672;-10.193826675415039;0.0068511962890625;-14.907089233398438;-1.3003692626953125
1445425947359;201.35321044921875;-80.32997131347656;-9.321826934814453;1.5170745849609375;-12.886917114257812;-2.065277099609375
1445425947397;200.87939453125;-85.2465591430664;-9.159568786621094;3.7725982666015625;-11.572830200195312;-0.182403564453125
1445425947423;200.70172119140625;-89.32147216796875;-9.457462310791016;5.2828216552734375;-15.534713745117188;1.3474273681640625
1445425947457;201.9287109375;-97.68984985351562;-9.510148048400879;4.71405029296875;-15.573944091796875;0.4844512939453125
1445425947489;201.4337158203125;-103.00253295898438;-9.367902755737305;0.34027099609375;-13.985260009765625;-0.1627960205078125
1445425947521;198.78466796875;-105.4148941040039;-9.344436645507812;-0.836517333984375;-9.650726318359375;0.81787109375
1445425947555;193.19415283203125;-111.60488891601562;-9.237807273864746;-0.0716094970703125;-7.316741943359375;1.1709136962890625
1445425947588;188.4024658203125;-116.77437591552734;-10.476737976074219;1.5170745849609375;-3.6490478515625;0.9159393310546875
1445425947621;186.3531494140625;-118.39769744873047;-11.35704231262207;1.5170745849609375;-3.2371673583984375;0.9159393310546875
1445425947653;182.6854248046875;-119.76215362548828;-12.977396965026855;0.869842529296875;-4.355133056640625;0.7198028564453125
1445425947687;179.8387451171875;-119.30360412597656;-13.506450653076172;1.164031982421875;-4.923919677734375;-0.241241455078125
1445425947720;179.06288146972656;-118.40449523925781;-13.09864616394043;1.75244140625;-5.41424560546875;-1.261138916015625
1445425947754;179.06837463378906;-115.45401000976562;-11.217927932739258;3.439178466796875;-8.336624145507812;-3.9285430908203125
1445425947788;179.64007568359375;-113.69784545898438;-10.25045394897461;3.63531494140625;-13.259567260742188;-10.244033813476562
1445425947819;179.96514892578125;-110.891845703125;-9.6618070602417;2.5958099365234375;-15.4954833984375;-12.4603271484375
1445425947852;177.17822265625;-111.9107894897461;-10.595474243164062;1.164031982421875;-10.356796264648438;-8.969161987304688
1445425947885;175.33876037597656;-113.31690216064453;-11.065635681152344;0.28143310546875;-6.1595458984375;-6.7136383056640625
1445425947918;171.70681762695312;-114.620849609375;-11.078897476196289;2.4585113525390625;-7.63055419921875;-3.45782470703125
1445425947951;171.65260314941406;-114.2961196899414;-9.310365676879883;6.518463134765625;-17.692169189453125;-4.8111419677734375
1445425947985;172.2530975341797;-114.35712432861328;-9.241148948669434;5.439727783203125;-10.337188720703125;1.8966064453125
1445425948017;172.92750549316406;-114.72295379638672;-9.208747863769531;2.73309326171875;-5.159271240234375;0.13140869140625
1445425948050;180.84075927734375;-111.88279724121094;-5.094174861907959;-0.1892852783203125;-11.808181762695312;2.269256591796875
1445425948083;184.61285400390625;-109.39846801757812;-3.7199831008911133;-0.1696624755859375;-12.200454711914062;-0.3589324951171875
1445425948116;187.2711181640625;-105.42431640625;-3.3675105571746826;-0.58154296875;-9.96453857421875;-0.064727783203125
1445425948150;192.7086181640625;-100.74559020996094;-3.664898157119751;0.9090576171875;-10.25872802734375;0.504058837890625
1445425948182;194.44268798828125;-98.0384750366211;-3.811943769454956;0.6148681640625;-11.259017944335938;0.621734619140625
1445425948215;192.7503662109375;-93.23957061767578;-3.626504421234131;0.6344757080078125;-9.533035278320312;-0.5942840576171875
1445425948248;192.32611083984375;-91.15216064453125;-3.5356128215789795;0.595245361328125;-8.611221313476562;-1.00616455078125
1445425948282;196.5361328125;-86.95997619628906;-3.870654582977295;1.8308868408203125;-9.00347900390625;0.1510162353515625
1445425948316;198.7359619140625;-83.23538970947266;-5.328001022338867;0.0853118896484375;-11.023651123046875;-4.0462188720703125
1445425948348;196.68695068359375;-82.10711669921875;-5.4229817390441895;-3.170501708984375;-9.533035278320312;0.386383056640625
1445425948380;201.6490478515625;-81.0665512084961;-5.707265853881836;-0.091217041015625;-9.042709350585938;2.151580810546875
1445425948413;204.35174560546875;-78.90177154541016;-6.41862154006958;0.9678955078125;-10.5333251953125;-0.241241455078125
1445425948449;202.60467529296875;-77.9264144897461;-6.707861423492432;-1.2483978271484375;-11.474761962890625;0.8374786376953125
1445425948478;205.96649169921875;-77.16017150878906;-7.501345634460449;2.5958099365234375;-12.063156127929688;-0.123565673828125
1445425948512;206.65673828125;-76.73887634277344;-7.480314254760742;1.0855865478515625;-12.573104858398438;-2.1829681396484375
1445425948544;209.19378662109375;-77.00738525390625;-8.497520446777344;-0.8757476806640625;-12.788848876953125;-1.771087646484375
1445425948579;211.1695556640625;-78.26238250732422;-8.842092514038086;-2.307525634765625;-12.435806274414062;-2.9478759765625
1445425948611;210.97894287109375;-79.4574966430664;-8.440545082092285;1.222869873046875;-11.376693725585938;-3.45782470703125
1445425948644;210.2598876953125;-84.44911193847656;-7.846168041229248;2.3996734619140625;-11.39630126953125;-1.712249755859375
1445425948677;210.874755859375;-92.93191528320312;-7.959323406219482;4.8709564208984375;-15.515090942382812;2.151580810546875
1445425948710;212.412109375;-96.59088134765625;-7.9164628982543945;5.2239837646484375;-16.907638549804688;1.2297515869140625
1445425948743;212.62158203125;-102.32335662841797;-8.036282539367676;1.98779296875;-16.652664184570312;-0.9865570068359375
1445425948776;208.19342041015625;-107.69393920898438;-7.655121326446533;0.3206634521484375;-14.593276977539062;0.0333404541015625
1445425948809;205.46875;-110.19134521484375;-6.982547283172607;0.301055908203125;-12.063156127929688;0.641357421875
1445425948842;198.957763671875;-114.49162292480469;-6.668324947357178;0.8306121826171875;-5.3750152587890625;1.0924530029296875
1445425948875;192.9697265625;-117.26824951171875;-7.827693462371826;0.9090576171875;-1.903472900390625;1.6612396240234375
1445425948909;190.6864013671875;-117.7020492553711;-8.622876167297363;0.6933135986328125;-1.7269439697265625;1.818145751953125
1445425948941;187.42059326171875;-117.03977966308594;-9.906820297241211;0.9090576171875;-2.2368927001953125;0.994384765625
1445425948974;185.90325927734375;-115.43844604492188;-9.752257347106934;1.9485626220703125;-4.2374420166015625;-2.14373779296875
1445425949017;184.8619384765625;-113.6823959350586;-9.152575492858887;3.498016357421875;-10.494094848632812;-8.12579345703125
1445425949041;183.978271484375;-113.2755355834961;-9.151161193847656;3.63531494140625;-12.65155029296875;-9.8909912109375
1445425949073;182.260009765625;-113.47177124023438;-9.451775550842285;2.9488525390625;-12.965362548828125;-8.596511840820312
1445425949105;178.8179473876953;-115.16068267822266;-10.457897186279297;1.0855865478515625;-10.572540283203125;-6.8901519775390625
1445425949140;176.70518493652344;-117.84117126464844;-11.39359188079834;2.988067626953125;-7.1402130126953125;-5.654510498046875
1445425949173;175.3998565673828;-118.63668823242188;-11.464798927307129;4.6551971435546875;-8.1405029296875;-5.7722015380859375
1445425949209;174.0296630859375;-118.26622009277344;-10.056983947753906;4.32177734375;-13.259567260742188;-7.5962371826171875
1445425949238;176.3552703857422;-117.88848114013672;-8.71479606628418;5.6947021484375;-8.356246948242188;1.6220245361328125
1445425949276;178.7684783935547;-117.43650817871094;-8.205146789550781;0.7717742919921875;-6.49298095703125;-0.2020263671875
1445425949304;181.69287109375;-116.51448822021484;-6.506095886230469;-1.3072357177734375;-8.3758544921875;2.5634613037109375
1445425949339;188.8094482421875;-112.76129913330078;-2.7027854919433594;-0.85614013671875;-11.21978759765625;-0.5942840576171875
1445425949371;191.093505859375;-110.87208557128906;-1.991589069366455;-0.58154296875;-11.16094970703125;-0.2804718017578125
1445425949403;195.47235107421875;-106.33892822265625;-1.7572170495986938;0.6148681640625;-11.16094970703125;1.0336151123046875
1445425949435;197.90985107421875;-103.45849609375;-1.746901273727417;1.0267486572265625;-11.317855834960938;0.994384765625
1445425949469;199.64288330078125;-97.3555908203125;-1.637192964553833;1.1444244384765625;-10.121444702148438;-0.300079345703125
1445425949503;197.763427734375;-92.15812683105469;-1.703630805015564;0.9678955078125;-7.92474365234375;-0.9865570068359375
1445425949535;198.83380126953125;-89.80787658691406;-1.744698166847229;1.36016845703125;-7.0813751220703125;0.5236663818359375
1445425949569;203.408203125;-85.56289672851562;-2.802276611328125;1.556304931640625;-8.160110473632812;-0.2608642578125
1445425949601;203.42071533203125;-82.14728546142578;-4.533361434936523;-1.1307220458984375;-10.9451904296875;-3.45782470703125
1445425949635;203.5443115234375;-80.7882080078125;-5.164310932159424;-2.17022705078125;-11.004043579101562;-2.3594818115234375
1445425949667;207.46319580078125;-78.62442779541016;-6.3366780281066895;-1.4249267578125;-10.25872802734375;1.4258880615234375
1445425949699;207.145751953125;-76.82244873046875;-6.628304481506348;-0.5030975341796875;-12.41619873046875;0.58251953125
1445425949732;208.3905029296875;-76.45047760009766;-6.735469818115234;1.5170745849609375;-13.024200439453125;0.4844512939453125
1445425949765;210.84454345703125;-76.05810546875;-7.196572780609131;1.2817230224609375;-13.239959716796875;-1.6730194091796875
1445425949798;211.29592895507812;-76.06346130371094;-7.421405792236328;-1.8956451416015625;-14.907089233398438;-1.6730194091796875
1445425949832;211.79202270507812;-77.25642395019531;-7.148274898529053;-1.346466064453125;-14.848251342773438;-1.6533966064453125
1445425949866;210.538330078125;-81.26455688476562;-6.428874969482422;1.850494384765625;-10.925582885742188;-1.8495330810546875
1445425949898;210.08892822265625;-85.00945281982422;-6.603438854217529;3.9098968505859375;-13.024200439453125;1.4062652587890625
1445425949931;210.23324584960938;-94.34302520751953;-7.0510687828063965;4.3610076904296875;-14.75018310546875;0.8374786376953125
1445425949964;208.304931640625;-101.3719482421875;-7.509200572967529;2.2231597900390625;-14.828628540039062;-1.6337890625
1445425949999;205.976318359375;-103.93083953857422;-7.732112884521484;-0.091217041015625;-14.35791015625;-0.810028076171875
1445425950030;200.0325927734375;-109.91149139404297;-7.840419292449951;-0.97381591796875;-9.650726318359375;0.58251953125
1445425950063;194.42742919921875;-115.46117401123047;-8.947403907775879;0.8894500732421875;-4.904296875;1.0924530029296875
1445425950096;191.84344482421875;-117.427490234375;-9.864559173583984;1.24249267578125;-3.6098175048828125;1.072845458984375
1445425950130;187.65606689453125;-119.50972747802734;-11.573124885559082;1.222869873046875;-4.2570648193359375;1.072845458984375
1445425950162;184.2921142578125;-119.29320526123047;-12.388625144958496;1.2621002197265625;-4.6689453125;0.327545166015625
1445425950196;183.188232421875;-118.54289245605469;-12.186965942382812;1.2032623291015625;-4.982757568359375;-0.3981475830078125
1445425950228;182.037109375;-115.85746765136719;-10.82889461517334;3.0861358642578125;-7.1402130126953125;-2.908660888671875
1445425950261;182.0015869140625;-114.12791442871094;-10.046974182128906;4.9101715087890625;-11.749343872070312;-7.2824249267578125
1445425950294;181.18548583984375;-111.03418731689453;-10.221033096313477;5.06707763671875;-14.12255859375;-10.910888671875
1445425950327;178.06942749023438;-111.63445281982422;-11.590296745300293;1.8308868408203125;-12.259292602539062;-8.576904296875
1445425950361;176.63490295410156;-112.96563720703125;-11.815990447998047;1.5955352783203125;-8.081649780273438;-7.243194580078125
1445425950393;173.51792907714844;-114.32929992675781;-11.953058242797852;4.1060333251953125;-8.925033569335938;-4.9288177490234375
1445425950426;173.59666442871094;-115.01209259033203;-11.238685607910156;3.615692138671875;-14.4755859375;-2.908660888671875
1445425950460;174.55332946777344;-115.80158233642578;-10.674294471740723;6.6949920654296875;-5.3161773681640625;-0.3197021484375
1445425950492;176.1124267578125;-115.83399963378906;-9.867108345031738;-1.287628173828125;-9.552658081054688;4.9954986572265625
1445425950525;184.7642822265625;-112.94783020019531;-5.839146614074707;-0.522705078125;-11.376693725585938;-0.1039581298828125
1445425950557;187.9503173828125;-110.92127227783203;-4.554335117340088;-0.85614013671875;-11.023651123046875;-0.0843353271484375
1445425950591;191.52813720703125;-107.33715057373047;-3.8319129943847656;0.2029876708984375;-10.807907104492188;0.24908447265625
1445425950624;193.94659423828125;-105.05220031738281;-3.706258773803711;0.869842529296875;-10.749069213867188;0.1706390380859375
1445425950660;196.7412109375;-99.70645904541016;-3.2008585929870605;0.4383392333984375;-9.886077880859375;-0.4177703857421875
1445425950693;194.97662353515625;-94.7116470336914;-2.9006290435791016;0.8894500732421875;-8.4935302734375;-1.496490478515625
1445425950724;194.462890625;-92.4680404663086;-2.888699769973755;0.536407470703125;-8.238555908203125;-1.143463134765625
1445425950758;197.605712890625;-88.21560668945312;-3.213359832763672;0.7913818359375;-8.513153076171875;0.4844512939453125
1445425950789;199.610595703125;-84.34441375732422;-4.415937423706055;0.8306121826171875;-10.337188720703125;-1.692626953125
1445425950824;198.660888671875;-82.69236755371094;-4.816816806793213;-0.1304473876953125;-10.5921630859375;-3.34014892578125
1445425950855;197.68707275390625;-80.45710754394531;-5.140308856964111;-2.5821075439453125;-10.5333251953125;-0.574676513671875
1445425950888;201.4534912109375;-79.15667724609375;-5.642772674560547;1.2621002197265625;-10.964813232421875;2.2888641357421875
1445425950921;200.7474365234375;-78.50801849365234;-5.578705310821533;2.67425537109375;-11.690505981445312;1.0336151123046875
1445425950953;201.7811279296875;-77.7266845703125;-6.244654178619385;0.9090576171875;-12.41619873046875;-0.3785400390625
1445425950987;203.64459228515625;-77.53799438476562;-6.62825345993042;0.0853118896484375;-12.435806274414062;-2.08489990234375
1445425951021;204.55615234375;-77.32868957519531;-7.038017749786377;-1.2680206298828125;-13.416473388671875;-2.3006439208984375
1445425951053;203.83984375;-79.07219696044922;-6.572538375854492;-1.4837646484375;-14.279464721679688;-2.967498779296875
1445425951086;203.1566162109375;-81.09786224365234;-6.2478227615356445;0.5756378173828125;-12.121994018554688;-2.7321319580078125
1445425951119;202.090087890625;-88.3995590209961;-6.378460884094238;3.0861358642578125;-10.9451904296875;0.7198028564453125
1445425951154;201.77099609375;-92.61735534667969;-6.684410095214844;3.75299072265625;-13.004592895507812;1.7789306640625
1445425951185;200.41326904296875;-99.91221618652344;-7.318970203399658;3.1842041015625;-15.475875854492188;-1.202301025390625
1445425951218;196.2935791015625;-104.96881866455078;-7.538660526275635;0.3795013427734375;-14.338302612304688;-1.4768829345703125
1445425951250;193.71282958984375;-107.7416000366211;-7.263716697692871;-0.01275634765625;-10.31756591796875;0.4844512939453125
1445425951286;187.19207763671875;-112.74869537353516;-7.251956939697266;0.34027099609375;-7.86590576171875;0.7001953125
1445425951317;181.7559814453125;-116.57493591308594;-8.278846740722656;1.105194091796875;-4.1197662353515625;1.1512908935546875
1445425951350;179.43251037597656;-117.72950744628906;-9.048428535461426;0.8502197265625;-3.5509796142578125;1.4847259521484375
1445425951383;175.30117797851562;-118.33961486816406;-10.42457389831543;0.9678955078125;-4.080535888671875;1.32781982421875
1445425951416;172.3492431640625;-117.08067321777344;-10.546669006347656;1.36016845703125;-4.8846893310546875;-0.005889892578125
1445425951452;171.57699584960938;-115.93525695800781;-9.990477561950684;3.63531494140625;-7.80706787109375;-2.5948486328125
1445425951482;171.5609130859375;-113.15484619140625;-8.34363842010498;4.498291015625;-10.19989013671875;-3.830474853515625
1445425951515;171.41409301757812;-111.02144622802734;-8.0260591506958;1.8701171875;-14.102935791015625;-10.45977783203125
1445425951548;170.35870361328125;-111.13762664794922;-8.372023582458496;1.046356201171875;-12.65155029296875;-8.988784790039062
1445425951582;167.67384338378906;-113.58109283447266;-8.89664077758789;0.4579620361328125;-7.3363494873046875;-6.3213653564453125
1445425951614;164.04469299316406;-114.95751953125;-9.142799377441406;4.0471954345703125;-12.906524658203125;-4.222747802734375
1445425951647;163.44374084472656;-114.92387390136719;-8.763938903808594;3.7725982666015625;-15.201278686523438;-5.8310394287109375
1445425951681;164.2377166748047;-115.35875701904297;-8.249300003051758;5.322052001953125;-4.845458984375;3.857940673828125
1445425951713;166.12962341308594;-116.11975860595703;-7.170406818389893;0.2029876708984375;-8.179718017578125;2.0731201171875
1445425951746;168.75904846191406;-115.00511932373047;-5.950771331787109;-0.718841552734375;-10.984420776367188;3.975616455078125
1445425951779;176.62115478515625;-111.78160858154297;-2.7967872619628906;-1.0522613525390625;-10.925582885742188;-0.5354461669921875
1445425951812;177.73875427246094;-110.0614013671875;-2.6574902534484863;-0.7580718994140625;-10.435256958007812;0.0921783447265625
1445425951845;180.95831298828125;-106.02469635009766;-2.511768341064453;0.3206634521484375;-10.7686767578125;-0.0843353271484375
1445425951878;183.65625;-100.6490249633789;-2.3505022525787354;0.2029876708984375;-10.415634155273438;-0.6727447509765625
1445425951911;182.781494140625;-98.23662567138672;-2.266129493713379;0.28143310546875;-9.533035278320312;-1.00616455078125
1445425951944;180.7950439453125;-94.02458953857422;-2.017211675643921;1.164031982421875;-8.4346923828125;-1.888763427734375
1445425951977;182.681884765625;-90.19685363769531;-2.173159599304199;1.222869873046875;-8.925033569335938;-0.6531219482421875
1445425952010;183.94940185546875;-88.45930480957031;-2.6161861419677734;0.8306121826171875;-9.278060913085938;0.24908447265625
1445425952043;186.03753662109375;-84.96045684814453;-3.801413059234619;-0.208892822265625;-9.238845825195312;0.562896728515625
1445425952075;185.4873046875;-81.18011474609375;-4.541066646575928;-0.6207733154296875;-10.337188720703125;-2.20257568359375
1445425952108;185.175537109375;-79.79998779296875;-4.7250494956970215;-0.9345855712890625;-11.023651123046875;-1.2807464599609375
1445425952143;187.365478515625;-78.49552154541016;-5.154818534851074;0.8109893798828125;-12.200454711914062;1.3474273681640625
1445425952175;187.32415771484375;-78.06753540039062;-5.183633327484131;0.536407470703125;-12.847686767578125;-1.0453948974609375
1445425952209;188.4375;-77.72032165527344;-5.733684539794922;-0.4442596435546875;-13.67144775390625;-1.0257720947265625
1445425952241;189.4161376953125;-78.1860122680664;-5.6394219398498535;-1.09149169921875;-14.710952758789062;-1.1042327880859375
1445425952274;188.77166748046875;-78.98619079589844;-5.157918453216553;0.242218017578125;-12.41619873046875;-2.398712158203125
1445425952310;187.3355712890625;-82.67689514160156;-4.683876991271973;1.615142822265625;-10.807907104492188;-2.08489990234375
1445425952344;186.48956298828125;-90.44723510742188;-5.164082050323486;4.32177734375;-12.004318237304688;1.56317138671875
1445425952375;186.42083740234375;-95.08966064453125;-5.394351959228516;4.635589599609375;-14.769790649414062;0.6609649658203125
1445425952407;185.61505126953125;-102.49697875976562;-5.892987251281738;3.3999481201171875;-14.730560302734375;-0.6138916015625
1445425952439;179.61752319335938;-107.5139389038086;-6.7189621925354;-1.0130462646484375;-12.906524658203125;-0.6531219482421875
1445425952472;176.25839233398438;-110.42278289794922;-7.081051826477051;-1.0718841552734375;-9.846847534179688;0.327545166015625
1445425952505;170.87770080566406;-115.45916748046875;-8.609234809875488;0.928680419921875;-5.0219879150390625;1.700469970703125
1445425952539;166.6259002685547;-118.6158676147461;-10.833165168762207;1.41900634765625;-3.3744659423828125;1.4847259521484375
1445425952571;165.17845153808594;-119.29956817626953;-11.584283828735352;1.7132110595703125;-4.1786041259765625;1.249359130859375
1445425952604;163.29368591308594;-119.07322692871094;-11.688627243041992;1.850494384765625;-5.492706298828125;-0.6531219482421875
1445425952637;162.81910705566406;-118.33663177490234;-10.98663330078125;2.32122802734375;-6.120330810546875;-1.829925537109375
1445425952671;162.98580932617188;-115.80194091796875;-8.552225112915039;3.81182861328125;-9.768402099609375;-4.8307647705078125
1445425952704;164.65145874023438;-112.91724395751953;-6.4627861976623535;4.145263671875;-11.749343872070312;-9.361434936523438
1445425952736;164.33453369140625;-112.26215362548828;-6.612741470336914;2.7134857177734375;-12.141616821289062;-9.636016845703125
1445425952769;162.09886169433594;-113.45613098144531;-7.701658248901367;1.556304931640625;-10.003753662109375;-6.87054443359375
1445425952802;159.6342010498047;-115.0414810180664;-8.550146102905273;4.6748199462890625;-11.004043579101562;-4.5561676025390625
1445425952835;158.3442840576172;-115.44611358642578;-8.905672073364258;6.1065826416015625;-15.848526000976562;-5.6349029541015625
1445425952868;157.71824645996094;-116.00332641601562;-9.7986478805542;4.243316650390625;-6.473358154296875;1.44549560546875
1445425952901;160.29249572753906;-117.12540435791016;-7.9336838722229;3.8510589599609375;-7.179443359375;-1.4180450439453125
1445425952934;162.7399139404297;-115.97933959960938;-6.288414478302002;-0.6796112060546875;-11.553207397460938;3.2303009033203125
1445425952967;172.05055236816406;-111.97386932373047;-1.8376588821411133;-0.228515625;-10.866744995117188;0.4059906005859375
1445425952999;174.89486694335938;-109.49092864990234;-0.48698124289512634;-0.4638671875;-9.611495971679688;0.562896728515625
1445425953033;178.07675170898438;-104.94454956054688;0.5082366466522217;0.28143310546875;-9.90570068359375;0.1510162353515625
1445425953066;185.6322021484375;-99.28172302246094;1.2282166481018066;0.928680419921875;-11.023651123046875;0.07257080078125
1445425953099;187.16015625;-96.46161651611328;1.5053788423538208;0.34027099609375;-10.042984008789062;-0.2216339111328125
1445425953132;187.16058349609375;-92.28961944580078;1.9249370098114014;-0.34619140625;-8.728897094726562;-0.9865570068359375
1445425953165;187.752685546875;-90.34602355957031;2.144479274749756;0.242218017578125;-9.12115478515625;-0.2804718017578125
1445425953198;193.44970703125;-86.56637573242188;1.6709117889404297;0.3795013427734375;-9.788009643554688;-0.2020263671875
1445425953230;195.57073974609375;-83.93132781982422;0.630268394947052;-1.0522613525390625;-10.474472045898438;-1.7906951904296875
1445425953264;196.2652587890625;-82.06693267822266;0.6700090765953064;-2.5232696533203125;-9.395751953125;-0.7315826416015625
1445425953297;198.23919677734375;-80.94641876220703;0.5269120335578918;-0.5030975341796875;-9.160385131835938;0.504058837890625
1445425953330;198.83917236328125;-78.97516632080078;-0.5675458908081055;0.477569580078125;-10.239120483398438;0.0921783447265625
1445425953363;199.33135986328125;-78.26070404052734;-1.3578338623046875;-0.150054931640625;-11.90625;1.014007568359375
1445425953396;202.29400634765625;-77.1700210571289;-1.8423928022384644;1.1444244384765625;-12.161224365234375;0.1510162353515625
1445425953429;204.29150390625;-76.73729705810547;-2.2919952869415283;1.12481689453125;-13.2203369140625;-1.457275390625
1445425953462;205.1658935546875;-76.8358154296875;-2.58176589012146;-0.5030975341796875;-13.1026611328125;-1.5945587158203125
1445425953495;205.87567138671875;-78.24811553955078;-2.373196840286255;-2.2094573974609375;-13.573379516601562;-2.5359954833984375
1445425953529;204.9266357421875;-82.60070037841797;-2.170470952987671;0.6737060546875;-11.729736328125;-2.4771575927734375
1445425953562;204.141357421875;-86.66461944580078;-2.5802106857299805;1.8897247314453125;-11.768951416015625;-0.005889892578125
1445425953596;203.595458984375;-96.03323364257812;-3.652672290802002;3.63531494140625;-14.828628540039062;0.4844512939453125
1445425953627;201.08123779296875;-102.94050598144531;-5.085732936859131;0.6933135986328125;-15.966201782226562;-0.3785400390625
1445425953660;198.86761474609375;-105.69747924804688;-5.673831462860107;-0.8757476806640625;-13.55377197265625;-0.0254974365234375
1445425953697;192.58056640625;-111.49882507324219;-6.437030792236328;-0.7580718994140625;-6.806793212890625;0.9159393310546875
1445425953725;189.667236328125;-114.39844512939453;-7.165318489074707;0.7913818359375;-2.21728515625;1.190521240234375
1445425953759;184.52044677734375;-118.49319458007812;-9.479731559753418;1.0071258544921875;-1.9819183349609375;1.44549560546875
1445425953792;180.69122314453125;-120.11453247070312;-11.165596961975098;1.53668212890625;-3.786346435546875;1.1709136962890625
1445425953824;179.26138305664062;-119.91129302978516;-11.335461616516113;2.0858612060546875;-4.3747406005859375;0.504058837890625
1445425953859;178.58152770996094;-118.19295501708984;-9.757423400878906;3.1057586669921875;-5.786895751953125;-2.2221832275390625
1445425953892;180.52960205078125;-114.93073272705078;-6.6328558921813965;4.753265380859375;-10.042984008789062;-5.3799285888671875
1445425953926;181.839599609375;-113.15968322753906;-5.53611421585083;4.6748199462890625;-12.690780639648438;-9.596786499023438
1445425953959;181.36993408203125;-111.36412811279297;-5.99724817276001;0.1245269775390625;-13.396865844726562;-10.871658325195312
1445425953990;178.07582092285156;-113.85757446289062;-7.042793273925781;-0.1892852783203125;-5.8653564453125;-7.0274505615234375
1445425954029;176.19686889648438;-114.61148834228516;-7.353116989135742;4.498291015625;-11.690505981445312;-4.4384918212890625
1445425954059;174.02871704101562;-114.06590270996094;-7.038511753082275;3.890289306640625;-18.868972778320312;-6.3998260498046875
1445425954089;174.35546875;-113.646240234375;-6.780064582824707;6.969573974609375;-5.9634246826171875;4.3874969482421875
1445425954122;174.6788787841797;-115.23565673828125;-6.840683460235596;6.3027191162109375;-2.1584320068359375;-1.437652587890625
1445425954155;178.49928283691406;-113.72567749023438;-4.904415130615234;-2.542877197265625;-11.357070922851562;6.0153961181640625
1445425954189;183.985107421875;-111.47901916503906;-2.5722434520721436;-2.05255126953125;-13.67144775390625;0.5236663818359375
1445425954221;189.0618896484375;-106.12178802490234;-0.9696969985961914;-2.091766357421875;-11.631668090820312;0.2883148193359375
1445425954255;190.69775390625;-101.30924224853516;-0.56880784034729;1.0267486572265625;-10.5921630859375;0.2686920166015625
1445425954287;191.53143310546875;-98.427734375;-0.24910205602645874;1.222869873046875;-10.337188720703125;-0.1039581298828125
1445425954321;189.96929931640625;-93.40856170654297;0.5137233734130859;1.2817230224609375;-8.120880126953125;-1.8691558837890625
1445425954353;190.17779541015625;-89.28739166259766;0.875842809677124;1.24249267578125;-7.669769287109375;-1.8691558837890625
1445425954386;192.56689453125;-87.45742797851562;0.6188497543334961;0.9482879638671875;-8.3170166015625;-0.5354461669921875
1445425954419;195.1898193359375;-84.27934265136719;-0.5524803400039673;0.3795013427734375;-10.042984008789062;-0.241241455078125
1445425954453;194.60723876953125;-82.97539520263672;-0.9468310475349426;-1.7583465576171875;-9.670333862304688;-1.75146484375
1445425954484;195.4541015625;-80.4059829711914;-1.36716890335083;-1.6602783203125;-9.748779296875;-1.00616455078125
1445425954519;197.3272705078125;-77.9228744506836;-2.02306866645813;-0.032379150390625;-11.180557250976562;0.445220947265625
1445425954551;197.322021484375;-76.95484161376953;-2.2986137866973877;-0.3657989501953125;-11.45513916015625;0.6021270751953125
1445425954584;199.65594482421875;-76.2563247680664;-2.607757091522217;1.7132110595703125;-12.396575927734375;0.2098541259765625
1445425954617;202.30426025390625;-76.3138198852539;-3.3759236335754395;1.438629150390625;-13.377243041992188;-1.4768829345703125
1445425954650;203.58306884765625;-76.77718353271484;-3.7888052463531494;-0.405029296875;-13.338027954101562;-1.437652587890625
1445425954683;204.499267578125;-78.9593505859375;-3.698718786239624;1.36016845703125;-13.749893188476562;-2.6732940673828125
1445425954715;203.4239501953125;-84.66324615478516;-4.220051288604736;3.7333831787109375;-12.553482055664062;1.5435638427734375
1445425954750;203.2025146484375;-89.42008972167969;-4.921660423278809;4.3610076904296875;-13.49493408203125;0.58251953125
1445425954782;203.37078857421875;-98.32838439941406;-6.073604583740234;2.870391845703125;-16.025039672851562;-2.3006439208984375
1445425954815;203.5517578125;-101.41268920898438;-6.644191741943359;-1.6798858642578125;-13.122268676757812;0.4256134033203125
1445425954848;201.1881103515625;-107.01748657226562;-6.763564586639404;-2.17022705078125;-9.925308227539062;0.621734619140625
1445425954899;191.98870849609375;-114.68988800048828;-8.202977180480957;0.9482879638671875;-2.3349609375;1.1512908935546875
1445425954914;191.98870849609375;-114.68988800048828;-8.202977180480957;1.2621002197265625;-1.962310791015625;1.1709136962890625
1445425954960;186.557861328125;-117.8748779296875;-9.88963508605957;1.6935882568359375;-4.021697998046875;0.621734619140625
1445425954990;185.5107421875;-117.83826446533203;-9.833552360534668;1.75244140625;-5.1200408935546875;0.2686920166015625
1445425955014;184.71942138671875;-117.25062561035156;-9.423842430114746;1.673980712890625;-5.5907745361328125;-0.241241455078125
1445425955053;184.1468505859375;-115.01959228515625;-7.322216033935547;3.1253662109375;-6.9636993408203125;-2.281036376953125
1445425955079;184.793701171875;-111.79588317871094;-4.912566184997559;3.8510589599609375;-13.004592895507812;-10.69512939453125
1445425955120;183.436279296875;-110.18260192871094;-5.147552490234375;0.22259521484375;-15.456253051757812;-10.381317138671875
1445425955152;181.8404541015625;-111.40340423583984;-5.873868942260742;0.242218017578125;-10.25872802734375;-9.518341064453125
1445425955178;176.31228637695312;-114.90380859375;-7.874918460845947;-0.228515625;-4.7670135498046875;-5.085723876953125
1445425955225;173.5171661376953;-114.96210479736328;-7.463551998138428;4.125640869140625;-14.80902099609375;-5.0072784423828125
1445425955259;174.80517578125;-115.35823059082031;-5.888216018676758;7.9306182861328125;-9.925308227539062;3.0341796875
1445425955290;175.2404022216797;-116.17031860351562;-6.349221706390381;8.205215454101562;-4.1393890380859375;1.308197021484375
1445425955310;175.46742248535156;-116.3105239868164;-6.876312732696533;2.164306640625;-5.9241943359375;-1.2807464599609375
1445425955344;182.491455078125;-113.3290023803711;-2.666133165359497;-2.935150146484375;-13.475311279296875;3.014556884765625
1445425955385;186.05731201171875;-107.82138061523438;-0.7781438827514648;-1.738739013671875;-11.435531616210938;-0.4373779296875
1445425955440;186.564697265625;-103.05013275146484;-0.755783200263977;1.0855865478515625;-9.650726318359375;0.386383056640625
1445425955464;188.41949462890625;-100.15400695800781;-0.6501356363296509;1.6935882568359375;-9.356521606445312;-0.2216339111328125
1445425955523;188.8175048828125;-90.30573272705078;0.8125241994857788;0.418731689453125;-8.160110473632812;-2.32025146484375
1445425955529;188.8175048828125;-90.30573272705078;0.8125241994857788;0.418731689453125;-8.160110473632812;-2.32025146484375
1445425955557;191.260498046875;-88.38618469238281;0.8097416162490845;0.9090576171875;-7.9835968017578125;-1.1042327880859375
1445425955591;195.29559326171875;-84.99027252197266;0.020508497953414917;0.7325439453125;-10.042984008789062;-0.123565673828125
1445425955624;194.84942626953125;-82.5527114868164;-0.5438504219055176;-1.9348602294921875;-10.19989013671875;-1.771087646484375
1445425955657;196.0120849609375;-81.38143920898438;-0.6190593838691711;-2.28790283203125;-9.572265625;-0.241241455078125
1445425955688;196.70867919921875;-78.94214630126953;-0.7639947533607483;0.0068511962890625;-10.611770629882812;0.504058837890625
1445425955724;196.92681884765625;-77.17559051513672;-1.3622994422912598;-0.9934234619140625;-12.259292602539062;1.1120758056640625
1445425955755;198.280029296875;-76.64108276367188;-1.6058204174041748;2.0858612060546875;-12.102386474609375;-0.4766082763671875
1445425955789;200.82489013671875;-76.30848693847656;-2.0140867233276367;0.869842529296875;-11.45513916015625;-1.9083709716796875
1445425955821;202.2568359375;-76.44557189941406;-2.4931514263153076;-0.9934234619140625;-12.102386474609375;-1.9083709716796875
1445425955854;204.19085693359375;-77.68817901611328;-2.679342031478882;-1.464141845703125;-13.2791748046875;-2.634063720703125
1445425955887;204.75091552734375;-81.17990112304688;-2.1741445064544678;0.595245361328125;-12.906524658203125;-0.7315826416015625
1445425955920;204.42926025390625;-84.10832214355469;-2.214024543762207;2.1446990966796875;-12.004318237304688;1.4258880615234375
1445425955953;203.33355712890625;-92.60127258300781;-3.3788223266601562;4.439453125;-14.92669677734375;0.1510162353515625
1445425955986;200.26202392578125;-99.95763397216797;-5.149812698364258;2.5369720458984375;-16.025039672851562;-1.947601318359375
1445425956019;199.1436767578125;-102.75746154785156;-6.331926345825195;0.5560302734375;-14.828628540039062;-0.9080963134765625
1445425956051;195.7950439453125;-108.32617950439453;-7.447331428527832;0.2618255615234375;-10.454864501953125;0.504058837890625
1445425956085;192.51922607421875;-110.49517822265625;-7.980043888092041;0.10491943359375;-4.649322509765625;1.072845458984375
1445425956118;187.48785400390625;-114.66707611083984;-9.54385757446289;0.477569580078125;-2.648773193359375;1.523956298828125
1445425956150;184.3416748046875;-116.36241149902344;-10.75175952911377;0.7129364013671875;-2.0603790283203125;2.1123504638671875
1445425956184;182.896728515625;-116.21234893798828;-11.056585311889648;1.36016845703125;-3.02142333984375;1.7397003173828125
1445425956216;180.8648681640625;-114.78065490722656;-10.72846794128418;2.3408355712890625;-5.1396636962890625;-0.0254974365234375
1445425956250;181.9798583984375;-112.25847625732422;-8.544337272644043;4.6748199462890625;-9.376129150390625;-3.830474853515625
1445425956283;183.963623046875;-110.7135009765625;-7.2022857666015625;5.714324951171875;-13.122268676757812;-7.4393310546875
1445425956316;186.59033203125;-109.29052734375;-6.305530071258545;2.2623748779296875;-14.416748046875;-11.754257202148438
1445425956349;185.2322998046875;-112.01773834228516;-6.8913373947143555;-0.9345855712890625;-8.3170166015625;-8.223861694335938
1445425956382;183.97308349609375;-113.33883666992188;-7.5030622482299805;-1.09149169921875;-5.5711517333984375;-5.85064697265625
1445425956415;180.91876220703125;-114.35565948486328;-8.419342994689941;2.242767333984375;-7.257904052734375;-2.8694305419921875
1445425956448;181.84454345703125;-114.01374053955078;-6.781294345855713;5.12591552734375;-18.908203125;-6.7136383056640625
1445425956481;183.03521728515625;-114.40202331542969;-6.3661417961120605;7.0480194091796875;-11.357070922851562;0.2883148193359375
1445425956513;184.82281494140625;-115.79277038574219;-6.54573392868042;4.0471954345703125;-4.531646728515625;-1.6730194091796875
1445425956547;187.3216552734375;-115.01006317138672;-5.416474342346191;-2.3859710693359375;-13.2791748046875;4.3286590576171875
1445425956580;196.33245849609375;-110.63786315917969;-1.4113081693649292;-1.6602783203125;-13.985260009765625;-0.7904205322265625
1445425956613;199.3878173828125;-106.17428588867188;-0.48846009373664856;-0.97381591796875;-10.474472045898438;-0.1627960205078125
1445425956646;201.754638671875;-103.7262954711914;-0.20337273180484772;0.5756378173828125;-10.396026611328125;-0.064727783203125
1445425956680;206.94384765625;-98.37736511230469;-0.2245379388332367;0.301055908203125;-10.866744995117188;-0.4569854736328125
1445425956712;206.666259765625;-93.76770782470703;0.231133371591568;-0.542327880859375;-8.395462036132812;-1.3395843505859375
1445425956748;206.264892578125;-91.72330474853516;0.4413788616657257;0.2029876708984375;-8.120880126953125;-1.5945587158203125
1445425956778;210.0556640625;-87.99565124511719;-0.09643804281949997;0.4579620361328125;-8.76812744140625;-0.8492584228515625
1445425956811;211.86553955078125;-85.08257293701172;-1.4425125122070312;-1.09149169921875;-10.552932739257812;-2.7517547607421875
1445425956844;210.8829345703125;-83.91410827636719;-1.774074912071228;-2.4644317626953125;-10.02337646484375;-2.9282684326171875
1445425956876;212.1951904296875;-81.82206726074219;-2.0875840187072754;-1.3856964111328125;-10.08221435546875;0.3471527099609375
1445425956909;212.87576293945312;-80.84270477294922;-2.4290151596069336;-0.718841552734375;-10.984420776367188;0.8571014404296875
1445425956942;211.72528076171875;-79.75341033935547;-2.763460397720337;0.0068511962890625;-11.357070922851562;1.1120758056640625
1445425956976;213.39816284179688;-79.31755065917969;-2.7924201488494873;2.635040283203125;-11.612045288085938;-0.9080963134765625
1445425957011;214.85067749023438;-79.03972625732422;-3.6731340885162354;0.0853118896484375;-11.474761962890625;-1.5945587158203125
1445425957041;215.3372802734375;-79.16038513183594;-4.179558753967285;-1.7583465576171875;-11.78857421875;-1.202301025390625
1445425957074;215.11334228515625;-80.49039459228516;-3.7617087364196777;-2.22906494140625;-13.49493408203125;-2.8105926513671875
1445425957108;214.3304443359375;-81.7692642211914;-3.1645119190216064;-0.660003662109375;-13.239959716796875;-3.2420806884765625
1445425957141;212.39068603515625;-86.75511932373047;-2.784846305847168;2.419281005859375;-11.78857421875;0.2294769287109375
1445425957174;211.53152465820312;-94.9799575805664;-3.7926459312438965;3.7725982666015625;-14.573654174804688;0.2294769287109375
1445425957210;210.9068603515625;-98.69149017333984;-4.387526512145996;1.6935882568359375;-15.515090942382812;-1.3984375
1445425957239;207.78460693359375;-104.04602813720703;-5.642319202423096;0.0853118896484375;-15.181671142578125;-0.692352294921875
1445425957272;201.47607421875;-109.03401184082031;-6.10746431350708;-0.8757476806640625;-10.14105224609375;0.1706390380859375
1445425957306;197.88238525390625;-111.5804214477539;-6.4609198570251465;-0.091217041015625;-7.257904052734375;0.621734619140625
1445425957339;191.99810791015625;-115.53780364990234;-8.18677806854248;1.18365478515625;-2.90374755859375;1.1709136962890625
1445425957374;188.69921875;-117.11847686767578;-9.664314270019531;1.556304931640625;-3.099884033203125;1.44549560546875
1445425957405;187.74609375;-117.04473114013672;-9.94445514678955;1.8308868408203125;-4.1197662353515625;1.2297515869140625
1445425957439;186.55499267578125;-115.7356948852539;-9.458407402038574;1.98779296875;-5.3358001708984375;-0.0451202392578125
1445425957472;186.5679931640625;-114.49923706054688;-8.544513702392578;2.419281005859375;-5.9438018798828125;-1.00616455078125
1445425957504;188.752197265625;-110.94171142578125;-5.969034671783447;4.459075927734375;-10.239120483398438;-4.6150054931640625
1445425957537;191.14794921875;-108.8289566040039;-5.546361446380615;2.10546875;-17.064544677734375;-12.578018188476562
1445425957569;190.939453125;-110.10724639892578;-6.091829776763916;-0.0519866943359375;-13.749893188476562;-11.048171997070312
1445425957603;187.72735595703125;-113.82227325439453;-7.496191024780273;-1.20916748046875;-5.6496124267578125;-6.360595703125
1445425957636;184.3939208984375;-113.89173889160156;-8.481225967407227;5.027862548828125;-13.259567260742188;-4.105072021484375
1445425957669;184.45220947265625;-113.89802551269531;-8.69722843170166;5.890838623046875;-17.790237426757812;-5.3406982421875
1445425957702;184.55120849609375;-115.75041198730469;-9.08065128326416;5.6947021484375;-5.1396636962890625;6.23114013671875
1445425957735;185.4671630859375;-116.05552673339844;-8.456326484680176;2.43890380859375;-7.6501617431640625;2.6811370849609375
1445425957768;192.0914306640625;-113.1081314086914;-5.464413642883301;-1.4249267578125;-11.78857421875;5.8977203369140625
1445425957801;200.84649658203125;-108.44036865234375;-2.080061912536621;-0.954193115234375;-12.906524658203125;0.445220947265625
1445425957834;202.38330078125;-106.18656921386719;-1.3037898540496826;-0.1892852783203125;-10.376419067382812;-0.2608642578125
1445425957866;208.22576904296875;-101.33562469482422;0.09506772458553314;0.22259521484375;-10.31756591796875;-0.2216339111328125
1445425957900;214.4461669921875;-95.89387512207031;1.0510098934173584;-0.6207733154296875;-9.297683715820312;-1.084625244140625
1445425957933;215.31793212890625;-93.64405822753906;1.3910225629806519;-0.3657989501953125;-8.297409057617188;-1.3395843505859375
1445425957966;217.218017578125;-89.81574249267578;1.7375690937042236;0.16375732421875;-8.591598510742188;-1.18267822265625
1445425957999;219.62896728515625;-88.07305145263672;1.516709804534912;0.359893798828125;-9.12115478515625;-0.2608642578125
1445425958032;224.2906494140625;-85.46248626708984;0.3609779179096222;-0.267730712890625;-9.788009643554688;-0.6138916015625
1445425958065;224.79833984375;-83.05773162841797;-0.6720684766769409;-2.7782440185546875;-9.944915771484375;-1.5945587158203125
1445425958098;225.51339721679688;-81.70059204101562;-1.0342425107955933;-1.7779541015625;-10.552932739257812;-0.3393096923828125
1445425958130;227.1611328125;-79.27970123291016;-2.1243817806243896;-1.2483978271484375;-11.062881469726562;-0.2020263671875
1445425958164;227.79360961914062;-78.20755004882812;-3.196338176727295;-0.4246368408203125;-12.121994018554688;0.24908447265625
1445425958196;228.9593505859375;-78.02021789550781;-3.534170627593994;0.418731689453125;-12.337738037109375;-0.5550537109375
1445425958231;231.0185546875;-78.08805847167969;-4.153040409088135;0.536407470703125;-12.71038818359375;-1.6730194091796875
1445425958263;232.0133056640625;-79.34600067138672;-4.228084564208984;-1.6210479736328125;-12.631942749023438;-2.6536865234375
1445425958300;231.81976318359375;-80.82650756835938;-3.8019988536834717;0.7129364013671875;-12.180831909179688;-2.908660888671875
1445425958328;231.10379028320312;-86.48257446289062;-3.123406171798706;2.49774169921875;-12.906524658203125;-1.084625244140625
1445425958361;230.77777099609375;-95.09718322753906;-3.4213438034057617;5.00823974609375;-16.083877563476562;1.2885894775390625
1445425958398;231.44183349609375;-99.21609497070312;-3.7835168838500977;4.184478759765625;-15.828903198242188;-0.0843353271484375
1445425958428;229.39263916015625;-105.1375961303711;-5.000856399536133;0.359893798828125;-14.98553466796875;-1.75146484375
1445425958461;224.30010986328125;-110.90830993652344;-5.912919998168945;-1.3072357177734375;-10.376419067382812;0.2686920166015625
1445425958500;221.3116455078125;-113.79615020751953;-6.387607097625732;-0.7972869873046875;-7.9835968017578125;1.2297515869140625
1445425958526;214.899658203125;-117.94004821777344;-8.442584991455078;1.12481689453125;-3.4725341796875;1.6024017333984375
1445425958560;212.39996337890625;-119.30770874023438;-9.564835548400879;1.850494384765625;-2.6291656494140625;1.582794189453125
1445425958593;209.60238647460938;-120.48834228515625;-10.521612167358398;2.6546478271484375;-4.15899658203125;0.876708984375
1445425958625;208.744140625;-119.35107421875;-9.71174430847168;2.5761871337890625;-5.35540771484375;0.13140869140625
1445425958659;209.18807983398438;-118.22880554199219;-8.635038375854492;2.5369720458984375;-5.9045867919921875;-0.9669342041015625
1445425958695;212.2034912109375;-114.50098419189453;-5.596688270568848;2.988067626953125;-8.689666748046875;-2.7125244140625
1445425958725;215.17660522460938;-110.60123443603516;-3.9181501865386963;3.3999481201171875;-12.671173095703125;-8.027725219726562
1445425958758;214.97430419921875;-110.02323913574219;-4.373563289642334;1.7132110595703125;-13.749893188476562;-11.244308471679688
1445425958794;214.20367431640625;-111.90464782714844;-5.27301025390625;-1.169952392578125;-10.847137451171875;-8.812255859375
1445425958824;212.19647216796875;-113.5215072631836;-6.235602855682373;-0.6207733154296875;-5.8849639892578125;-4.026611328125
1445425958857;210.87051391601562;-113.53755950927734;-6.641604900360107;2.046630859375;-7.5128631591796875;-2.37908935546875
1445425958891;211.6475830078125;-112.54002380371094;-6.529067516326904;6.400787353515625;-21.614837646484375;-5.477996826171875
1445425958923;212.60406494140625;-112.98646545410156;-6.663183689117432;4.6748199462890625;-6.4537506103515625;3.95599365234375
1445425958956;214.74481201171875;-114.66121673583984;-5.97728967666626;2.2819976806640625;-4.27667236328125;1.44549560546875
1445425958989;221.95025634765625;-111.49974822998047;-3.0042996406555176;-2.660552978515625;-13.083053588867188;3.8187103271484375
1445425959021;227.508544921875;-109.13436889648438;-1.2705878019332886;-1.7779541015625;-13.651840209960938;0.2686920166015625
1445425959055;232.06231689453125;-104.00718688964844;0.28293320536613464;0.2029876708984375;-10.631378173828125;-0.0254974365234375
1445425959088;235.79791259765625;-98.93810272216797;1.5727648735046387;0.7913818359375;-9.513427734375;0.24908447265625
1445425959121;238.44338989257812;-96.12434387207031;2.038127899169922;0.1245269775390625;-8.983871459960938;0.6609649658203125
1445425959154;241.3477783203125;-91.33665466308594;2.672100067138672;0.6148681640625;-8.748504638671875;-0.515838623046875
1445425959187;245.23934936523438;-87.90424346923828;2.4533579349517822;1.0855865478515625;-11.533599853515625;-2.8890380859375
1445425959219;246.59884643554688;-87.34825897216797;2.130401849746704;-0.1696624755859375;-11.21978759765625;-2.7125244140625
1445425959253;249.04849243164062;-86.77518463134766;1.9027129411697388;-2.621337890625;-9.278060913085938;1.8377685546875
1445425959285;252.48785400390625;-86.11245727539062;1.7534022331237793;-1.346466064453125;-9.199615478515625;3.1714630126953125
1445425959319;253.4237060546875;-84.11266326904297;1.2347153425216675;0.9678955078125;-9.533035278320312;-0.0843353271484375
1445425959352;254.68215942382812;-82.12733459472656;0.15959441661834717;-0.522705078125;-10.494094848632812;-0.1431732177734375
1445425959385;256.0037841796875;-81.23165893554688;-0.43000030517578125;-0.836517333984375;-10.670608520507812;-0.005889892578125
1445425959418;258.4666748046875;-80.0576171875;-1.094319224357605;-0.9934234619140625;-11.200164794921875;0.07257080078125
1445425959451;261.8484802246094;-80.04908752441406;-1.3527148962020874;0.7913818359375;-11.592437744140625;-1.4180450439453125
1445425959484;263.1329345703125;-80.2196273803711;-1.6549047231674194;0.8306121826171875;-11.965087890625;-1.8691558837890625
1445425959517;264.6563720703125;-81.31683349609375;-2.311230421066284;-1.111114501953125;-13.357635498046875;-1.7906951904296875
1445425959550;264.58477783203125;-84.3428726196289;-2.0144155025482178;-1.6602783203125;-13.396865844726562;-2.5359954833984375
1445425959582;263.9808349609375;-86.78163146972656;-1.9154820442199707;0.7717742919921875;-12.828079223632812;-1.692626953125
1445425959617;263.73974609375;-95.1370620727539;-2.6181700229644775;6.714599609375;-13.710678100585938;0.6609649658203125
