sep=;
timestamp;gyro-alpha;gyro-beta;gyro-gamma;accel-x;accel-y;accel-z
1445425993818;326.6772766113281;-75.11372375488281;49.38190841674805;-5.81829833984375;-10.6510009765625;-1.2219085693359375
1445425993840;327.0423583984375;-75.72764587402344;49.662513732910156;-4.818023681640625;-10.160659790039062;-1.947601318359375
1445425993874;327.52813720703125;-77.42860412597656;50.64021301269531;-3.54315185546875;-14.416748046875;0.4059906005859375
1445425993906;326.71405029296875;-77.42436218261719;48.57389831542969;-11.663055419921875;-3.8255767822265625;-0.4766082763671875
1445425993938;325.9307861328125;-68.94671630859375;44.31675720214844;-12.25146484375;-1.88385009765625;1.072845458984375
1445425993971;323.613037109375;-67.63658905029297;42.149696350097656;-8.191513061523438;-2.7272186279296875;1.014007568359375
1445425994004;321.96173095703125;-67.9761962890625;41.20452117919922;-7.760009765625;-4.5708770751953125;-0.4569854736328125
1445425994038;322.1192932128906;-66.76741027832031;40.94748306274414;-7.720794677734375;-5.9634246826171875;-0.4962158203125
1445425994072;323.7821044921875;-66.48526763916016;41.001922607421875;-3.60198974609375;-8.415084838867188;2.6026763916015625
1445425994104;322.15875244140625;-70.54388427734375;34.785369873046875;-4.56304931640625;-7.2186737060546875;0.7001953125
1445425994136;320.73748779296875;-73.43785858154297;24.98939323425293;-2.5821075439453125;-4.15899658203125;-0.4569854736328125
1445425994169;318.33843994140625;-75.96104431152344;21.41220474243164;-2.28790283203125;-5.218109130859375;0.5432891845703125
1445425994202;312.2548828125;-80.18659210205078;16.243770599365234;-0.836517333984375;-4.0020904541015625;-1.6141815185546875
1445425994235;306.88037109375;-78.81806945800781;15.238338470458984;-1.5818328857421875;-6.5910491943359375;2.3477020263671875
1445425994269;302.94482421875;-78.8744125366211;13.518882751464844;-1.6210479736328125;-28.852142333984375;-9.047622680664062
1445425994302;289.34661865234375;-81.7503890991211;5.044703960418701;-1.7779541015625;-34.30464172363281;-5.8310394287109375
1445425994335;286.3903503417969;-80.44152069091797;-2.025846481323242;-0.0716094970703125;-17.515655517578125;-2.4771575927734375
1445425994367;286.1296691894531;-81.48296356201172;-3.1744191646575928;3.92950439453125;-11.121719360351562;-1.12384033203125
1445425994400;285.83544921875;-86.19410705566406;-3.225111722946167;4.5571441650390625;-9.356521606445312;-1.5945587158203125
1445425994433;285.2152099609375;-93.24031066894531;-3.1375584602355957;0.8502197265625;-12.180831909179688;0.8374786376953125
1445425994466;284.99462890625;-96.31045532226562;-2.6121935844421387;1.2817230224609375;-11.984695434570312;-0.0254974365234375
1445425994499;282.27288818359375;-100.3519058227539;-0.7142257690429688;1.438629150390625;-11.239395141601562;-0.633514404296875
1445425994533;280.18084716796875;-102.94603729248047;0.114241823554039;2.10546875;-9.513427734375;-1.5553436279296875
1445425994565;276.9986572265625;-108.58810424804688;0.7864902019500732;2.1446990966796875;-8.94464111328125;-1.496490478515625
1445425994599;274.2194519042969;-113.0224609375;0.42706498503685;2.0270233154296875;-7.80706787109375;-1.8495330810546875
1445425994631;272.7380676269531;-115.04570770263672;-0.26832497119903564;1.811279296875;-7.493255615234375;-1.712249755859375
1445425994667;270.13934326171875;-117.84890747070312;-1.7160872220993042;2.164306640625;-6.5322113037109375;-1.2219085693359375
1445425994697;269.1841125488281;-118.5990219116211;-2.4136624336242676;3.2234344482421875;-6.3949127197265625;-1.1042327880859375
1445425994730;267.71942138671875;-118.82536315917969;-3.8771629333496094;2.988067626953125;-5.8065185546875;-1.6533966064453125
1445425994764;267.1343994140625;-117.7933578491211;-5.041834831237793;3.1449737548828125;-6.0418701171875;-2.1045074462890625
1445425994796;267.73956298828125;-115.89778900146484;-5.795523166656494;3.63531494140625;-7.5128631591796875;-3.477447509765625
1445425994830;268.1123046875;-114.88069152832031;-6.15561580657959;3.0861358642578125;-9.493820190429688;-6.223297119140625
1445425994862;268.2895812988281;-113.31043243408203;-6.512393474578857;1.556304931640625;-14.671722412109375;-10.1263427734375
1445425994897;268.11383056640625;-113.35015869140625;-6.275966167449951;1.850494384765625;-6.7871856689453125;-5.85064697265625
1445425994934;264.85052490234375;-114.12358856201172;-6.845966815948486;4.71405029296875;-9.140777587890625;0.7001953125
1445425994964;267.44647216796875;-112.628662109375;-5.36948299407959;6.7342071533203125;-13.298797607421875;0.386383056640625
1445425994995;270.5848083496094;-110.15287017822266;-4.442577362060547;6.4792327880859375;-12.9849853515625;-5.0072784423828125
1445425995027;271.39471435546875;-106.11746978759766;-4.965593338012695;3.9687347412109375;-8.238555908203125;-1.437652587890625
1445425995059;275.2746276855469;-105.4173355102539;-5.137638568878174;1.2621002197265625;-5.7476806640625;3.83831787109375
1445425995095;278.5721740722656;-103.97489929199219;-5.1479315757751465;0.6933135986328125;-8.101272583007812;2.6811370849609375
1445425995126;282.8919982910156;-100.02333068847656;-5.040520668029785;-0.777679443359375;-12.886917114257812;-1.496490478515625
1445425995159;287.23126220703125;-97.08316802978516;-3.8646228313446045;1.98779296875;-10.160659790039062;0.445220947265625
1445425995194;289.41595458984375;-95.52368927001953;-3.703458309173584;3.380340576171875;-8.866195678710938;0.2294769287109375
1445425995226;290.69384765625;-93.10245513916016;-3.705965042114258;2.811553955078125;-9.042709350585938;-0.82965087890625
1445425995258;292.76849365234375;-91.0757827758789;-3.28711199760437;2.0074005126953125;-9.160385131835938;0.13140869140625
1445425995293;294.13775634765625;-89.82486724853516;-3.2803730964660645;1.98779296875;-9.3369140625;0.327545166015625
1445425995324;295.8722839355469;-87.43437957763672;-3.589970111846924;1.36016845703125;-9.395751953125;-0.0254974365234375
1445425995358;296.5767822265625;-86.17792510986328;-3.8352162837982178;0.8306121826171875;-9.160385131835938;-0.182403564453125
1445425995390;297.3272705078125;-83.4888916015625;-4.572721004486084;0.9090576171875;-9.219223022460938;-0.4373779296875
1445425995426;297.4327087402344;-80.83967590332031;-5.7874956130981445;0.8306121826171875;-10.02337646484375;-0.8492584228515625
1445425995457;297.3922424316406;-79.71675109863281;-6.440243721008301;0.2029876708984375;-10.847137451171875;-0.5550537109375
1445425995490;298.1103515625;-78.4970703125;-7.34512186050415;0.6933135986328125;-12.514266967773438;-0.82965087890625
1445425995522;299.1579895019531;-78.2795181274414;-7.8281097412109375;4.066802978515625;-13.2791748046875;-2.339874267578125
1445425995556;299.28594970703125;-78.52178192138672;-7.966053009033203;2.7723236083984375;-13.965652465820312;-1.947601318359375
1445425995590;299.18017578125;-80.29163360595703;-7.945889472961426;-0.7580718994140625;-15.809295654296875;-2.2221832275390625
1445425995621;299.3942565917969;-82.32341766357422;-7.585507869720459;3.2234344482421875;-12.9261474609375;-0.5354461669921875
1445425995654;300.74749755859375;-89.44844818115234;-6.516920566558838;7.597198486328125;-12.71038818359375;0.935546875
1445425995687;301.3170166015625;-98.5687484741211;-6.755086898803711;6.5576934814453125;-12.220062255859375;1.26898193359375
1445425995721;301.8401184082031;-102.58908081054688;-7.143856525421143;2.0074005126953125;-11.45513916015625;-1.378814697265625
1445425995753;301.6248474121094;-109.41029357910156;-7.258517265319824;1.12481689453125;-10.14105224609375;-1.437652587890625
1445425995786;298.40826416015625;-116.74288940429688;-7.304652214050293;0.9482879638671875;-7.9051361083984375;0.01373291015625
1445425995820;296.1248779296875;-119.50245666503906;-7.755038261413574;1.164031982421875;-6.6498870849609375;0.2686920166015625
1445425995852;290.46160888671875;-123.70841217041016;-9.801116943359375;2.419281005859375;-4.2374420166015625;-0.2216339111328125
1445425995885;286.2558898925781;-125.8354721069336;-11.67155933380127;3.5960845947265625;-4.7081756591796875;-0.2804718017578125
1445425995918;285.2464599609375;-125.68473815917969;-12.04004955291748;3.63531494140625;-4.78662109375;-0.123565673828125
1445425995952;284.6667175292969;-123.41451263427734;-11.559033393859863;3.4587860107421875;-4.8062286376953125;-0.4962158203125
1445425995984;284.7681579589844;-121.6813735961914;-10.916563987731934;3.7333831787109375;-5.9241943359375;-2.634063720703125
1445425996017;286.48126220703125;-117.60029602050781;-9.173223495483398;4.184478759765625;-7.74822998046875;-3.6147308349609375
1445425996050;288.29779052734375;-113.38282012939453;-8.6306734085083;6.20465087890625;-13.49493408203125;-10.0675048828125
1445425996084;288.07159423828125;-112.97947692871094;-9.13015365600586;2.2035369873046875;-11.200164794921875;-8.988784790039062
1445425996116;286.9515075683594;-115.33027648925781;-9.751429557800293;0.8306121826171875;-6.66949462890625;-6.9489898681640625
1445425996150;285.2738342285156;-115.45223999023438;-10.749502182006836;4.9297943115234375;-10.5333251953125;-0.241241455078125
1445425996182;288.2452087402344;-114.1150131225586;-10.171774864196777;8.911285400390625;-16.829193115234375;-4.5561676025390625
1445425996215;292.05841064453125;-108.65747833251953;-8.723627090454102;6.4400177001953125;-12.886917114257812;-5.0072784423828125
1445425996249;295.81085205078125;-106.26126861572266;-7.359986305236816;2.10546875;-3.19793701171875;3.210693359375
1445425996282;299.6134338378906;-104.8652572631836;-6.831721782684326;0.7325439453125;-6.944091796875;4.2305908203125
1445425996314;304.7877197265625;-100.4736328125;-8.277796745300293;0.0853118896484375;-10.690231323242188;0.30792236328125
1445425996347;305.97808837890625;-99.23841857910156;-8.580954551696777;-0.6207733154296875;-13.573379516601562;-0.1627960205078125
1445425996381;309.49224853515625;-96.86666870117188;-6.7756781578063965;1.0071258544921875;-10.670608520507812;0.955169677734375
1445425996414;311.4836730957031;-93.40794372558594;-5.995899677276611;3.3607330322265625;-8.650436401367188;-0.2216339111328125
1445425996446;311.209228515625;-92.42568969726562;-6.11161470413208;2.67425537109375;-9.140777587890625;-1.0453948974609375
1445425996479;312.97222900390625;-90.54935455322266;-6.252087116241455;2.4585113525390625;-9.297683715820312;-0.868865966796875
1445425996512;314.79412841796875;-88.49478149414062;-6.391111850738525;1.673980712890625;-9.12115478515625;-0.4766082763671875
1445425996545;315.2684326171875;-87.45256805419922;-6.638918876647949;1.5955352783203125;-8.4935302734375;-0.3197021484375
1445425996578;315.4432067871094;-85.15106964111328;-7.636489391326904;1.53668212890625;-8.88580322265625;-0.574676513671875
1445425996611;314.6957092285156;-82.30322265625;-9.212149620056152;0.987518310546875;-9.90570068359375;-1.3592071533203125
1445425996645;314.3585205078125;-80.80252075195312;-10.05179214477539;0.359893798828125;-10.631378173828125;-0.94732666015625
1445425996677;314.9158935546875;-79.25487518310547;-11.059770584106445;1.105194091796875;-11.572830200195312;0.386383056640625
1445425996711;315.71258544921875;-79.21479797363281;-11.339869499206543;3.380340576171875;-14.92669677734375;-1.084625244140625
1445425996744;315.12841796875;-79.23638916015625;-11.229555130004883;1.2817230224609375;-16.927261352539062;-1.06500244140625
1445425996776;314.3519287109375;-80.56548309326172;-10.496322631835938;1.8308868408203125;-16.025039672851562;-2.20257568359375
1445425996809;314.4700622558594;-82.36907196044922;-9.94478702545166;5.7339324951171875;-11.39630126953125;-2.065277099609375
1445425996842;314.6003723144531;-88.59941864013672;-9.841967582702637;6.5576934814453125;-10.5333251953125;0.58251953125
1445425996876;315.9891357421875;-98.6039810180664;-10.831744194030762;3.69415283203125;-11.10211181640625;0.81787109375
1445425996908;315.77252197265625;-102.61295318603516;-11.21857738494873;1.615142822265625;-12.906524658203125;-1.00616455078125
1445425996942;313.1881408691406;-108.81812286376953;-10.934138298034668;0.8306121826171875;-12.435806274414062;-0.241241455078125
1445425996974;307.3658447265625;-115.92303466796875;-10.35085678100586;1.0267486572265625;-7.434417724609375;0.327545166015625
1445425997007;304.19512939453125;-119.05399322509766;-10.923755645751953;2.066253662109375;-5.786895751953125;0.36676025390625
1445425997041;299.2135009765625;-123.91323852539062;-12.90943431854248;3.498016357421875;-5.0219879150390625;0.052947998046875
1445425997076;297.0332336425781;-126.29873657226562;-13.418885231018066;4.3610076904296875;-5.786895751953125;-0.633514404296875
1445425997106;296.162841796875;-126.30901336669922;-13.231040954589844;4.007965087890625;-5.100433349609375;-0.7315826416015625
1445425997141;294.49908447265625;-124.38923645019531;-12.575883865356445;2.6546478271484375;-4.2570648193359375;-0.8492584228515625
1445425997172;293.7521667480469;-122.70433807373047;-12.343185424804688;4.0275726318359375;-5.23773193359375;-2.8890380859375
1445425997206;293.1728515625;-118.72630310058594;-12.346833229064941;5.3416748046875;-7.7874603271484375;-5.5760650634765625
1445425997238;290.96099853515625;-114.6241226196289;-14.400959968566895;5.91046142578125;-16.18194580078125;-10.655914306640625
1445425997271;289.1939392089844;-114.93345642089844;-15.348523139953613;2.61541748046875;-7.12060546875;-7.929656982421875
1445425997304;287.30755615234375;-118.43762969970703;-15.123589515686035;3.0665283203125;-5.4534759521484375;-6.7724761962890625
1445425997337;287.6719970703125;-118.612548828125;-14.603816032409668;5.5181884765625;-14.907089233398438;-2.8694305419921875
1445425997370;289.7933044433594;-118.08535766601562;-13.837985038757324;6.851898193359375;-13.828353881835938;-0.7904205322265625
1445425997404;291.7665100097656;-117.82936096191406;-13.751175880432129;5.8712310791015625;-5.35540771484375;0.759033203125
1445425997437;294.4612121582031;-117.37312316894531;-13.071675300598145;0.3991241455078125;-9.45458984375;5.172027587890625
1445425997469;304.0765075683594;-112.46369171142578;-10.00171184539795;0.4383392333984375;-12.35736083984375;1.0336151123046875
1445425997502;306.12298583984375;-107.43821716308594;-10.598504066467285;0.0853118896484375;-11.90625;-0.1627960205078125
1445425997535;306.9103088378906;-105.32195281982422;-10.600425720214844;2.635040283203125;-9.807632446289062;-0.1431732177734375
1445425997568;306.6723327636719;-100.50275421142578;-10.113831520080566;2.8507843017578125;-8.689666748046875;-0.4766082763671875
1445425997601;306.989501953125;-96.40235900878906;-9.677578926086426;2.4585113525390625;-7.74822998046875;-1.9083709716796875
1445425997634;308.26300048828125;-94.59000396728516;-9.706265449523926;2.3996734619140625;-9.140777587890625;-0.5354461669921875
1445425997667;311.1014404296875;-91.21915435791016;-10.708555221557617;2.49774169921875;-9.788009643554688;-0.88848876953125
1445425997702;310.3338317871094;-88.3178482055664;-12.309078216552734;0.928680419921875;-9.709564208984375;-1.496490478515625
1445425997733;309.2650146484375;-87.06563568115234;-12.87195110321045;0.418731689453125;-9.650726318359375;-0.7904205322265625
1445425997766;309.49884033203125;-84.95084381103516;-13.728878021240234;2.2231597900390625;-9.96453857421875;-0.005889892578125
1445425997803;309.76727294921875;-82.94218444824219;-14.661089897155762;2.4585113525390625;-10.749069213867188;0.19024658203125
1445425997833;309.9206848144531;-82.35106658935547;-15.147714614868164;2.046630859375;-11.808181762695312;0.445220947265625
1445425997866;310.5516357421875;-82.16693878173828;-15.421392440795898;4.0275726318359375;-13.357635498046875;-1.9083709716796875
1445425997898;309.8955993652344;-82.71150970458984;-15.471866607666016;0.9090576171875;-15.122833251953125;-2.26141357421875
1445425997931;309.53900146484375;-83.72422790527344;-15.359084129333496;0.1441497802734375;-15.907363891601562;-2.5948486328125
1445425997964;309.4004821777344;-87.78256225585938;-14.46108341217041;4.066802978515625;-12.553482055664062;-2.37908935546875
1445425997997;309.4989929199219;-91.16519165039062;-14.072651863098145;7.10687255859375;-12.494644165039062;0.994384765625
1445425998031;310.2999267578125;-99.80290985107422;-14.348154067993164;5.596649169921875;-12.906524658203125;0.8571014404296875
1445425998062;311.7973327636719;-106.621826171875;-14.094352722167969;0.8109893798828125;-13.377243041992188;0.3471527099609375
1445425998100;310.337890625;-109.07755279541016;-13.627796173095703;-0.032379150390625;-10.396026611328125;1.2885894775390625
1445425998130;304.0166931152344;-114.42709350585938;-12.633183479309082;0.34027099609375;-7.7089996337890625;1.7985382080078125
1445425998169;296.1266784667969;-119.81495666503906;-13.131031036376953;1.0659637451171875;-4.3159027099609375;0.386383056640625
1445425998195;292.8294982910156;-121.98442077636719;-13.66606330871582;1.41900634765625;-4.4924163818359375;-0.3393096923828125
1445425998228;287.73638916015625;-123.80107116699219;-14.102327346801758;3.1449737548828125;-7.1402130126953125;-0.810028076171875
1445425998262;285.766845703125;-123.58154296875;-14.005083084106445;4.0864105224609375;-7.5324859619140625;-0.94732666015625
1445425998295;282.68157958984375;-121.82366943359375;-13.27739429473877;3.87066650390625;-7.1598358154296875;-1.202301025390625
1445425998327;280.0011901855469;-118.82003784179688;-12.649641990661621;3.2430419921875;-7.7089996337890625;-2.1829681396484375
1445425998361;279.092041015625;-117.35221099853516;-12.66836166381836;4.380615234375;-10.376419067382812;-5.2622528076171875
1445425998393;276.41717529296875;-115.62446594238281;-14.009393692016602;4.2825469970703125;-10.239120483398438;-7.0274505615234375
1445425998427;271.4607849121094;-115.97724914550781;-15.788464546203613;1.0659637451171875;-10.101821899414062;-7.811981201171875
1445425998459;269.8224182128906;-116.73506164550781;-15.637271881103516;-1.3660736083984375;-8.2581787109375;-7.7923736572265625
1445425998492;266.039306640625;-117.8071517944336;-14.342902183532715;-1.3856964111328125;-6.3164520263671875;-5.654510498046875
1445425998525;264.08319091796875;-117.68618774414062;-13.343180656433105;5.5574188232421875;-15.4954833984375;-1.9868316650390625
1445425998558;266.28436279296875;-117.31610107421875;-12.284188270568848;8.734771728515625;-20.575332641601562;-4.3208160400390625
1445425998592;266.7189636230469;-118.27303314208984;-13.948319435119629;7.773712158203125;-2.7468414306640625;1.4847259521484375
1445425998625;271.46246337890625;-118.23697662353516;-12.253870010375977;-0.5619354248046875;-7.80706787109375;8.467056274414062
1445425998658;275.8343811035156;-115.31358337402344;-10.952441215515137;1.9485626220703125;-13.122268676757812;1.7397003173828125
1445425998690;276.9629821777344;-111.03904724121094;-13.424575805664062;1.0267486572265625;-11.494369506835938;0.504058837890625
1445425998726;276.3092041015625;-106.50789642333984;-14.715791702270508;2.3996734619140625;-9.180007934570312;0.13140869140625
1445425998757;274.4986572265625;-103.91744232177734;-14.876496315002441;2.8311614990234375;-7.92474365234375;-0.5354461669921875
1445425998791;271.2258605957031;-99.60177612304688;-14.80502986907959;3.380340576171875;-7.0029296875;-1.8691558837890625
1445425998822;271.46795654296875;-97.8463134765625;-14.761833190917969;3.7333831787109375;-9.023101806640625;-1.5357208251953125
1445425998855;272.97723388671875;-94.58320617675781;-15.409323692321777;3.4587860107421875;-10.062606811523438;-1.3592071533203125
1445425998891;272.0325622558594;-91.43035125732422;-16.804746627807617;1.2817230224609375;-9.90570068359375;-1.319976806640625
1445425998921;270.98907470703125;-90.22465515136719;-17.32971954345703;0.2618255615234375;-9.513427734375;-0.82965087890625
1445425998954;270.6138000488281;-88.37391662597656;-18.074298858642578;1.6347503662109375;-10.19989013671875;1.072845458984375
1445425998987;269.646728515625;-86.06724548339844;-18.638477325439453;2.5761871337890625;-11.51397705078125;0.7786407470703125
1445425999020;268.97039794921875;-85.1755142211914;-18.774005889892578;3.1057586669921875;-12.082763671875;0.680572509765625
1445425999053;269.44635009765625;-84.740234375;-18.691457748413086;4.635589599609375;-11.768951416015625;-0.77081298828125
1445425999087;269.8607177734375;-84.87368774414062;-18.748695373535156;1.8701171875;-12.337738037109375;-1.771087646484375
1445425999119;270.5069580078125;-85.46726989746094;-19.025402069091797;-0.326568603515625;-12.259292602539062;-1.9868316650390625
1445425999152;269.26751708984375;-87.2236099243164;-18.23397445678711;-0.85614013671875;-11.141326904296875;-3.3597564697265625
1445425999186;268.3138427734375;-88.8826675415039;-17.61629867553711;3.1057586669921875;-10.25872802734375;-2.1633453369140625
1445425999218;267.0789794921875;-94.31305694580078;-17.045114517211914;3.949127197265625;-10.670608520507812;-0.0843353271484375
1445425999252;268.9822998046875;-101.53437805175781;-16.85841941833496;6.8715057373046875;-14.946304321289062;1.641632080078125
1445425999285;268.90606689453125;-104.33588409423828;-17.070133209228516;5.773162841796875;-16.29962158203125;-1.0453948974609375
1445425999316;268.02532958984375;-110.16014862060547;-16.97163200378418;4.439453125;-15.417037963867188;0.0921783447265625
1445425999350;267.02203369140625;-114.62358093261719;-15.194018363952637;3.7137603759765625;-13.475311279296875;1.1512908935546875
1445425999384;264.75274658203125;-116.02428436279297;-14.405640602111816;3.9098968505859375;-10.866744995117188;1.1709136962890625
1445425999417;258.0128173828125;-119.62234497070312;-14.325763702392578;3.2038116455078125;-5.8065185546875;0.621734619140625
1445425999451;254.51419067382812;-121.09797668457031;-14.850353240966797;1.30133056640625;-1.9819183349609375;0.7786407470703125
1445425999483;249.1273193359375;-122.10818481445312;-16.161943435668945;1.3209381103515625;-1.334686279296875;0.8571014404296875
1445425999515;245.42831420898438;-121.55844116210938;-17.4920654296875;1.98779296875;-1.0993194580078125;0.6021270751953125
1445425999549;244.00726318359375;-120.77665710449219;-17.813621520996094;2.43890380859375;-1.6681060791015625;-1.3395843505859375
1445425999581;240.85140991210938;-118.606201171875;-18.1467227935791;3.2038116455078125;-3.4333038330078125;-3.830474853515625
1445425999614;236.67010498046875;-117.26017761230469;-19.347606658935547;7.0480194091796875;-16.534988403320312;-10.34210205078125
1445425999647;234.4951171875;-117.69043731689453;-20.55560302734375;4.9886322021484375;-18.594390869140625;-9.184906005859375
1445425999680;231.46145629882812;-121.314697265625;-21.78647804260254;2.183929443359375;-8.5523681640625;-7.929656982421875
1445425999714;229.2890625;-123.3143539428711;-21.941864013671875;5.2436065673828125;-7.5913238525390625;-7.184356689453125
1445425999748;228.6212158203125;-122.76654815673828;-21.713176727294922;7.7541046142578125;-16.00543212890625;-5.595672607421875
1445425999780;229.80126953125;-121.4518814086914;-21.013742446899414;7.3226165771484375;-4.8258514404296875;2.328094482421875
1445425999814;230.9571533203125;-121.1883544921875;-20.468143463134766;0.6344757080078125;-5.9634246826171875;3.014556884765625
1445425999845;231.86920166015625;-120.4806900024414;-20.271339416503906;0.6344757080078125;-5.9634246826171875;3.014556884765625
1445425999878;243.70623779296875;-114.16507720947266;-15.846208572387695;2.1446990966796875;-12.35736083984375;-0.005889892578125
1445425999912;244.8885498046875;-111.53265380859375;-15.694351196289062;2.066253662109375;-9.68994140625;0.1706390380859375
1445425999944;247.337646484375;-108.00965881347656;-15.844381332397461;2.242767333984375;-10.19989013671875;0.759033203125
1445425999977;250.08624267578125;-103.44320678710938;-15.584382057189941;1.8308868408203125;-9.278060913085938;-0.4373779296875
1445426000011;249.38644409179688;-101.08236694335938;-15.44722843170166;1.98779296875;-8.160110473632812;-1.8691558837890625
1445426000043;250.07119750976562;-97.420166015625;-14.998083114624023;2.2035369873046875;-8.532760620117188;-1.6533966064453125
1445426000076;253.72882080078125;-94.28221130371094;-15.1661376953125;2.10546875;-10.02337646484375;-1.0453948974609375
1445426000110;254.97503662109375;-92.95238494873047;-15.695427894592285;2.164306640625;-10.08221435546875;-1.692626953125
1445426000142;254.35244750976562;-90.75508880615234;-16.8536434173584;0.3206634521484375;-9.729171752929688;-1.3395843505859375
1445426000176;255.06832885742188;-88.65538787841797;-17.47010040283203;1.438629150390625;-9.533035278320312;-0.064727783203125
1445426000210;254.85400390625;-87.19210815429688;-17.80062484741211;2.2035369873046875;-9.788009643554688;-0.633514404296875
1445426000241;254.91867065429688;-85.78315734863281;-18.71696662902832;1.9681854248046875;-10.905975341796875;0.9747772216796875
1445426000274;255.8123779296875;-85.68512725830078;-18.830848693847656;4.2237091064453125;-11.39630126953125;-0.5354461669921875
1445426000307;255.77764892578125;-85.24063873291016;-19.089393615722656;3.5960845947265625;-12.259292602539062;-1.3984375
1445426000341;256.0780029296875;-85.25813293457031;-19.41888427734375;1.3405609130859375;-14.436370849609375;-1.5945587158203125
1445426000374;255.95416259765625;-85.85911560058594;-19.010051727294922;0.3991241455078125;-14.69134521484375;-2.4379425048828125
1445426000408;255.41705322265625;-89.47844696044922;-17.70388412475586;2.2035369873046875;-12.769241333007812;-2.1829681396484375
1445426000439;254.43496704101562;-96.55107116699219;-17.261890411376953;5.4005126953125;-11.121719360351562;1.1709136962890625
1445426000472;254.560546875;-101.1175765991211;-17.4300479888916;5.5377960205078125;-11.51397705078125;1.072845458984375
1445426000505;255.36175537109375;-108.16522216796875;-17.047344207763672;2.183929443359375;-13.298797607421875;0.2883148193359375
1445426000539;254.6148681640625;-110.56948852539062;-16.42201805114746;1.2032623291015625;-12.730010986328125;0.1706390380859375
1445426000571;249.1336669921875;-115.5439682006836;-15.635757446289062;1.046356201171875;-10.925582885742188;0.7982635498046875
1445426000605;241.41546630859375;-120.65104675292969;-15.872052192687988;1.222869873046875;-6.0811004638671875;0.5236663818359375
1445426000638;238.362548828125;-122.95677185058594;-16.3348445892334;2.6546478271484375;-4.923919677734375;-0.241241455078125
1445426000670;233.6414794921875;-125.4778823852539;-17.272098541259766;3.5372467041015625;-5.47308349609375;-0.3197021484375
1445426000702;230.2518310546875;-124.98636627197266;-17.59877586364746;4.243316650390625;-5.786895751953125;-0.2804718017578125
1445426000737;228.80474853515625;-124.147705078125;-17.53874397277832;3.6549224853515625;-5.0023651123046875;-0.3981475830078125
1445426000770;226.24319458007812;-121.49237060546875;-17.426692962646484;3.7725982666015625;-5.1396636962890625;-0.88848876953125
1445426000802;224.58157348632812;-118.33548736572266;-18.00530433654785;3.6745452880859375;-8.3170166015625;-5.3995513916015625
1445426000835;223.57769775390625;-116.88497161865234;-18.69878387451172;4.71405029296875;-13.73028564453125;-8.714187622070312
1445426000868;222.38311767578125;-114.74661254882812;-19.721920013427734;4.6748199462890625;-14.279464721679688;-8.341537475585938
1445426000900;222.28866577148438;-114.73560333251953;-19.506582260131836;3.556854248046875;-7.493255615234375;-5.7133636474609375
1445426000934;218.44354248046875;-114.53060913085938;-20.158851623535156;4.7924957275390625;-8.611221313476562;-1.6730194091796875
1445426000967;220.006103515625;-113.68096923828125;-19.790494918823242;8.126754760742188;-14.024490356445312;-0.2804718017578125
1445426001005;222.9466552734375;-111.96751403808594;-18.742244720458984;4.2825469970703125;-8.787734985351562;-1.0453948974609375
1445426001033;225.80047607421875;-107.7965316772461;-17.36035919189453;2.3996734619140625;-5.1396636962890625;2.7399749755859375
1445426001067;232.4688720703125;-106.38862609863281;-16.10001564025879;1.9485626220703125;-7.2775115966796875;5.1327972412109375
1445426001100;235.11651611328125;-104.79621124267578;-16.459800720214844;1.41900634765625;-9.356521606445312;1.9750518798828125
1445426001133;238.4334716796875;-101.84475708007812;-17.117752075195312;0.7129364013671875;-13.691055297851562;-0.6138916015625
1445426001165;242.13241577148438;-99.86103820800781;-15.370660781860352;3.0076904296875;-9.415359497070312;0.2883148193359375
1445426001198;243.29525756835938;-98.32714080810547;-14.529343605041504;3.0076904296875;-8.591598510742188;0.0333404541015625
1445426001231;243.84259033203125;-96.26924896240234;-13.931669235229492;2.635040283203125;-9.042709350585938;-0.5550537109375
1445426001264;246.99676513671875;-94.57891082763672;-13.221139907836914;3.7137603759765625;-8.5523681640625;-0.2804718017578125
1445426001298;248.6861572265625;-93.60183715820312;-13.151463508605957;3.4784088134765625;-8.336624145507812;0.0333404541015625
1445426001331;250.1614990234375;-91.31067657470703;-13.833948135375977;1.8701171875;-8.611221313476562;-0.005889892578125
1445426001364;250.58905029296875;-88.88939666748047;-14.964814186096191;1.164031982421875;-9.788009643554688;-1.3003692626953125
1445426001397;250.60858154296875;-87.43489837646484;-15.519684791564941;0.6737060546875;-10.670608520507812;-1.712249755859375
1445426001430;250.97540283203125;-85.3242416381836;-15.966069221496582;-1.3660736083984375;-10.5333251953125;-1.12384033203125
1445426001462;251.784423828125;-84.98171997070312;-15.840314865112305;2.3408355712890625;-11.27862548828125;0.4059906005859375
1445426001495;253.3951416015625;-84.77774047851562;-15.237006187438965;5.5377960205078125;-12.02392578125;-0.2020263671875
1445426001531;254.73870849609375;-84.98138427734375;-15.37247085571289;4.145263671875;-13.67144775390625;-1.574951171875
1445426001561;255.33563232421875;-85.6765365600586;-15.416610717773438;1.497467041015625;-13.573379516601562;-1.8495330810546875
1445426001597;257.01934814453125;-89.37579345703125;-14.634852409362793;2.2819976806640625;-12.690780639648438;-2.6536865234375
1445426001627;259.1965637207031;-95.83026123046875;-13.88144588470459;6.6949920654296875;-11.808181762695312;-1.1042327880859375
1445426001660;260.7689514160156;-100.3536148071289;-14.02121639251709;7.7541046142578125;-11.533599853515625;1.072845458984375
1445426001694;264.706787109375;-108.19786071777344;-14.192703247070312;4.635589599609375;-12.553482055664062;0.36676025390625
1445426001726;263.1965637207031;-112.83767700195312;-13.377556800842285;1.2817230224609375;-12.59271240234375;-1.4768829345703125
1445426001760;261.8149719238281;-115.43345642089844;-12.692437171936035;1.105194091796875;-9.591873168945312;0.01373291015625
1445426001792;258.505615234375;-119.92142486572266;-12.917880058288574;2.0074005126953125;-4.1982269287109375;0.1510162353515625
1445426001826;256.81494140625;-121.50423431396484;-13.652265548706055;1.9681854248046875;-3.2371673583984375;0.0921783447265625
1445426001859;253.97897338867188;-122.49874877929688;-14.832530975341797;2.419281005859375;-3.727508544921875;-0.241241455078125
1445426001891;253.1068115234375;-121.9233169555664;-15.046406745910645;3.3018798828125;-5.669219970703125;-0.751190185546875
1445426001931;251.96511840820312;-117.80269622802734;-14.858701705932617;5.4789581298828125;-8.3758544921875;-4.026611328125
1445426001958;252.1148681640625;-116.1133041381836;-14.823223114013672;5.380889892578125;-9.513427734375;-5.1445770263671875
1445426001990;251.69427490234375;-113.88676452636719;-15.946589469909668;3.57647705078125;-9.023101806640625;-6.1448516845703125
1445426002025;251.1956787109375;-113.56063079833984;-16.85055160522461;2.7919464111328125;-9.376129150390625;-5.987945556640625
1445426002057;251.05499267578125;-113.25390625;-17.4937686920166;3.498016357421875;-10.7686767578125;-6.733245849609375
1445426002089;249.59637451171875;-112.60492706298828;-17.21256446838379;4.9886322021484375;-8.807342529296875;-3.85009765625
1445426002123;249.28289794921875;-112.27749633789062;-17.147432327270508;7.4402923583984375;-11.631668090820312;-0.9865570068359375
1445426002155;253.160888671875;-110.25833129882812;-16.37559700012207;8.322891235351562;-12.53387451171875;-2.398712158203125
1445426002189;254.73602294921875;-108.41439819335938;-15.991000175476074;3.0076904296875;-5.4534759521484375;2.70074462890625
1445426002222;259.0538330078125;-106.6617202758789;-15.276555061340332;2.419281005859375;-5.3946380615234375;4.1128997802734375
1445426002254;267.013671875;-103.92755889892578;-14.877434730529785;1.0855865478515625;-10.121444702148438;2.210418701171875
1445426002288;268.85650634765625;-101.93010711669922;-15.153375625610352;-0.3854217529296875;-12.35736083984375;-0.300079345703125
1445426002320;272.0747985839844;-99.42501068115234;-13.826191902160645;1.6347503662109375;-11.200164794921875;-0.241241455078125
1445426002353;275.3414306640625;-97.42465209960938;-12.88498306274414;4.0864105224609375;-8.571990966796875;-0.633514404296875
1445426002386;275.61865234375;-96.57737731933594;-12.970775604248047;2.242767333984375;-9.258453369140625;-0.300079345703125
1445426002420;277.17926025390625;-95.33867645263672;-12.878836631774902;2.6546478271484375;-9.101547241210938;-0.1627960205078125
1445426002453;279.01031494140625;-93.48147583007812;-12.867803573608398;2.8899993896484375;-8.925033569335938;0.327545166015625
1445426002485;279.5141906738281;-92.53248596191406;-13.089153289794922;2.38006591796875;-9.317291259765625;0.1510162353515625
1445426002519;280.8193054199219;-90.6675033569336;-13.57533073425293;2.0270233154296875;-9.709564208984375;-0.4766082763671875
1445426002551;281.53851318359375;-89.69979858398438;-13.868048667907715;2.0270233154296875;-9.729171752929688;-1.2219085693359375
1445426002584;282.5506896972656;-87.81382751464844;-14.660934448242188;1.3797760009765625;-9.729171752929688;-1.51611328125
1445426002617;283.5256652832031;-86.53491973876953;-15.358412742614746;-0.405029296875;-10.180282592773438;-0.868865966796875
1445426002650;284.2696533203125;-86.29351043701172;-15.40915298461914;0.34027099609375;-10.670608520507812;-0.1627960205078125
1445426002683;285.8240966796875;-86.20911407470703;-15.154285430908203;1.673980712890625;-11.10211181640625;-0.2608642578125
1445426002715;286.5109558105469;-86.2757568359375;-15.427178382873535;4.1060333251953125;-13.455703735351562;-1.4768829345703125
1445426002749;286.62261962890625;-86.81952667236328;-15.682340621948242;3.7725982666015625;-12.396575927734375;-2.457550048828125
1445426002782;287.1357116699219;-89.65620422363281;-15.570029258728027;4.4002227783203125;-11.39630126953125;-2.7713623046875
1445426002815;290.0950927734375;-95.67790222167969;-14.983644485473633;7.10687255859375;-11.082489013671875;-2.1241302490234375
1445426002848;292.3851013183594;-99.85928344726562;-14.773289680480957;9.342788696289062;-11.749343872070312;-1.18267822265625
1445426002881;296.9783630371094;-107.81893157958984;-14.963454246520996;6.9303436279296875;-11.572830200195312;0.2686920166015625
1445426002914;297.86175537109375;-110.64757537841797;-15.111261367797852;0.9090576171875;-9.670333862304688;-1.8495330810546875
1445426002948;297.09716796875;-115.56389617919922;-14.862838745117188;1.105194091796875;-7.434417724609375;-1.18267822265625
1445426002981;294.5272216796875;-119.4731216430664;-15.387106895446777;2.55657958984375;-4.27667236328125;-0.4569854736328125
1445426003013;293.2889404296875;-121.05355834960938;-15.886404991149902;2.988067626953125;-4.2374420166015625;-0.6531219482421875
1445426003047;291.3512268066406;-122.49034881591797;-16.59034538269043;3.51763916015625;-4.413970947265625;-0.7904205322265625
1445426003079;290.5555114746094;-121.48917388916016;-16.442596435546875;3.556854248046875;-5.35540771484375;-1.3592071533203125
1445426003114;290.54534912109375;-120.35022735595703;-16.112197875976562;3.831451416015625;-6.1007080078125;-2.634063720703125
1445426003145;291.21417236328125;-117.12159729003906;-14.989951133728027;3.9883575439453125;-6.806793212890625;-3.51666259765625
1445426003180;292.3732604980469;-113.58895111083984;-13.857686996459961;3.5372467041015625;-8.983871459960938;-5.85064697265625
1445426003210;292.3620910644531;-112.0676498413086;-13.892936706542969;3.3411102294921875;-10.062606811523438;-6.87054443359375
1445426003244;291.7968444824219;-110.656982421875;-14.544391632080078;3.6549224853515625;-13.024200439453125;-8.263092041015625
1445426003277;290.50274658203125;-111.1692123413086;-14.695638656616211;3.4784088134765625;-7.74822998046875;-5.8898773193359375
1445426003311;289.1599426269531;-111.3746337890625;-15.1477632522583;4.71405029296875;-7.1598358154296875;-2.9478759765625
1445426003343;291.142333984375;-110.4869384765625;-15.793863296508789;10.676483154296875;-16.162338256835938;0.7786407470703125
1445426003377;295.827392578125;-106.85167694091797;-15.18027400970459;5.7535552978515625;-8.82696533203125;-1.6533966064453125
1445426003411;297.970458984375;-105.8605728149414;-14.553874015808105;3.0076904296875;-4.649322509765625;2.092742919921875
1445426003442;305.3082275390625;-103.30654907226562;-13.320138931274414;2.5173492431640625;-6.9636993408203125;4.662078857421875
1445426003476;308.3515625;-101.42137908935547;-13.804061889648438;-0.1108245849609375;-13.2791748046875;-0.6727447509765625
1445426003511;310.4693298339844;-98.09838104248047;-13.682366371154785;-0.3854217529296875;-12.867294311523438;-1.3984375
1445426003543;315.08447265625;-96.20027923583984;-10.967917442321777;2.6546478271484375;-9.650726318359375;0.2098541259765625
1445426003575;317.0844421386719;-94.77497100830078;-10.456456184387207;4.6551971435546875;-8.238555908203125;-0.064727783203125
1445426003609;318.0011901855469;-92.58876037597656;-10.876518249511719;3.498016357421875;-9.00347900390625;-0.1039581298828125
1445426003642;320.38323974609375;-90.94312286376953;-11.023724555969238;2.38006591796875;-9.552658081054688;0.2686920166015625
1445426003673;321.6300964355469;-90.08456420898438;-10.960647583007812;2.360443115234375;-9.533035278320312;0.2098541259765625
1445426003709;323.7168273925781;-88.34330749511719;-10.982901573181152;1.98779296875;-9.356521606445312;-0.0451202392578125
1445426003740;325.434814453125;-86.40852355957031;-11.257901191711426;1.438629150390625;-9.00347900390625;-0.3393096923828125
1445426003772;325.8038635253906;-85.3657455444336;-11.514368057250977;1.41900634765625;-8.964248657226562;-0.4766082763671875
1445426003807;326.09967041015625;-83.20831298828125;-12.354887008666992;1.47784423828125;-9.513427734375;-0.3393096923828125
1445426003840;326.2123718261719;-82.13763427734375;-12.83996868133545;1.438629150390625;-9.944915771484375;-1.0257720947265625
1445426003872;326.43798828125;-80.53953552246094;-13.821257591247559;0.5167999267578125;-10.25872802734375;-0.4373779296875
1445426003904;328.3905334472656;-80.28369140625;-14.043238639831543;1.5170745849609375;-10.866744995117188;0.4648284912109375
1445426003937;329.3755187988281;-80.21825408935547;-13.899545669555664;3.5960845947265625;-11.45513916015625;-0.868865966796875
1445426003971;331.2436828613281;-80.50959014892578;-14.39030647277832;3.1253662109375;-13.318405151367188;-1.574951171875
1445426004003;332.125244140625;-82.52599334716797;-13.873345375061035;2.988067626953125;-14.534439086914062;-2.4771575927734375
1445426004037;332.4945373535156;-84.64749145507812;-13.354903221130371;4.5571441650390625;-13.534149169921875;-2.006439208984375
1445426004070;335.999755859375;-91.54962158203125;-12.947981834411621;10.715713500976562;-11.965087890625;0.759033203125
1445426004102;338.60711669921875;-96.21202850341797;-13.371052742004395;8.0286865234375;-10.631378173828125;1.131683349609375
1445426004136;343.2912292480469;-104.41940307617188;-14.353110313415527;4.4198455810546875;-11.10211181640625;-0.1039581298828125
1445426004168;342.87005615234375;-110.13362884521484;-14.598920822143555;0.8109893798828125;-10.239120483398438;-1.06500244140625
1445426004201;341.49420166015625;-112.90321350097656;-14.427079200744629;1.4582366943359375;-6.2183990478515625;1.0336151123046875
1445426004234;338.4315185546875;-117.77428436279297;-15.04678726196289;2.55657958984375;-4.413970947265625;1.1120758056640625
1445426004268;336.5096740722656;-121.72457885742188;-17.172218322753906;4.3021697998046875;-3.3744659423828125;0.4059906005859375
1445426004302;336.2051696777344;-122.9292221069336;-18.14434242248535;4.439453125;-4.21783447265625;-0.1627960205078125
1445426004333;337.1083068847656;-122.80065155029297;-19.08397674560547;4.5963592529296875;-5.492706298828125;-1.18267822265625
1445426004367;338.0306701660156;-121.71546173095703;-19.02503776550293;4.4198455810546875;-5.728057861328125;-1.6730194091796875
1445426004399;340.70355224609375;-118.62340545654297;-17.798160552978516;4.0275726318359375;-6.0222625732421875;-2.281036376953125
1445426004433;343.5064697265625;-114.3819580078125;-16.15631866455078;2.61541748046875;-8.179718017578125;-4.41888427734375
1445426004465;344.7444152832031;-112.19277954101562;-15.562021255493164;2.9096221923828125;-9.650726318359375;-6.3409881591796875
1445426004499;346.85906982421875;-110.14049530029297;-15.452195167541504;4.4002227783203125;-13.2203369140625;-9.243743896484375
1445426004531;347.68865966796875;-110.79017639160156;-15.959258079528809;2.49774169921875;-7.7678375244140625;-7.4981689453125
1445426004564;346.61126708984375;-111.09490203857422;-16.640750885009766;6.4203948974609375;-7.57171630859375;-1.1630706787109375
1445426004598;348.71044921875;-109.91263580322266;-17.43092155456543;12.618209838867188;-16.946868896484375;2.0535125732421875
1445426004631;354.3837890625;-105.47015380859375;-16.73241424560547;7.420684814453125;-12.749618530273438;-3.085174560546875
1445426004663;355.5926513671875;-104.07593536376953;-15.991684913635254;-0.032379150390625;-2.9233551025390625;3.347991943359375
1445426004697;1.6190185546875;-102.9687728881836;-13.305962562561035;1.497467041015625;-4.3159027099609375;4.5051727294921875
1445426004731;6.93731689453125;-98.59477996826172;-13.453218460083008;2.635040283203125;-11.376693725585938;-0.7315826416015625
1445426004763;8.08868408203125;-97.37859344482422;-13.205789566040039;0.3795013427734375;-12.631942749023438;-1.947601318359375
1445426004795;15.56439208984375;-95.8646469116211;-9.76140308380127;1.8701171875;-10.552932739257812;-0.3393096923828125
1445426004828;22.950714111328125;-92.35812377929688;-7.30465030670166;4.83172607421875;-7.4540252685546875;0.6609649658203125
1445426004863;24.45074462890625;-90.70964050292969;-7.208769798278809;4.2041015625;-7.8462982177734375;0.58251953125
1445426004894;28.978271484375;-88.3673324584961;-7.188796043395996;2.49774169921875;-9.572265625;1.0336151123046875
1445426004928;31.532958984375;-87.11493682861328;-7.032838344573975;1.98779296875;-9.650726318359375;0.994384765625
1445426004960;35.93310546875;-84.73382568359375;-7.126861095428467;1.6935882568359375;-9.729171752929688;0.935546875
1445426004993;39.811279296875;-82.34082794189453;-7.474930763244629;0.2618255615234375;-9.866470336914062;0.3471527099609375
1445426005026;41.364166259765625;-81.2644271850586;-7.628818988800049;0.301055908203125;-9.670333862304688;0.30792236328125
1445426005059;43.6177978515625;-79.14232635498047;-8.313591003417969;1.438629150390625;-9.140777587890625;0.935546875
1445426005093;45.505035400390625;-76.97232818603516;-9.76429271697998;1.9485626220703125;-10.435256958007812;0.641357421875
1445426005125;46.4464111328125;-75.86419677734375;-10.680293083190918;1.8308868408203125;-12.063156127929688;-0.2216339111328125
1445426005158;49.623291015625;-73.97667694091797;-12.754979133605957;2.360443115234375;-11.847412109375;-0.692352294921875
1445426005191;55.248382568359375;-73.58607482910156;-14.413351058959961;3.4587860107421875;-10.984420776367188;-1.7318572998046875
1445426005225;57.525390625;-73.59011840820312;-15.077441215515137;1.850494384765625;-12.553482055664062;-1.12384033203125
1445426005258;61.029205322265625;-74.19200897216797;-15.531952857971191;0.6737060546875;-14.416748046875;-0.5942840576171875
1445426005290;62.603240966796875;-74.8963394165039;-15.448396682739258;1.9485626220703125;-13.985260009765625;-1.0453948974609375
1445426005324;65.07583618164062;-78.333740234375;-14.996302604675293;3.3607330322265625;-11.827789306640625;-0.4766082763671875
1445426005358;67.57211303710938;-86.30266571044922;-14.5382661819458;9.597747802734375;-13.200729370117188;1.014007568359375
1445426005389;68.62557983398438;-90.91645050048828;-14.792150497436523;6.1850433349609375;-11.043258666992188;2.2888641357421875
1445426005423;70.44857788085938;-98.54936218261719;-15.566550254821777;4.576751708984375;-10.807907104492188;0.052947998046875
1445426005455;70.73336791992188;-105.18357849121094;-15.80305004119873;3.51763916015625;-10.396026611328125;-1.3984375
1445426005488;70.1319580078125;-108.62213897705078;-15.504117012023926;2.693878173828125;-7.7286224365234375;-0.0254974365234375
1445426005521;67.60235595703125;-113.53431701660156;-15.065250396728516;2.49774169921875;-5.5711517333984375;0.13140869140625
1445426005554;64.1475830078125;-116.17230987548828;-15.791799545288086;1.6347503662109375;-5.0808258056640625;-0.0451202392578125
1445426005587;62.881988525390625;-117.14672088623047;-16.541719436645508;2.38006591796875;-4.27667236328125;-0.2608642578125
1445426005621;61.49853515625;-118.33651733398438;-18.304582595825195;2.2035369873046875;-4.04132080078125;-0.88848876953125
1445426005653;61.243133544921875;-117.1402816772461;-19.244579315185547;2.419281005859375;-4.923919677734375;-2.26141357421875
1445426005686;61.7799072265625;-115.82756042480469;-19.207231521606445;3.2430419921875;-5.492706298828125;-3.1832427978515625
1445426005720;62.911529541015625;-112.23355865478516;-19.067153930664062;4.243316650390625;-6.8852386474609375;-4.340423583984375
1445426005753;64.010009765625;-109.50162506103516;-19.675308227539062;5.380889892578125;-13.49493408203125;-9.812530517578125
1445426005786;65.04486083984375;-109.3912582397461;-19.768142700195312;4.5375213623046875;-15.691619873046875;-10.69512939453125
1445426005819;63.54638671875;-110.33744049072266;-19.964290618896484;1.791656494140625;-4.531646728515625;-5.1053466796875
1445426005851;61.699493408203125;-110.39105224609375;-20.18840980529785;7.538360595703125;-9.101547241210938;1.3670501708984375
1445426005885;63.02935791015625;-108.02345275878906;-19.5269832611084;11.225662231445312;-16.24078369140625;2.6222991943359375
1445426005918;68.58413696289062;-102.62049102783203;-18.53495979309082;8.8720703125;-12.573104858398438;-5.301483154296875
1445426005953;68.80215454101562;-101.46171569824219;-18.606069564819336;1.046356201171875;-2.393798828125;4.6424713134765625
1445426005984;73.24600219726562;-100.95071411132812;-18.40607261657715;1.1444244384765625;-5.159271240234375;5.8977203369140625
1445426006016;74.8486328125;-98.7900390625;-18.959766387939453;-0.1108245849609375;-12.906524658203125;-0.5942840576171875
1445426006049;76.90631103515625;-95.49356079101562;-18.751253128051758;-0.85614013671875;-14.965927124023438;-2.20257568359375
1445426006083;81.71746826171875;-93.92345428466797;-15.840587615966797;2.8311614990234375;-9.513427734375;0.445220947265625
1445426006115;83.41775512695312;-92.37879943847656;-15.205608367919922;5.086700439453125;-7.316741943359375;-0.2608642578125
1445426006149;83.90484619140625;-89.98950958251953;-15.497596740722656;3.0272979736328125;-9.160385131835938;-0.82965087890625
1445426006182;86.75631713867188;-88.1418228149414;-15.57790470123291;2.5761871337890625;-9.415359497070312;0.24908447265625
1445426006214;88.3319091796875;-87.1343994140625;-15.66179084777832;1.7720489501953125;-9.12115478515625;0.2883148193359375
1445426006247;90.34527587890625;-85.19384002685547;-16.049367904663086;1.556304931640625;-9.101547241210938;0.2883148193359375
1445426006280;91.8016357421875;-82.85523223876953;-16.785186767578125;2.0074005126953125;-9.06231689453125;-0.0843353271484375
1445426006314;92.20843505859375;-81.41251373291016;-17.3267879486084;2.066253662109375;-9.670333862304688;-0.9277191162109375
1445426006347;93.0009765625;-78.59503936767578;-18.6314640045166;1.2817230224609375;-10.08221435546875;-0.810028076171875
1445426006380;95.0732421875;-77.06700134277344;-19.851638793945312;0.654083251953125;-11.023651123046875;0.2883148193359375
1445426006412;96.66519165039062;-76.97998046875;-20.001602172851562;1.811279296875;-11.592437744140625;-0.064727783203125
1445426006447;99.54367065429688;-77.1084213256836;-20.0965518951416;3.1253662109375;-12.65155029296875;-1.7318572998046875
1445426006478;100.88299560546875;-77.41719055175781;-20.263957977294922;1.222869873046875;-14.279464721679688;-1.5357208251953125
1445426006511;102.83172607421875;-78.73617553710938;-19.92056655883789;1.438629150390625;-14.4755859375;-2.398712158203125
1445426006545;104.2325439453125;-82.44096374511719;-18.874664306640625;4.184478759765625;-12.730010986328125;-2.3006439208984375
1445426006578;104.78266906738281;-85.95858001708984;-18.739261627197266;9.048583984375;-13.1026611328125;1.6808624267578125
1445426006611;105.24174499511719;-95.21861267089844;-19.44359016418457;8.8720703125;-13.122268676757812;1.2297515869140625
1445426006644;106.22930908203125;-102.5526351928711;-20.062034606933594;4.3021697998046875;-12.063156127929688;-0.9865570068359375
1445426006677;106.055908203125;-105.40420532226562;-19.776573181152344;1.164031982421875;-10.7098388671875;-0.7904205322265625
1445426006710;101.43157958984375;-110.31048583984375;-18.626609802246094;0.8502197265625;-8.3170166015625;0.386383056640625
1445426006742;94.495849609375;-114.92855072021484;-18.926809310913086;1.9093475341796875;-4.1197662353515625;0.994384765625
1445426006775;91.48016357421875;-116.8551254272461;-19.650453567504883;2.4585113525390625;-3.158721923828125;0.7198028564453125
1445426006812;86.80169677734375;-119.53750610351562;-21.107553482055664;3.439178466796875;-4.531646728515625;0.19024658203125
1445426006841;83.97512817382812;-119.69319152832031;-21.396482467651367;3.831451416015625;-5.23773193359375;-0.3785400390625
1445426006882;82.77084350585938;-117.55458068847656;-20.524166107177734;4.145263671875;-5.5123138427734375;-1.51611328125
1445426006911;82.896728515625;-115.92282104492188;-19.909931182861328;4.439453125;-6.0811004638671875;-2.7909698486328125
1445426006942;83.99667358398438;-112.34974670410156;-19.121034622192383;4.066802978515625;-9.160385131835938;-6.223297119140625
1445426006973;84.27261352539062;-110.70649719238281;-19.282482147216797;3.7137603759765625;-9.709564208984375;-7.6158447265625
1445426007011;84.74224853515625;-108.80168914794922;-19.936838150024414;4.576751708984375;-12.573104858398438;-8.733810424804688
1445426007039;84.62054443359375;-108.5561752319336;-20.288108825683594;4.184478759765625;-8.179718017578125;-6.497894287109375
1445426007074;81.57675170898438;-108.20186614990234;-21.418392181396484;4.77288818359375;-6.747955322265625;-3.1832427978515625
1445426007105;82.61370849609375;-106.01111602783203;-21.003252029418945;9.22509765625;-13.455703735351562;1.9162139892578125
1445426007141;84.97711181640625;-103.97823333740234;-20.405393600463867;6.65576171875;-11.21978759765625;-3.144012451171875
1445426007171;86.7991943359375;-100.68729400634766;-19.74901580810547;2.752716064453125;-7.297119140625;0.4844512939453125
1445426007204;89.22918701171875;-100.37641906738281;-19.061391830444336;1.53668212890625;-6.5125885009765625;5.93695068359375
1445426007237;93.740966796875;-97.0224609375;-19.172983169555664;1.2621002197265625;-10.925582885742188;0.994384765625
1445426007270;95.826416015625;-94.38532257080078;-19.292829513549805;1.222869873046875;-12.004318237304688;-0.3197021484375
1445426007303;97.39483642578125;-93.65274810791016;-18.45355987548828;4.0864105224609375;-8.709274291992188;0.3471527099609375
1445426007337;100.62655639648438;-90.9493408203125;-16.95642852783203;4.0275726318359375;-8.5523681640625;-0.241241455078125
1445426007369;101.18698120117188;-89.7436294555664;-16.77665138244629;2.811553955078125;-8.846572875976562;-0.1627960205078125
1445426007404;103.66796875;-88.0499267578125;-16.605730056762695;2.61541748046875;-9.45458984375;0.7001953125
1445426007435;107.440673828125;-86.2491226196289;-16.772375106811523;2.693878173828125;-9.395751953125;0.621734619140625
1445426007467;108.9188232421875;-85.29379272460938;-17.057209014892578;1.791656494140625;-8.925033569335938;0.111785888671875
1445426007502;110.79318237304688;-83.1779556274414;-17.853090286254883;1.6543731689453125;-9.081939697265625;-0.2804718017578125
1445426007534;111.99452209472656;-80.63419342041016;-18.953947067260742;1.732818603515625;-9.493820190429688;-0.3589324951171875
1445426007567;112.53875732421875;-79.27754211425781;-19.592864990234375;0.7913818359375;-10.278350830078125;-0.5354461669921875
1445426007600;113.95733642578125;-76.96843719482422;-20.988548278808594;0.7913818359375;-11.004043579101562;0.24908447265625
1445426007633;116.83964538574219;-76.12458801269531;-21.978553771972656;2.6546478271484375;-11.357070922851562;-0.515838623046875
1445426007667;118.046875;-75.97396850585938;-22.356199264526367;2.7723236083984375;-13.004592895507812;-0.9277191162109375
1445426007700;120.04917907714844;-76.23688507080078;-22.818754196166992;1.791656494140625;-14.161773681640625;-0.6531219482421875
1445426007732;121.73455810546875;-77.3934555053711;-22.264469146728516;1.30133056640625;-16.495758056640625;-0.8492584228515625
1445426007765;122.2950439453125;-78.9774398803711;-21.7902774810791;4.498291015625;-11.768951416015625;-1.8691558837890625
1445426007798;122.377197265625;-85.10997772216797;-21.040546417236328;6.596923828125;-10.278350830078125;-0.692352294921875
1445426007831;122.166259765625;-94.00528717041016;-21.39811897277832;6.02813720703125;-9.611495971679688;2.0142822265625
1445426007866;122.65744018554688;-97.65472412109375;-21.676429748535156;3.2822723388671875;-12.180831909179688;-0.3197021484375
1445426007898;122.33610534667969;-103.33047485351562;-21.497589111328125;3.439178466796875;-12.9849853515625;-1.5945587158203125
1445426007930;118.85922241210938;-108.90647888183594;-19.871280670166016;2.67425537109375;-10.31756591796875;-0.0254974365234375
1445426007967;116.34306335449219;-111.19693756103516;-19.2106876373291;2.3996734619140625;-8.277786254882812;0.24908447265625
1445426007997;109.70175170898438;-114.45596313476562;-19.08928108215332;1.7720489501953125;-6.355682373046875;-0.0843353271484375
1445426008028;106.60995483398438;-115.97209930419922;-19.373489379882812;2.38006591796875;-4.865081787109375;-0.3589324951171875
1445426008063;101.54351806640625;-117.8311996459961;-20.458236694335938;2.5761871337890625;-4.7473907470703125;-0.2216339111328125
1445426008096;97.74032592773438;-117.4857406616211;-21.078609466552734;2.752716064453125;-4.55126953125;-0.2020263671875
1445426008128;96.4488525390625;-116.54039764404297;-21.037853240966797;3.321502685546875;-5.0023651123046875;-1.712249755859375
1445426008161;95.30630493164062;-113.55125427246094;-20.59186553955078;4.145263671875;-6.0418701171875;-2.5948486328125
1445426008196;94.57131958007812;-110.01287078857422;-20.852970123291016;5.086700439453125;-9.042709350585938;-4.968048095703125
1445426008228;94.29443359375;-108.71987915039062;-21.371929168701172;3.3999481201171875;-13.769515991210938;-9.537948608398438
1445426008260;94.784912109375;-109.17198944091797;-21.331350326538086;3.3999481201171875;-13.1026611328125;-9.8321533203125
1445426008294;93.14584350585938;-109.37574768066406;-21.482524871826172;4.380615234375;-8.238555908203125;-0.3589324951171875
1445426008326;86.99917602539062;-108.0141830444336;-22.2863826751709;7.5775909423828125;-12.337738037109375;2.46539306640625
1445426008359;90.79412841796875;-105.94508361816406;-21.3663330078125;9.048583984375;-13.55377197265625;-4.5561676025390625
1445426008392;91.59033203125;-103.32464599609375;-21.100196838378906;3.262664794921875;-5.669219970703125;1.523956298828125
1445426008425;92.07574462890625;-101.10133361816406;-21.157161712646484;1.6347503662109375;-4.8258514404296875;4.2305908203125
1445426008458;95.55560302734375;-98.7638168334961;-22.041973114013672;-0.4834747314453125;-9.3369140625;2.779205322265625
1445426008492;96.79586791992188;-96.88459777832031;-22.79742431640625;-0.267730712890625;-13.318405151367188;-1.574951171875
1445426008524;98.35247802734375;-94.87095642089844;-22.321971893310547;1.5170745849609375;-11.533599853515625;-0.4962158203125
1445426008557;99.8818359375;-92.81353759765625;-20.48281478881836;5.322052001953125;-7.80706787109375;0.1510162353515625
1445426008591;99.44610595703125;-91.28564453125;-20.14926528930664;4.2237091064453125;-8.297409057617188;-0.4373779296875
1445426008623;98.84112548828125;-89.29180145263672;-20.244176864624023;3.6745452880859375;-8.513153076171875;-0.3393096923828125
1445426008657;100.24652099609375;-87.57400512695312;-20.524578094482422;3.3999481201171875;-8.76812744140625;0.19024658203125
1445426008689;100.74365234375;-86.50818634033203;-20.771835327148438;2.9096221923828125;-9.101547241210938;0.13140869140625
1445426008722;101.40896606445312;-84.02652740478516;-21.405029296875;1.673980712890625;-9.160385131835938;0.2686920166015625
1445426008755;102.09185791015625;-81.2727279663086;-22.249835968017578;2.2623748779296875;-9.258453369140625;-0.4177703857421875
1445426008789;102.45181274414062;-79.89118957519531;-22.787607192993164;2.55657958984375;-9.434967041015625;-0.5550537109375
1445426008821;103.68017578125;-77.48407745361328;-23.999542236328125;1.30133056640625;-10.31756591796875;0.01373291015625
1445426008854;104.71017456054688;-76.7578125;-24.501937866210938;1.24249267578125;-12.671173095703125;0.1510162353515625
1445426008887;106.48757934570312;-76.031494140625;-24.667964935302734;2.73309326171875;-12.847686767578125;-1.1630706787109375
1445426008920;108.36187744140625;-76.1947021484375;-24.65128517150879;2.242767333984375;-14.848251342773438;-2.0456695556640625
1445426008953;109.37017822265625;-76.70024871826172;-24.585094451904297;0.418731689453125;-15.593551635742188;-1.51611328125
1445426008986;110.14633178710938;-79.49545288085938;-23.552635192871094;1.12481689453125;-13.887191772460938;-0.868865966796875
1445426009019;109.53062438964844;-86.0201187133789;-21.981639862060547;6.8126678466796875;-10.415634155273438;0.01373291015625
1445426009052;108.56063842773438;-90.49649047851562;-21.734188079833984;8.8720703125;-10.337188720703125;1.4062652587890625
1445426009086;108.75019836425781;-99.18738555908203;-21.717151641845703;5.6947021484375;-11.21978759765625;1.44549560546875
1445426009118;109.22784423828125;-102.39607238769531;-21.3048095703125;2.0858612060546875;-13.181106567382812;-0.5942840576171875
1445426009151;106.88804626464844;-107.98251342773438;-18.939958572387695;1.9681854248046875;-12.121994018554688;-0.88848876953125
1445426009184;100.60443115234375;-112.82415771484375;-17.153789520263672;2.73309326171875;-8.3758544921875;0.386383056640625
1445426009222;92.32510375976562;-116.20657348632812;-17.5487060546875;2.929229736328125;-5.53192138671875;0.4648284912109375
1445426009251;88.74673461914062;-117.66444396972656;-18.152206420898438;3.3018798828125;-4.3747406005859375;0.1510162353515625
1445426009283;84.2071533203125;-119.24543762207031;-19.27277183532715;3.63531494140625;-4.21783447265625;0.052947998046875
1445426009316;82.72247314453125;-118.9658432006836;-19.59857749938965;3.3607330322265625;-4.649322509765625;0.327545166015625
1445426009349;80.68536376953125;-116.86883544921875;-19.57386589050293;3.2430419921875;-4.845458984375;-0.3393096923828125
1445426009382;80.63809204101562;-113.60922241210938;-19.13813591003418;4.5571441650390625;-8.120880126953125;-4.3208160400390625
1445426009417;81.07489013671875;-111.78362274169922;-19.02208137512207;4.694427490234375;-10.239120483398438;-8.282699584960938
1445426009449;81.60116577148438;-108.8055648803711;-19.206233978271484;3.7922210693359375;-12.9849853515625;-8.674972534179688
1445426009481;83.91156005859375;-109.08379364013672;-18.54222297668457;1.8701171875;-8.866195678710938;-8.263092041015625
1445426009515;82.5506591796875;-108.98143005371094;-18.68170166015625;2.1446990966796875;-6.43414306640625;-4.1835174560546875
1445426009547;78.13333129882812;-107.6956787109375;-19.34468650817871;10.264602661132812;-15.94659423828125;2.6222991943359375
1445426009580;80.89923095703125;-106.82273864746094;-18.98093032836914;7.087249755859375;-11.768951416015625;-3.202850341796875
1445426009614;84.20394897460938;-102.56903839111328;-18.099327087402344;3.556854248046875;-6.3949127197265625;1.7789306640625
1445426009647;87.94342041015625;-101.3498764038086;-17.22734832763672;1.928955078125;-5.5711517333984375;6.6430206298828125
1445426009681;90.21038818359375;-99.44147491455078;-17.791488647460938;-0.1892852783203125;-11.965087890625;-0.2608642578125
1445426009712;93.1566162109375;-96.19994354248047;-19.49795150756836;-1.0718841552734375;-14.299072265625;-1.6337890625
1445426009745;94.98309326171875;-95.59347534179688;-18.99228858947754;2.183929443359375;-10.121444702148438;0.1706390380859375
1445426009778;98.1923828125;-93.31610870361328;-16.855497360229492;3.7922210693359375;-8.042434692382812;-0.123565673828125
1445426009812;98.001708984375;-90.80860900878906;-16.709985733032227;3.046905517578125;-8.787734985351562;-0.5942840576171875
1445426009845;100.08438110351562;-89.09017944335938;-16.902488708496094;2.8311614990234375;-9.533035278320312;-0.4569854736328125
1445426009877;101.67904663085938;-88.24778747558594;-17.065441131591797;2.49774169921875;-9.513427734375;-0.1431732177734375
1445426009910;103.406982421875;-86.35430908203125;-17.51495933532715;1.556304931640625;-8.846572875976562;-0.005889892578125
1445426009944;104.16969299316406;-84.05326080322266;-18.14451026916504;1.30133056640625;-9.081939697265625;-0.1039581298828125
1445426009976;104.37310791015625;-82.693603515625;-18.608009338378906;1.7720489501953125;-9.45458984375;-0.3197021484375
1445426010009;104.80085754394531;-79.85648345947266;-19.8284912109375;2.0270233154296875;-10.14105224609375;-1.0453948974609375
1445426010042;105.38223266601562;-78.81444549560547;-20.555294036865234;1.105194091796875;-10.690231323242188;0.327545166015625
1445426010076;108.0169677734375;-78.12793731689453;-21.303668975830078;1.98779296875;-11.023651123046875;0.5236663818359375
1445426010109;109.92311096191406;-77.84266662597656;-21.460304260253906;3.831451416015625;-11.45513916015625;-1.00616455078125
1445426010141;110.88714599609375;-77.8235092163086;-21.62458038330078;2.0270233154296875;-13.61260986328125;-1.202301025390625
1445426010175;112.9820556640625;-78.22797393798828;-21.719802856445312;1.0659637451171875;-14.671722412109375;-1.143463134765625
1445426010207;114.09332275390625;-80.52093505859375;-20.719533920288086;1.18365478515625;-13.416473388671875;-1.2219085693359375
1445426010241;114.41461181640625;-82.9766616821289;-20.032255172729492;3.3999481201171875;-11.121719360351562;-1.457275390625
1445426010274;113.838134765625;-90.5050277709961;-19.711254119873047;7.9110107421875;-9.493820190429688;0.955169677734375
1445426010308;113.8238525390625;-99.06430053710938;-20.411542892456055;6.4203948974609375;-11.45513916015625;2.0338897705078125
1445426010339;114.09388732910156;-102.59026336669922;-20.538785934448242;5.1063079833984375;-12.828079223632812;0.621734619140625
1445426010375;113.45611572265625;-108.48312377929688;-19.01738739013672;2.988067626953125;-13.083053588867188;-1.7318572998046875
1445426010407;108.7138671875;-112.93263244628906;-17.559446334838867;2.183929443359375;-9.3369140625;-0.182403564453125
1445426010438;105.59237670898438;-114.67205047607422;-17.630126953125;2.2819976806640625;-4.472808837890625;0.2098541259765625
1445426010471;100.23153686523438;-117.58102416992188;-18.59683609008789;2.8311614990234375;-3.217559814453125;-0.4569854736328125
1445426010506;98.47991943359375;-118.63379669189453;-19.394794464111328;2.5369720458984375;-4.0609283447265625;-0.9669342041015625
1445426010538;96.03961181640625;-118.88172912597656;-20.700674057006836;2.32122802734375;-4.5120391845703125;-1.18267822265625
1445426010570;94.66580200195312;-116.7548828125;-20.868953704833984;3.439178466796875;-5.8261260986328125;-2.5359954833984375
1445426010605;94.46890258789062;-114.97610473632812;-20.588424682617188;4.6159820556640625;-6.7087249755859375;-3.0459442138671875
1445426010637;94.76766967773438;-111.1077651977539;-20.171178817749023;5.263214111328125;-9.68994140625;-5.7722015380859375
1445426010670;96.4560546875;-108.833740234375;-20.575281143188477;3.69415283203125;-13.985260009765625;-9.812530517578125
1445426010702;97.399658203125;-108.89450073242188;-20.517333984375;2.8507843017578125;-12.514266967773438;-9.910598754882812
1445426010736;94.7149658203125;-109.57979583740234;-21.029159545898438;1.6543731689453125;-5.3946380615234375;-3.22247314453125
1445426010768;92.06686401367188;-109.2269515991211;-21.428386688232422;8.107147216796875;-12.161224365234375;1.6808624267578125
1445426010801;91.43951416015625;-107.60395050048828;-20.97768783569336;10.323440551757812;-15.4954833984375;0.2098541259765625
1445426010834;95.21502685546875;-103.18424224853516;-19.748546600341797;7.538360595703125;-10.160659790039062;-2.634063720703125
1445426010868;95.9287109375;-102.0914077758789;-19.57460594177246;2.32122802734375;-3.9236297607421875;4.6816864013671875
1445426010900;101.34176635742188;-101.50202941894531;-19.04472541809082;1.75244140625;-6.296844482421875;5.4466094970703125
1445426010933;106.15927124023438;-98.18374633789062;-19.897886276245117;-0.895355224609375;-13.357635498046875;-0.4373779296875
1445426010967;107.63278198242188;-96.63992309570312;-19.537649154663086;0.7325439453125;-12.004318237304688;-0.0451202392578125
1445426011000;110.87141418457031;-94.50794219970703;-17.51597785949707;3.1253662109375;-9.258453369140625;-0.123565673828125
1445426011032;111.39576721191406;-92.05889129638672;-17.30479621887207;3.9098968505859375;-8.454315185546875;-0.4962158203125
1445426011066;111.19482421875;-91.29576873779297;-17.340517044067383;3.1449737548828125;-8.983871459960938;-0.2216339111328125
1445426011098;113.06723022460938;-89.77880096435547;-17.23681640625;3.3411102294921875;-9.042709350585938;0.386383056640625
1445426011131;114.07626342773438;-88.91302490234375;-17.31810760498047;2.38006591796875;-9.023101806640625;0.1510162353515625
1445426011164;115.84677124023438;-87.16609191894531;-17.80800437927246;1.9485626220703125;-9.140777587890625;-0.123565673828125
1445426011198;117.98989868164062;-85.066650390625;-18.47998809814453;1.5955352783203125;-9.709564208984375;-1.261138916015625
1445426011230;119.12197875976562;-83.86666870117188;-18.829774856567383;0.869842529296875;-9.925308227539062;-2.1045074462890625
1445426011263;121.786376953125;-82.15253448486328;-19.375656127929688;0.3206634521484375;-9.748779296875;-1.96722412109375
1445426011296;125.94232177734375;-82.38904571533203;-19.491437911987305;-0.228515625;-10.180282592773438;-0.9669342041015625
1445426011331;128.04222106933594;-82.93515014648438;-19.083816528320312;2.4585113525390625;-11.670883178710938;-1.0257720947265625
1445426011363;130.83030700683594;-84.61564636230469;-18.08522605895996;5.5770263671875;-15.024765014648438;-2.4771575927734375
1445426011395;134.0530242919922;-88.7576675415039;-17.243745803833008;4.6159820556640625;-15.417037963867188;-5.360321044921875
1445426011432;136.2332000732422;-93.13020324707031;-17.022571563720703;11.970962524414062;-16.633056640625;-1.3592071533203125
1445426011461;138.1639862060547;-104.76690673828125;-17.951704025268555;14.049972534179688;-16.025039672851562;0.4844512939453125
1445426011495;139.9468231201172;-114.54594421386719;-18.793212890625;2.38006591796875;-12.965362548828125;-2.02606201171875
1445426011527;139.83372497558594;-119.40801239013672;-18.852624893188477;1.5759124755859375;-11.670883178710938;-1.084625244140625
1445426011561;135.8537139892578;-128.31947326660156;-21.554798126220703;2.5958099365234375;-5.551544189453125;-0.123565673828125
1445426011593;133.72760009765625;-132.93650817871094;-24.550769805908203;2.7723236083984375;-2.1192169189453125;-1.9083709716796875
1445426011626;132.25540161132812;-142.0394287109375;-31.119340896606445;3.3018798828125;-1.8446197509765625;-2.6732940673828125
1445426011660;133.5069580078125;-148.42636108398438;-34.695770263671875;4.6551971435546875;-1.1189422607421875;-3.39898681640625
1445426011697;135.6320343017578;-152.23167419433594;-35.47633743286133;5.1063079833984375;-1.1581573486328125;-4.105072021484375
1445426011728;136.7251434326172;-153.0762176513672;-35.40073776245117;4.7924957275390625;-1.5504302978515625;-4.791534423828125
1445426011758;138.3022003173828;-153.611572265625;-35.607765197753906;4.7336578369140625;-2.138824462890625;-5.7525787353515625
1445426011795;138.97451782226562;-153.78512573242188;-35.5736198425293;5.3024444580078125;-1.1973876953125;-6.5959625244140625
1445426011825;140.637451171875;-154.1083526611328;-35.1840934753418;5.5770263671875;-1.6681060791015625;-6.8313140869140625
1445426011859;142.3231201171875;-153.8751983642578;-34.90364074707031;6.1262054443359375;-4.472808837890625;-8.498443603515625
1445426011893;142.7971954345703;-153.66421508789062;-35.20486068725586;8.205215454101562;-4.531646728515625;-9.518341064453125
1445426011925;142.2409210205078;-153.28909301757812;-35.8231315612793;8.224822998046875;-4.04132080078125;-6.7724761962890625
1445426011956;141.7747039794922;-152.70516967773438;-35.71532440185547;8.0286865234375;-3.4921417236328125;-6.3998260498046875
1445426011989;141.03955078125;-150.11407470703125;-34.83980178833008;7.6756439208984375;-4.2374420166015625;-5.6349029541015625
1445426012022;141.21994018554688;-145.9349365234375;-31.89702033996582;7.3814544677734375;-6.3360748291015625;-5.2622528076171875
1445426012055;141.9879608154297;-143.45643615722656;-30.33553695678711;6.26348876953125;-6.7087249755859375;-3.3205413818359375
1445426012089;145.8842010498047;-138.67056274414062;-26.65242576599121;6.1850433349609375;-7.0225372314453125;-2.9871063232421875
1445426012122;152.9693145751953;-133.75564575195312;-21.985076904296875;3.92950439453125;-8.238555908203125;-2.908660888671875
1445426012155;157.02935791015625;-130.95382690429688;-19.28555679321289;3.0076904296875;-9.356521606445312;-3.1832427978515625
1445426012188;157.02935791015625;-130.95382690429688;-19.28555679321289;1.928955078125;-10.356796264648438;-3.3205413818359375
1445426012220;157.02935791015625;-130.95382690429688;-19.28555679321289;1.928955078125;-10.356796264648438;-3.3205413818359375
1445426012254;177.92599487304688;-115.60800170898438;-14.289633750915527;-0.405029296875;-15.6131591796875;-2.8105926513671875
1445426012286;177.92599487304688;-115.60800170898438;-14.289633750915527;-0.405029296875;-15.6131591796875;-2.8105926513671875
1445426012320;183.83477783203125;-104.67096710205078;-15.804032325744629;1.556304931640625;-19.280853271484375;-0.810028076171875
1445426012352;185.12109375;-100.14237976074219;-15.493643760681152;3.1842041015625;-16.103500366210938;-3.51666259765625
1445426012386;185.5438232421875;-95.90670013427734;-15.894591331481934;4.5571441650390625;-13.259567260742188;-5.0661163330078125
1445426012421;186.3182373046875;-88.5469741821289;-19.246496200561523;-0.3069610595703125;-4.7670135498046875;-8.106185913085938
1445426012457;190.0455322265625;-89.81697082519531;-20.507556915283203;-2.5821075439453125;-2.8645172119140625;-7.2039642333984375
1445426012500;197.8583984375;-94.42276000976562;-20.944732666015625;0.0068511962890625;-3.19793701171875;0.621734619140625
1445426012520;200.7674560546875;-95.31926727294922;-21.098154067993164;2.635040283203125;-4.04132080078125;3.465667724609375
1445426012551;200.93267822265625;-96.6100845336914;-21.8552188873291;6.910736083984375;-13.122268676757812;4.3874969482421875
1445426012583;201.312744140625;-97.21003723144531;-22.08316421508789;5.3416748046875;-11.965087890625;3.95599365234375
1445426012616;202.52569580078125;-96.84771728515625;-22.147991180419922;5.4201202392578125;-11.121719360351562;3.0537872314453125
1445426012650;202.17120361328125;-96.29421997070312;-22.08586311340332;7.0088043212890625;-9.00347900390625;1.7985382080078125
1445426012683;201.4886474609375;-95.35647583007812;-22.178382873535156;4.498291015625;-7.1402130126953125;1.9162139892578125
1445426012715;199.9178466796875;-92.98560333251953;-22.948015213012695;3.2822723388671875;-6.2772369384765625;1.50433349609375
1445426012748;198.73150634765625;-90.98780059814453;-23.71018409729004;2.929229736328125;-4.78662109375;0.8374786376953125
1445426012781;198.480224609375;-89.95195770263672;-24.005210876464844;3.5372467041015625;-5.3750152587890625;1.8377685546875
1445426012814;198.63800048828125;-87.49052429199219;-24.577404022216797;3.9098968505859375;-6.0026397705078125;2.1711883544921875
1445426012848;198.8927001953125;-84.96206665039062;-25.12836456298828;4.32177734375;-7.63055419921875;2.955718994140625
1445426012880;199.1484375;-83.91336059570312;-25.336566925048828;4.3413848876953125;-8.120880126953125;2.896881103515625
1445426012913;199.48858642578125;-82.30101013183594;-25.40554428100586;4.1648712158203125;-7.4736480712890625;2.269256591796875
1445426012946;199.4853515625;-81.63573455810547;-25.377614974975586;4.3021697998046875;-7.434417724609375;2.1907958984375
1445426012978;200.41046142578125;-80.71672058105469;-25.361347198486328;4.9101715087890625;-7.9639739990234375;2.52423095703125
1445426013012;201.78814697265625;-79.82054901123047;-25.270084381103516;4.0864105224609375;-9.199615478515625;2.58306884765625
1445426013045;202.27337646484375;-79.15288543701172;-25.112632751464844;3.3607330322265625;-9.023101806640625;2.8184356689453125
1445426013078;202.943115234375;-79.0832748413086;-24.974836349487305;4.5571441650390625;-9.00347900390625;2.8576507568359375
1445426013111;204.16961669921875;-79.11639404296875;-24.680604934692383;4.7336578369140625;-8.2581787109375;2.779205322265625
1445426013145;204.78369140625;-79.12702941894531;-24.594614028930664;4.0275726318359375;-7.9051361083984375;2.9361114501953125
1445426013177;206.33984375;-78.82300567626953;-24.6742000579834;3.831451416015625;-8.2581787109375;2.9949493408203125
1445426013211;207.11181640625;-78.85124206542969;-24.752235412597656;3.7137603759765625;-8.532760620117188;2.75958251953125
1445426013252;209.239990234375;-79.42778015136719;-24.564374923706055;2.61541748046875;-7.6501617431640625;2.2300262451171875
1445426013276;212.0465087890625;-80.14358520507812;-23.817787170410156;2.419281005859375;-7.0813751220703125;1.9554443359375
1445426013309;213.158935546875;-80.3542251586914;-23.347949981689453;1.9681854248046875;-6.7087249755859375;1.7985382080078125
1445426013343;215.45645141601562;-81.20902252197266;-22.30244255065918;1.791656494140625;-6.55181884765625;1.32781982421875
1445426013375;217.67950439453125;-82.67139434814453;-21.04042625427246;1.47784423828125;-7.826690673828125;-0.692352294921875
1445426013409;218.79327392578125;-83.72267150878906;-20.366579055786133;2.360443115234375;-9.415359497070312;4.838592529296875
1445426013441;221.18545532226562;-86.6677474975586;-18.940160751342773;5.5574188232421875;-12.063156127929688;-0.515838623046875
1445426013478;223.82131958007812;-89.72651672363281;-17.9521427154541;5.4985809326171875;-15.6719970703125;1.8377685546875
1445426013508;225.63958740234375;-91.2863540649414;-17.155227661132812;1.9681854248046875;-16.613449096679688;-0.005889892578125
1445426013540;228.48260498046875;-93.75483703613281;-15.926199913024902;2.7919464111328125;-17.8883056640625;-0.4177703857421875
1445426013574;229.59991455078125;-95.00518035888672;-15.453950881958008;2.5369720458984375;-19.751571655273438;-3.8697052001953125
1445426013610;230.615234375;-96.24813842773438;-15.30416488647461;1.497467041015625;-9.768402099609375;1.32781982421875
1445426013640;231.13104248046875;-97.46340942382812;-15.67864990234375;0.6148681640625;-8.218948364257812;-0.4177703857421875
1445426013672;231.45074462890625;-97.0092544555664;-16.348251342773438;1.47784423828125;-7.493255615234375;-1.9083709716796875
1445426013705;231.0435791015625;-96.80241394042969;-16.863252639770508;1.41900634765625;-6.61065673828125;-2.575225830078125
1445426013738;230.43121337890625;-97.43665313720703;-18.34227752685547;1.0659637451171875;-7.1009979248046875;-3.9285430908203125
1445426013770;230.78466796875;-98.00740051269531;-19.336631774902344;0.6344757080078125;-10.160659790039062;-3.7324066162109375
1445426013804;231.03076171875;-99.54220581054688;-21.433958053588867;0.7129364013671875;-10.7098388671875;-4.222747802734375
1445426013837;228.977783203125;-101.15138244628906;-23.4523983001709;0.5756378173828125;-10.690231323242188;-3.712799072265625
1445426013870;228.06683349609375;-101.68704986572266;-24.348909378051758;-1.3268585205078125;-11.239395141601562;-2.281036376953125
1445426013903;223.79107666015625;-101.0938491821289;-26.937904357910156;-1.797576904296875;-11.533599853515625;-1.9868316650390625
1445426013936;215.54168701171875;-99.68567657470703;-29.61573028564453;-0.150054931640625;-10.31756591796875;-1.4768829345703125
1445426013970;210.483154296875;-98.67500305175781;-30.678184509277344;1.850494384765625;-9.415359497070312;-0.868865966796875
1445426014003;201.1058349609375;-96.61068725585938;-32.28010177612305;2.6546478271484375;-9.670333862304688;-0.4177703857421875
1445426014035;193.1829833984375;-95.09252166748047;-33.205928802490234;5.3416748046875;-7.9835968017578125;-0.4766082763671875
1445426014069;190.17266845703125;-94.64755249023438;-33.64592361450195;5.3024444580078125;-8.3170166015625;-1.829925537109375
1445426014101;186.64678955078125;-93.70668029785156;-34.946685791015625;5.3024444580078125;-9.238845825195312;-2.02606201171875
1445426014135;185.57373046875;-93.65885162353516;-35.235443115234375;6.4988555908203125;-9.00347900390625;-2.8694305419921875
1445426014169;183.75933837890625;-94.97599029541016;-34.510162353515625;9.362396240234375;-10.631378173828125;-4.0658416748046875
1445426014200;182.568359375;-97.84172058105469;-32.88724136352539;10.166534423828125;-12.004318237304688;-4.6934661865234375
1445426014233;181.13330078125;-98.66223907470703;-32.28792190551758;5.890838623046875;-9.06231689453125;-2.2221832275390625
1445426014266;175.9258575439453;-100.29991149902344;-31.683740615844727;2.7134857177734375;-7.2186737060546875;-0.633514404296875
1445426014299;173.39369201660156;-104.27947235107422;-29.945419311523438;2.5958099365234375;-5.7476806640625;2.092742919921875
1445426014332;172.4156036376953;-105.16680145263672;-28.612802505493164;5.4789581298828125;-6.1987762451171875;1.014007568359375
1445426014365;167.18568420410156;-105.02095031738281;-26.88286590576172;5.9889068603515625;-9.199615478515625;-2.37908935546875
1445426014398;164.02023315429688;-106.98406982421875;-24.063018798828125;4.9101715087890625;-9.729171752929688;-2.20257568359375
1445426014432;162.71224975585938;-107.71421813964844;-22.376447677612305;5.1651458740234375;-9.552658081054688;-1.437652587890625
1445426014465;160.0387420654297;-109.05244445800781;-19.537221908569336;4.9297943115234375;-9.376129150390625;-1.6533966064453125
1445426014497;156.54547119140625;-110.33375549316406;-18.51717185974121;4.2825469970703125;-8.709274291992188;-1.7906951904296875
1445426014530;154.36529541015625;-110.69026184082031;-18.611270904541016;3.9687347412109375;-6.806793212890625;-2.398712158203125
1445426014564;150.12913513183594;-110.97177124023438;-19.817758560180664;3.7922210693359375;-6.5322113037109375;-2.6732940673828125
1445426014596;146.61781311035156;-111.14425659179688;-21.475297927856445;3.498016357421875;-7.0813751220703125;-2.9478759765625
1445426014629;145.3913116455078;-111.22562408447266;-22.163501739501953;4.007965087890625;-7.257904052734375;-3.1244049072265625
1445426014663;144.36822509765625;-111.52407836914062;-23.039112091064453;5.7339324951171875;-7.23828125;-2.7909698486328125
1445426014698;144.32852172851562;-112.13431549072266;-24.000417709350586;6.4988555908203125;-6.983306884765625;-3.1244049072265625
1445426014728;144.6389923095703;-112.38014221191406;-24.5438175201416;4.635589599609375;-6.55181884765625;-2.8694305419921875
1445426014763;145.16030883789062;-112.29840087890625;-25.153827667236328;3.9883575439453125;-6.414520263671875;-3.026336669921875
1445426014794;145.4473876953125;-111.6596908569336;-25.00359535217285;5.2239837646484375;-9.45458984375;-3.57550048828125
1445426014827;146.06427001953125;-108.78437805175781;-24.112276077270508;7.22454833984375;-11.965087890625;-4.41888427734375
1445426014860;148.39065551757812;-104.92235565185547;-22.682985305786133;8.774002075195312;-15.730850219726562;-4.5169525146484375
1445426014893;150.82269287109375;-103.5725326538086;-21.731491088867188;8.067916870117188;-12.396575927734375;-5.7525787353515625
1445426014926;153.92906188964844;-102.15776062011719;-20.410337448120117;2.693878173828125;-4.55126953125;1.0532379150390625
1445426014959;157.7939910888672;-100.91071319580078;-19.110754013061523;3.6549224853515625;-7.2186737060546875;4.3286590576171875
1445426014995;159.4644012451172;-98.78789520263672;-18.7038516998291;2.988067626953125;-9.670333862304688;2.3084869384765625
1445426015026;162.476806640625;-94.75389099121094;-17.902137756347656;1.2032623291015625;-10.6510009765625;1.818145751953125
1445426015058;164.99588012695312;-93.64848327636719;-16.996917724609375;2.242767333984375;-9.670333862304688;1.6024017333984375
1445426015091;171.0855712890625;-91.40568542480469;-15.744458198547363;2.4585113525390625;-10.572540283203125;0.36676025390625
1445426015125;175.74497985839844;-89.53937530517578;-15.612613677978516;1.732818603515625;-10.02337646484375;0.4059906005859375
1445426015158;177.6198272705078;-88.61921691894531;-15.208139419555664;1.811279296875;-9.199615478515625;0.81787109375
1445426015191;179.93406677246094;-86.59510803222656;-14.567915916442871;1.8308868408203125;-9.670333862304688;0.5432891845703125
1445426015226;181.69647216796875;-84.76846313476562;-14.059564590454102;2.5369720458984375;-9.297683715820312;0.2686920166015625
1445426015256;182.7989501953125;-83.90464782714844;-13.96640396118164;1.8701171875;-8.925033569335938;0.1706390380859375
1445426015291;184.411376953125;-81.95793914794922;-14.49722671508789;1.438629150390625;-9.00347900390625;0.3471527099609375
1445426015323;185.80438232421875;-79.62791442871094;-15.726262092590332;1.2032623291015625;-9.631103515625;0.07257080078125
1445426015356;186.31756591796875;-78.31158447265625;-16.44922637939453;1.2621002197265625;-10.552932739257812;-0.3589324951171875
1445426015390;187.2557373046875;-75.92462921142578;-17.805498123168945;0.6737060546875;-10.6510009765625;0.1706390380859375
1445426015422;189.65020751953125;-75.28986358642578;-18.489274978637695;3.5372467041015625;-10.984420776367188;0.7001953125
1445426015454;190.46142578125;-75.20462036132812;-18.760866165161133;5.2828216552734375;-11.239395141601562;-0.0254974365234375
1445426015486;191.40704345703125;-74.9688720703125;-19.639497756958008;3.7333831787109375;-13.475311279296875;-0.6531219482421875
1445426015532;192.91876220703125;-75.52110290527344;-20.252010345458984;1.046356201171875;-15.10321044921875;-0.751190185546875
1445426015554;193.271240234375;-76.54949951171875;-20.156999588012695;1.0267486572265625;-14.220611572265625;-0.5942840576171875
1445426015588;193.5264892578125;-81.60511016845703;-19.67213249206543;4.812103271484375;-9.90570068359375;-1.2219085693359375
1445426015619;193.40899658203125;-85.64806365966797;-19.80695343017578;6.7734375;-8.748504638671875;0.327545166015625
1445426015652;194.26007080078125;-94.63034057617188;-20.682525634765625;7.0676422119140625;-9.278060913085938;2.8184356689453125
1445426015686;194.8310546875;-98.29216766357422;-21.1125545501709;5.4005126953125;-13.828353881835938;-0.3393096923828125
1445426015719;195.824462890625;-103.6251449584961;-20.62911033630371;4.32177734375;-14.789398193359375;-0.7315826416015625
1445426015751;195.104736328125;-109.0898208618164;-19.024398803710938;2.988067626953125;-10.807907104492188;0.052947998046875
1445426015784;193.73162841796875;-111.63957214355469;-18.985271453857422;1.8897247314453125;-7.5913238525390625;0.3471527099609375
1445426015817;189.40399169921875;-116.08025360107422;-20.212444305419922;2.73309326171875;-3.5313720703125;0.3471527099609375
1445426015851;186.03546142578125;-119.14009094238281;-22.038593292236328;2.9096221923828125;-3.3548583984375;0.2686920166015625
1445426015883;185.0245361328125;-119.70391082763672;-22.78953742980957;2.635040283203125;-3.727508544921875;-0.0451202392578125
1445426015917;183.9573974609375;-119.07218170166016;-23.48181915283203;3.0665283203125;-5.1200408935546875;-1.6337890625
1445426015950;183.18505859375;-116.43130493164062;-23.298036575317383;4.7924957275390625;-6.865631103515625;-3.595123291015625
1445426015983;182.84619140625;-114.86614227294922;-23.181421279907227;4.9101715087890625;-8.297409057617188;-4.791534423828125
1445426016015;182.39532470703125;-112.57335662841797;-23.6802921295166;4.0864105224609375;-10.552932739257812;-8.321929931640625
1445426016049;182.990234375;-112.28903198242188;-23.565631866455078;3.5372467041015625;-10.494094848632812;-9.126068115234375
1445426016081;181.52117919921875;-112.01737213134766;-23.736934661865234;3.6549224853515625;-7.92474365234375;-6.7136383056640625
1445426016114;176.95458984375;-110.5057144165039;-24.727975845336914;9.538909912109375;-12.53387451171875;2.3477020263671875
1445426016147;179.9322509765625;-108.6504898071289;-23.610322952270508;9.754653930664062;-11.925857543945312;-1.771087646484375
1445426016181;180.00677490234375;-106.01727294921875;-23.542301177978516;5.204376220703125;-7.885528564453125;0.052947998046875
1445426016214;181.9437255859375;-102.67404174804688;-23.165435791015625;1.36016845703125;-5.7084503173828125;5.289703369140625
1445426016246;185.09759521484375;-100.89164733886719;-23.013059616088867;0.5560302734375;-9.96453857421875;0.5432891845703125
1445426016281;190.20086669921875;-97.21029663085938;-23.55440902709961;0.1245269775390625;-12.514266967773438;-2.14373779296875
1445426016313;194.62939453125;-95.85783386230469;-21.685461044311523;1.41900634765625;-11.10211181640625;0.5432891845703125
1445426016347;196.56219482421875;-94.92240905761719;-20.299686431884766;5.204376220703125;-7.23828125;0.9159393310546875
1445426016378;195.92822265625;-91.5806655883789;-19.73794174194336;4.7336578369140625;-7.74822998046875;0.58251953125
1445426016411;194.50439453125;-89.37755584716797;-20.02140998840332;3.1057586669921875;-8.983871459960938;-0.2608642578125
1445426016448;195.4033203125;-88.56712341308594;-19.973379135131836;2.870391845703125;-9.395751953125;0.36676025390625
1445426016477;197.236328125;-86.45454406738281;-19.797813415527344;2.6546478271484375;-9.081939697265625;0.5432891845703125
1445426016510;197.7685546875;-84.143310546875;-20.02958869934082;2.5173492431640625;-8.670059204101562;0.7198028564453125
1445426016543;197.744873046875;-82.90115356445312;-20.306936264038086;2.61541748046875;-8.650436401367188;0.504058837890625
1445426016576;197.3966064453125;-80.13970184326172;-21.137727737426758;2.752716064453125;-9.258453369140625;0.36676025390625
1445426016613;197.815185546875;-77.43614196777344;-22.30518913269043;1.928955078125;-10.552932739257812;0.2294769287109375
1445426016642;198.62762451171875;-76.61598205566406;-22.736051559448242;1.8701171875;-11.180557250976562;0.2294769287109375
1445426016677;200.73876953125;-76.29790496826172;-23.068634033203125;2.8507843017578125;-11.27862548828125;-0.2216339111328125
1445426016710;201.12310791015625;-76.42110443115234;-23.20638656616211;3.63531494140625;-12.161224365234375;-0.6138916015625
1445426016742;201.8380126953125;-76.76231384277344;-23.8250675201416;2.1446990966796875;-13.61260986328125;-0.064727783203125
1445426016776;202.41387939453125;-77.87911987304688;-23.329071044921875;0.2618255615234375;-16.00543212890625;0.19024658203125
1445426016808;202.29742431640625;-79.62577056884766;-22.690338134765625;3.81182861328125;-11.45513916015625;-0.3589324951171875
1445426016842;201.28759765625;-86.36286163330078;-22.136962890625;6.8715057373046875;-9.45458984375;0.01373291015625
1445426016875;200.6358642578125;-95.04483032226562;-22.78289794921875;5.4593505859375;-10.003753662109375;2.2300262451171875
1445426016916;203.61724853515625;-101.68750762939453;-22.94964027404785;3.0665283203125;-13.73028564453125;0.2098541259765625
1445426016939;203.8912353515625;-104.03152465820312;-22.432422637939453;2.43890380859375;-13.592987060546875;-0.4766082763671875
1445426016971;203.2569580078125;-106.58850860595703;-21.329410552978516;2.7723236083984375;-10.02337646484375;0.680572509765625
1445426017005;200.06591796875;-111.15299987792969;-19.56163787841797;2.55657958984375;-8.5523681640625;0.759033203125
1445426017038;194.3404541015625;-115.22769927978516;-19.60983657836914;2.3408355712890625;-5.551544189453125;-0.241241455078125
1445426017072;191.31927490234375;-117.14521789550781;-19.988239288330078;2.7919464111328125;-4.33551025390625;0.2883148193359375
1445426017104;186.4732666015625;-118.75739288330078;-20.93326187133789;2.73309326171875;-4.8062286376953125;0.445220947265625
1445426017137;182.9573974609375;-117.79534149169922;-21.494827270507812;3.498016357421875;-5.4338531494140625;0.19024658203125
1445426017170;181.299072265625;-116.59019470214844;-21.57279396057129;4.5963592529296875;-6.5322113037109375;-1.3395843505859375
1445426017203;178.8464813232422;-113.69898986816406;-21.455669403076172;5.12591552734375;-7.8462982177734375;-2.8302001953125
1445426017236;177.8022918701172;-111.17156982421875;-21.765487670898438;4.9690093994140625;-9.650726318359375;-6.2036895751953125
1445426017270;177.2050323486328;-110.64813232421875;-22.264280319213867;3.439178466796875;-9.474197387695312;-7.066680908203125
1445426017303;177.490966796875;-111.29536437988281;-22.31837272644043;1.928955078125;-10.788284301757812;-6.81170654296875
1445426017335;178.35067749023438;-111.41890716552734;-21.691055297851562;1.4582366943359375;-9.788009643554688;-7.5570068359375
1445426017368;175.45033264160156;-110.23060607910156;-21.538223266601562;4.753265380859375;-9.96453857421875;-1.8495330810546875
1445426017401;174.36021423339844;-107.9476547241211;-21.372737884521484;10.460739135742188;-14.240234375;-0.3393096923828125
1445426017434;175.07296752929688;-105.70613861083984;-21.070133209228516;6.0673675537109375;-8.062042236328125;-1.3003692626953125
1445426017467;174.84686279296875;-102.6458740234375;-21.158599853515625;3.5372467041015625;-4.5708770751953125;2.2300262451171875
1445426017500;179.1766815185547;-100.7319107055664;-21.387033462524414;1.556304931640625;-7.74822998046875;4.779754638671875
1445426017533;181.39398193359375;-99.00138092041016;-21.95431900024414;0.5560302734375;-10.08221435546875;2.1319580078125
1445426017568;183.70977783203125;-95.77029418945312;-21.275283813476562;0.301055908203125;-12.121994018554688;0.36676025390625
1445426017599;185.3428955078125;-93.19497680664062;-19.643207550048828;4.380615234375;-8.88580322265625;0.955169677734375
1445426017633;184.67138671875;-91.74536895751953;-19.433263778686523;5.5181884765625;-8.297409057617188;0.4256134033203125
1445426017665;183.25164794921875;-90.05095672607422;-19.365360260009766;4.3021697998046875;-8.3170166015625;0.2883148193359375
1445426017698;185.503173828125;-88.66949462890625;-19.20948028564453;3.3018798828125;-9.140777587890625;0.8571014404296875
1445426017731;186.43890380859375;-87.79767608642578;-19.166149139404297;3.0272979736328125;-9.238845825195312;0.935546875
1445426017764;187.5472412109375;-85.753173828125;-19.227201461791992;2.5369720458984375;-8.866195678710938;0.81787109375
1445426017798;187.96234130859375;-84.65003967285156;-19.35424041748047;2.3408355712890625;-8.787734985351562;0.4059906005859375
1445426017831;188.1368408203125;-82.10392761230469;-19.939992904663086;2.6546478271484375;-8.905410766601562;0.1706390380859375
1445426017863;188.0577392578125;-79.38468170166016;-21.074003219604492;2.693878173828125;-10.062606811523438;-0.77081298828125
1445426017899;188.2689208984375;-78.22241973876953;-21.63811492919922;1.0659637451171875;-10.611770629882812;-0.0451202392578125
1445426017929;190.40576171875;-77.21772003173828;-22.391042709350586;1.1444244384765625;-11.180557250976562;0.896331787109375
1445426017963;191.5750732421875;-76.9839096069336;-22.3897762298584;4.5571441650390625;-12.749618530273438;-0.300079345703125
1445426017997;191.77587890625;-76.90414428710938;-22.4521427154541;2.870391845703125;-13.475311279296875;-0.1431732177734375
1445426018029;192.5552978515625;-77.42696380615234;-22.590557098388672;1.0071258544921875;-15.240509033203125;-0.574676513671875
1445426018061;192.4691162109375;-80.3317642211914;-21.794599533081055;3.615692138671875;-11.592437744140625;-1.084625244140625
1445426018094;191.97161865234375;-82.97258758544922;-21.37871742248535;5.949676513671875;-9.12115478515625;-0.7904205322265625
1445426018127;190.62451171875;-90.61992645263672;-21.58997344970703;6.5380859375;-8.101272583007812;1.7985382080078125
1445426018161;191.09228515625;-95.18114471435547;-21.985097885131836;5.5181884765625;-10.180282592773438;2.328094482421875
1445426018193;193.537109375;-102.07328033447266;-21.867202758789062;3.7333831787109375;-14.161773681640625;1.014007568359375
1445426018227;193.583251953125;-104.56542205810547;-20.851572036743164;2.73309326171875;-14.436370849609375;-0.300079345703125
1445426018259;191.61053466796875;-109.6002426147461;-17.798294067382812;2.67425537109375;-10.7098388671875;0.19024658203125
1445426018292;186.29937744140625;-114.29093170166016;-16.977197647094727;2.8507843017578125;-7.434417724609375;-0.005889892578125
1445426018325;183.09014892578125;-116.729248046875;-17.399805068969727;3.51763916015625;-4.355133056640625;-0.182403564453125
1445426018359;177.57518005371094;-120.07643127441406;-18.568065643310547;3.5372467041015625;-3.6882781982421875;0.30792236328125
1445426018391;173.6542510986328;-120.48834228515625;-19.75969123840332;3.321502685546875;-3.6490478515625;0.36676025390625
1445426018424;171.34658813476562;-119.1465072631836;-20.237756729125977;3.6549224853515625;-4.355133056640625;-0.123565673828125
1445426018457;170.62852478027344;-117.76936340332031;-20.158382415771484;4.066802978515625;-4.7081756591796875;-0.88848876953125
1445426018493;170.3910369873047;-114.28437042236328;-19.857568740844727;4.89056396484375;-8.062042236328125;-4.0658416748046875
1445426018525;170.4938507080078;-112.40120697021484;-20.08193588256836;4.4198455810546875;-10.631378173828125;-7.2235870361328125
1445426018557;170.79139709472656;-111.08908081054688;-20.375783920288086;2.10546875;-14.142166137695312;-9.812530517578125
1445426018592;171.83888244628906;-111.2603988647461;-19.179719924926758;2.0074005126953125;-9.101547241210938;-6.3998260498046875
1445426018623;169.75320434570312;-110.92216491699219;-19.70990753173828;9.85272216796875;-14.75018310546875;2.269256591796875
1445426018655;169.8071746826172;-108.50798034667969;-19.919536590576172;11.284500122070312;-14.554046630859375;-1.2807464599609375
1445426018688;169.47750854492188;-106.05077362060547;-19.770540237426758;7.8325653076171875;-10.925582885742188;-2.8302001953125
1445426018724;169.58566284179688;-103.06265258789062;-18.678834915161133;2.929229736328125;-5.159271240234375;4.2305908203125
1445426018754;175.5451202392578;-99.97843933105469;-18.117908477783203;2.2623748779296875;-7.3363494873046875;2.52423095703125
1445426018787;177.70571899414062;-98.24320220947266;-18.517305374145508;0.2029876708984375;-12.749618530273438;-0.692352294921875
1445426018820;181.39105224609375;-96.2160873413086;-17.328662872314453;0.34027099609375;-12.141616821289062;2.092742919921875
1445426018854;183.49658203125;-92.94783020019531;-15.832633972167969;4.0864105224609375;-8.356246948242188;2.3673248291015625
1445426018886;182.6995849609375;-91.3324203491211;-15.888526916503906;4.3413848876953125;-8.336624145507812;1.6612396240234375
1445426018919;182.9337158203125;-89.53822326660156;-16.163358688354492;4.439453125;-8.983871459960938;0.7001953125
1445426018952;186.0443115234375;-87.72770690917969;-16.41734504699707;3.4587860107421875;-9.650726318359375;0.386383056640625
1445426018985;187.531494140625;-86.82721710205078;-16.454605102539062;2.49774169921875;-9.68994140625;-0.005889892578125
1445426019019;189.9559326171875;-84.91525268554688;-16.5058650970459;1.105194091796875;-9.101547241210938;-0.064727783203125
1445426019054;190.6488037109375;-82.52979278564453;-16.958730697631836;0.987518310546875;-9.827239990234375;-0.8492584228515625
1445426019091;190.3291015625;-79.79566192626953;-17.92572021484375;0.7129364013671875;-10.121444702148438;-1.810302734375
1445426019117;190.43084716796875;-78.55743408203125;-18.59249496459961;-0.3069610595703125;-11.082489013671875;-0.751190185546875
1445426019151;190.79736328125;-77.71744537353516;-19.39798927307129;-0.3657989501953125;-11.651275634765625;0.327545166015625
1445426019191;191.13470458984375;-77.24532318115234;-19.924304962158203;5.655487060546875;-11.886642456054688;-1.2807464599609375
1445426019216;190.47393798828125;-77.18473052978516;-19.738101959228516;6.20465087890625;-13.004592895507812;-1.7906951904296875
1445426019249;189.90240478515625;-77.72367095947266;-20.070920944213867;1.046356201171875;-15.711227416992188;-0.123565673828125
1445426019282;190.1900634765625;-80.73657989501953;-19.47627830505371;3.0272979736328125;-14.201004028320312;-0.4177703857421875
1445426019316;189.42822265625;-87.61002349853516;-18.058631896972656;9.49969482421875;-9.572265625;1.6024017333984375
1445426019350;189.11077880859375;-92.19293212890625;-18.168081283569336;8.65631103515625;-9.513427734375;3.3087615966796875
1445426019381;189.3873291015625;-101.2677993774414;-19.71267318725586;6.577301025390625;-10.8275146484375;1.6220245361328125
1445426019415;189.9647216796875;-104.70838928222656;-20.62004280090332;2.870391845703125;-12.965362548828125;-1.7318572998046875
1445426019449;190.84423828125;-111.96349334716797;-20.54680824279785;2.7134857177734375;-8.807342529296875;0.4059906005859375
1445426019480;188.52001953125;-117.86414337158203;-20.215436935424805;2.9488525390625;-6.414520263671875;0.994384765625
1445426019514;184.67132568359375;-122.3041000366211;-21.750009536743164;2.8507843017578125;-3.2960052490234375;0.6609649658203125
1445426019546;183.03704833984375;-124.08589935302734;-22.901046752929688;3.0665283203125;-2.589935302734375;0.19024658203125
1445426019579;180.79150390625;-125.02688598632812;-24.8184871673584;3.3607330322265625;-3.786346435546875;-0.574676513671875
1445426019612;178.93133544921875;-122.7418441772461;-25.629846572875977;3.2430419921875;-4.7670135498046875;-1.202301025390625
1445426019648;178.2604522705078;-120.95864868164062;-25.406536102294922;4.1060333251953125;-5.3161773681640625;-2.2418060302734375
1445426019678;177.77197265625;-116.40380096435547;-24.4949893951416;6.596923828125;-8.787734985351562;-4.5757904052734375
1445426019711;177.75894165039062;-114.34397888183594;-24.31568717956543;7.0676422119140625;-10.5921630859375;-6.360595703125
1445426019744;177.89559936523438;-112.90205383300781;-24.21920394897461;5.145538330078125;-11.004043579101562;-8.694580078125
1445426019777;177.17330932617188;-113.28353881835938;-23.96120834350586;3.57647705078125;-7.0225372314453125;-6.3017578125
1445426019810;175.07118225097656;-112.91434478759766;-24.474990844726562;7.028411865234375;-10.788284301757812;-1.437652587890625
1445426019844;173.71871948242188;-111.44168090820312;-25.04996109008789;9.813507080078125;-14.514816284179688;0.30792236328125
1445426019876;172.65895080566406;-106.93834686279297;-24.938440322875977;8.558242797851562;-9.866470336914062;-2.8890380859375
1445426019910;171.82322692871094;-105.70831298828125;-24.906545639038086;2.635040283203125;-4.04132080078125;5.3681640625
1445426019943;176.16015625;-104.49175262451172;-23.27262306213379;3.1057586669921875;-4.963134765625;6.603790283203125
1445426019975;180.837158203125;-99.6634292602539;-22.197643280029297;3.2430419921875;-10.474472045898438;2.3477020263671875
1445426020008;182.6497802734375;-97.87657165527344;-21.354642868041992;2.988067626953125;-11.553207397460938;0.445220947265625
1445426020042;188.8341064453125;-95.99654388427734;-18.979318618774414;2.0270233154296875;-10.454864501953125;2.3084869384765625
1445426020076;191.4256591796875;-94.39769744873047;-18.26365089416504;2.419281005859375;-9.807632446289062;-0.82965087890625
1445426020110;193.72509765625;-91.55744934082031;-17.716371536254883;1.438629150390625;-9.729171752929688;-0.692352294921875
1445426020142;195.4847412109375;-89.43214416503906;-17.081592559814453;2.5173492431640625;-9.748779296875;-0.4373779296875
1445426020175;196.312255859375;-88.50961303710938;-16.93947410583496;2.752716064453125;-9.729171752929688;-0.2020263671875
1445426020207;197.67333984375;-86.7643814086914;-16.801029205322266;2.8311614990234375;-9.199615478515625;0.1510162353515625
1445426020240;198.93524169921875;-84.99578857421875;-16.873144149780273;2.6546478271484375;-8.611221313476562;0.19024658203125
1445426020275;199.2508544921875;-83.9341812133789;-17.1248836517334;2.419281005859375;-8.88580322265625;0.1510162353515625
1445426020306;199.46148681640625;-81.4503402709961;-18.03044319152832;1.7720489501953125;-9.493820190429688;-0.868865966796875
1445426020341;200.11370849609375;-79.09223175048828;-19.164077758789062;-0.601165771484375;-11.45513916015625;0.5236663818359375
1445426020371;200.9605712890625;-78.43681335449219;-19.67779541015625;0.10491943359375;-11.651275634765625;1.014007568359375
1445426020404;201.42230224609375;-77.79192352294922;-19.597183227539062;5.6358642578125;-11.004043579101562;-0.2608642578125
1445426020438;201.233642578125;-77.71737670898438;-19.780027389526367;6.4400177001953125;-12.239669799804688;-0.751190185546875
1445426020470;201.2322998046875;-77.87425994873047;-20.666704177856445;1.9093475341796875;-14.12255859375;-0.4766082763671875
1445426020503;201.64459228515625;-79.65371704101562;-20.37662124633789;2.0270233154296875;-14.534439086914062;-0.1431732177734375
1445426020536;201.4376220703125;-81.57292175292969;-19.7476806640625;3.9687347412109375;-12.220062255859375;-0.9669342041015625
1445426020568;200.3648681640625;-87.58740234375;-19.097841262817383;7.1264801025390625;-7.5128631591796875;-0.0451202392578125
1445426020602;200.7369384765625;-96.1071548461914;-20.001035690307617;7.0676422119140625;-9.081939697265625;2.0731201171875
1445426020636;201.33056640625;-99.63666534423828;-20.6280460357666;6.4203948974609375;-11.10211181640625;2.2496490478515625
1445426020668;201.70672607421875;-105.34441375732422;-20.793537139892578;4.9886322021484375;-13.61260986328125;-0.751190185546875
1445426020701;201.869873046875;-108.27900695800781;-19.95330047607422;3.2430419921875;-9.925308227539062;-0.0451202392578125
1445426020734;200.14068603515625;-113.06765747070312;-18.61175537109375;2.870391845703125;-8.277786254882812;0.445220947265625
1445426020768;196.2271728515625;-117.07505798339844;-19.538921356201172;2.8311614990234375;-5.100433349609375;0.24908447265625
1445426020800;194.15728759765625;-118.85546112060547;-20.375823974609375;3.57647705078125;-3.5509796142578125;-0.241241455078125
1445426020833;190.785888671875;-120.38207244873047;-21.900915145874023;3.439178466796875;-3.98248291015625;-0.3393096923828125
1445426020866;188.6802978515625;-119.76253509521484;-22.574220657348633;2.8311614990234375;-4.590484619140625;-0.8492584228515625
1445426020899;188.0928955078125;-118.62549591064453;-22.428918838500977;4.125640869140625;-5.9438018798828125;-1.947601318359375
1445426020933;187.2513427734375;-114.8990478515625;-21.693429946899414;5.3416748046875;-7.061767578125;-2.8498077392578125
1445426020965;186.42437744140625;-111.77619171142578;-21.874040603637695;6.3027191162109375;-10.160659790039062;-6.7136383056640625
1445426021000;186.1910400390625;-111.06475067138672;-22.271162033081055;4.3021697998046875;-11.592437744140625;-8.263092041015625
1445426021031;186.2442626953125;-111.55447387695312;-22.306934356689453;3.380340576171875;-9.611495971679688;-7.5373992919921875
1445426021064;183.6080322265625;-111.31463623046875;-22.414581298828125;3.5960845947265625;-6.0418701171875;-2.457550048828125
1445426021100;183.5509033203125;-110.79876708984375;-22.25668716430664;7.597198486328125;-9.807632446289062;0.955169677734375
1445426021131;185.8765869140625;-106.91905975341797;-21.59908103942871;12.12786865234375;-15.201278686523438;-3.026336669921875
1445426021164;185.9306640625;-104.18095397949219;-21.59551239013672;1.3209381103515625;-4.33551025390625;4.2501983642578125
1445426021197;188.65826416015625;-102.16011810302734;-20.821975708007812;1.5759124755859375;-5.8261260986328125;5.4466094970703125
1445426021230;194.81494140625;-98.43077087402344;-20.333024978637695;1.30133056640625;-11.474761962890625;-0.2608642578125
1445426021264;196.05328369140625;-96.3778076171875;-20.039724349975586;0.987518310546875;-11.768951416015625;1.308197021484375
1445426021295;198.39288330078125;-94.80010986328125;-18.17900848388672;3.0665283203125;-9.650726318359375;1.700469970703125
1445426021328;199.51507568359375;-91.9491195678711;-16.770099639892578;5.12591552734375;-8.356246948242188;0.19024658203125
1445426021361;198.8587646484375;-90.78771209716797;-16.709768295288086;3.75299072265625;-8.866195678710938;0.111785888671875
1445426021394;200.2899169921875;-89.236328125;-16.53624153137207;3.2430419921875;-9.297683715820312;0.36676025390625
1445426021428;202.531494140625;-87.4730224609375;-16.213102340698242;2.3408355712890625;-9.631103515625;0.445220947265625
1445426021462;203.4439697265625;-86.68660736083984;-16.025102615356445;2.360443115234375;-8.866195678710938;0.4256134033203125
1445426021493;204.67071533203125;-84.92921447753906;-15.885323524475098;2.55657958984375;-8.748504638671875;0.36676025390625
1445426021526;204.8431396484375;-83.96512603759766;-16.025680541992188;2.61541748046875;-8.82696533203125;0.504058837890625
1445426021559;204.960205078125;-81.79652404785156;-16.70299530029297;2.635040283203125;-9.278060913085938;0.504058837890625
1445426021592;205.14404296875;-79.41009521484375;-17.6960391998291;2.419281005859375;-10.239120483398438;-0.123565673828125
1445426021630;206.144775390625;-77.61043548583984;-18.482654571533203;1.850494384765625;-10.670608520507812;0.386383056640625
1445426021658;207.22259521484375;-77.17669677734375;-18.784297943115234;2.693878173828125;-11.121719360351562;0.4844512939453125
1445426021692;208.467041015625;-76.98805236816406;-19.03146743774414;4.9297943115234375;-11.965087890625;-0.9080963134765625
1445426021726;209.20263671875;-77.1790771484375;-19.29403305053711;3.890289306640625;-12.965362548828125;-0.692352294921875
1445426021758;211.23736572265625;-78.51458740234375;-19.529165267944336;2.32122802734375;-14.671722412109375;-0.064727783203125
1445426021791;211.778076171875;-79.73250579833984;-19.3083438873291;3.1253662109375;-14.299072265625;0.111785888671875
1445426021828;212.35687255859375;-84.92273712158203;-18.714815139770508;6.5380859375;-9.611495971679688;0.07257080078125
1445426021856;212.93121337890625;-89.05924224853516;-18.87701416015625;9.362396240234375;-8.473922729492188;1.9946746826171875
1445426021890;217.7760009765625;-101.22949981689453;-20.969432830810547;5.4593505859375;-10.8275146484375;1.582794189453125
1445426021924;219.86746215820312;-104.11701202392578;-21.30684471130371;2.9684600830078125;-11.376693725585938;-0.94732666015625
1445426021955;221.22039794921875;-109.47806549072266;-20.754959106445312;2.67425537109375;-9.944915771484375;-1.00616455078125
1445426021989;220.67584228515625;-111.95870208740234;-20.445646286010742;2.811553955078125;-8.591598510742188;-0.6727447509765625
1445426022022;218.52197265625;-115.78067016601562;-20.565515518188477;3.0861358642578125;-6.414520263671875;0.386383056640625
1445426022055;215.78378295898438;-117.95993041992188;-21.265390396118164;3.890289306640625;-4.472808837890625;0.01373291015625
1445426022087;214.53054809570312;-118.4947509765625;-21.61509132385254;4.0471954345703125;-4.39434814453125;-0.3785400390625
1445426022120;213.05789184570312;-117.81880950927734;-21.79460334777832;4.1060333251953125;-5.786895751953125;-0.9669342041015625
1445426022154;212.62615966796875;-116.64559173583984;-21.75154685974121;5.00823974609375;-7.1990509033203125;-1.51611328125
1445426022186;211.9661865234375;-113.33961486816406;-21.958003997802734;5.5770263671875;-7.7874603271484375;-2.4379425048828125
1445426022219;211.65899658203125;-110.92288208007812;-22.637859344482422;6.1065826416015625;-9.180007934570312;-5.0661163330078125
1445426022252;212.08065795898438;-110.74101257324219;-22.951274871826172;4.184478759765625;-8.238555908203125;-4.8111419677734375
1445426022288;213.37295532226562;-111.57917785644531;-23.555267333984375;3.9687347412109375;-8.297409057617188;-4.1246795654296875
1445426022318;215.53790283203125;-111.73800659179688;-23.58346939086914;3.7137603759765625;-8.277786254882812;-4.8699798583984375
1445426022352;216.2542724609375;-111.98468780517578;-23.42479705810547;3.262664794921875;-5.5907745361328125;-3.45782470703125
1445426022384;215.74734497070312;-112.09185791015625;-23.900381088256836;3.0665283203125;-5.8261260986328125;-2.8105926513671875
1445426022418;213.3812255859375;-109.84199523925781;-24.00055503845215;6.3811798095703125;-8.82696533203125;-2.8498077392578125
1445426022452;212.54489135742188;-107.95626068115234;-23.67853546142578;9.49969482421875;-13.004592895507812;-2.692901611328125
1445426022484;215.07977294921875;-104.54711151123047;-22.83273696899414;9.931182861328125;-14.220611572265625;-3.653961181640625
1445426022517;216.60784912109375;-103.34141540527344;-22.23044204711914;4.184478759765625;-5.610382080078125;0.4844512939453125
1445426022549;220.5780029296875;-102.85553741455078;-21.38296890258789;2.49774169921875;-4.1197662353515625;3.6814117431640625
1445426022582;227.66015625;-101.4166030883789;-20.79546356201172;2.55657958984375;-9.395751953125;3.524505615234375
1445426022614;231.5736083984375;-97.2437515258789;-20.22749900817871;0.7913818359375;-12.121994018554688;0.955169677734375
1445426022648;233.445068359375;-95.92926025390625;-19.149396896362305;2.242767333984375;-11.082489013671875;1.249359130859375
1445426022681;237.07476806640625;-93.2840347290039;-17.07654571533203;4.753265380859375;-9.219223022460938;0.2294769287109375
1445426022714;238.06106567382812;-91.9925308227539;-16.503799438476562;4.4198455810546875;-9.081939697265625;-0.5550537109375
1445426022747;240.38674926757812;-90.49785614013672;-15.436169624328613;3.87066650390625;-8.611221313476562;0.01373291015625
1445426022781;244.81195068359375;-88.8814468383789;-14.81412410736084;3.3411102294921875;-8.925033569335938;1.0336151123046875
1445426022813;246.800537109375;-88.11607360839844;-14.86655044555664;2.046630859375;-9.591873168945312;0.8571014404296875
1445426022847;249.764404296875;-86.6642074584961;-15.200984001159668;1.53668212890625;-9.846847534179688;0.562896728515625
1445426022879;251.74240112304688;-84.84037017822266;-15.252472877502441;1.7132110595703125;-9.631103515625;0.386383056640625
1445426022912;252.042236328125;-83.74520111083984;-15.19044303894043;2.73309326171875;-9.238845825195312;-0.005889892578125
1445426022945;251.95736694335938;-81.73625946044922;-15.464794158935547;2.7134857177734375;-9.493820190429688;-0.064727783203125
1445426022979;252.553466796875;-80.18846130371094;-16.375242233276367;1.5170745849609375;-10.356796264648438;0.562896728515625
1445426023011;253.2486572265625;-79.59940338134766;-16.917804718017578;1.2032623291015625;-10.396026611328125;0.81787109375
1445426023044;254.72918701171875;-78.74666595458984;-17.329627990722656;3.2038116455078125;-9.513427734375;0.6021270751953125
1445426023093;256.7654113769531;-78.12466430664062;-18.18036651611328;2.752716064453125;-9.513427734375;0.7394256591796875
1445426023119;257.716796875;-77.88289642333984;-18.82815933227539;3.1449737548828125;-9.807632446289062;0.6021270751953125
1445426023155;258.45306396484375;-77.21334075927734;-19.497886657714844;3.1253662109375;-11.670883178710938;0.1510162353515625
1445426023195;258.8258972167969;-76.56422424316406;-19.854326248168945;1.438629150390625;-13.455703735351562;-0.4177703857421875
1445426023211;258.6985778808594;-76.55963897705078;-19.899805068969727;1.438629150390625;-13.455703735351562;-0.4177703857421875
1445426023251;257.30340576171875;-77.94941711425781;-19.875566482543945;2.49774169921875;-13.1614990234375;-0.82965087890625
1445426023297;255.88861083984375;-81.57587432861328;-19.718143463134766;4.753265380859375;-10.31756591796875;-0.9080963134765625
1445426023318;255.6810302734375;-84.27877044677734;-19.83792495727539;7.3618316650390625;-8.179718017578125;0.8571014404296875
1445426023353;258.70465087890625;-91.96662902832031;-20.667827606201172;8.42095947265625;-9.96453857421875;1.9554443359375
1445426023374;261.3931884765625;-95.85147857666016;-21.02556800842285;6.9499664306640625;-12.730010986328125;1.9358367919921875
1445426023410;266.8595275878906;-101.81818389892578;-20.78434181213379;4.9690093994140625;-12.788848876953125;0.4648284912109375
1445426023453;269.23565673828125;-105.95226287841797;-19.032529830932617;2.55657958984375;-10.14105224609375;-1.261138916015625
1445426023483;268.4908447265625;-110.15830993652344;-18.27628517150879;2.10546875;-6.9048614501953125;-0.7315826416015625
1445426023517;267.44439697265625;-111.92473602294922;-18.596296310424805;2.301605224609375;-5.6496124267578125;-0.3393096923828125
1445426023551;265.67620849609375;-114.23991394042969;-19.660133361816406;3.4784088134765625;-4.413970947265625;-0.3393096923828125
1445426023588;264.42572021484375;-114.70913696289062;-20.47018814086914;3.615692138671875;-5.551544189453125;-1.319976806640625
1445426023632;263.5195007324219;-113.52982330322266;-20.846147537231445;4.380615234375;-7.1598358154296875;-1.712249755859375
1445426023650;263.2366943359375;-112.21363830566406;-20.981054306030273;4.812103271484375;-7.826690673828125;-2.281036376953125
1445426023680;263.0821533203125;-109.65962982177734;-21.446073532104492;5.3024444580078125;-8.76812744140625;-4.0658416748046875
1445426023704;263.11834716796875;-109.11217498779297;-21.832164764404297;5.1847686767578125;-8.3758544921875;-5.1641845703125
1445426023811;264.9251708984375;-110.2313003540039;-23.09417724609375;3.2234344482421875;-7.826690673828125;-4.3208160400390625
1445426023828;265.2502746582031;-110.48577117919922;-22.64864730834961;2.419281005859375;-6.983306884765625;-4.732696533203125
1445426023844;265.283935546875;-110.67961883544922;-22.31430435180664;2.0858612060546875;-6.120330810546875;-4.399261474609375
1445426023878;265.03582763671875;-110.42453002929688;-22.20952033996582;3.615692138671875;-7.5128631591796875;-2.6732940673828125
1445426023911;263.64080810546875;-108.10247802734375;-22.47603416442871;7.6756439208984375;-11.670883178710938;-2.281036376953125
1445426023945;266.40313720703125;-104.95076751708984;-22.512487411499023;12.01019287109375;-17.535263061523438;-3.0655670166015625
1445426023980;267.72393798828125;-103.57291412353516;-21.929485321044922;8.813217163085938;-11.827789306640625;-4.7523040771484375
1445426024010;272.32098388671875;-103.01478576660156;-20.577817916870117;2.2035369873046875;-3.276397705078125;2.6811370849609375
1445426024043;280.9934387207031;-100.4076156616211;-19.283588409423828;3.1449737548828125;-6.983306884765625;3.1322479248046875
1445426024075;282.4642639160156;-98.13257598876953;-19.592927932739258;2.2231597900390625;-9.925308227539062;0.562896728515625
1445426024111;283.88995361328125;-95.2453384399414;-19.082033157348633;1.1444244384765625;-11.651275634765625;0.7394256591796875
1445426024142;285.9091491699219;-94.11915588378906;-17.978191375732422;3.87066650390625;-9.748779296875;1.4847259521484375
1445426024177;289.3107604980469;-91.30873107910156;-16.49673080444336;5.00823974609375;-9.023101806640625;0.3471527099609375
1445426024210;291.95001220703125;-89.67523956298828;-16.067691802978516;4.0864105224609375;-9.199615478515625;-0.0254974365234375
1445426024240;294.3251953125;-88.98252868652344;-15.671465873718262;3.262664794921875;-9.297683715820312;0.994384765625
1445426024276;298.6643981933594;-87.31219482421875;-14.933187484741211;2.8311614990234375;-9.258453369140625;1.4062652587890625
1445426024307;301.58209228515625;-85.87242126464844;-14.524116516113281;2.3408355712890625;-9.376129150390625;1.014007568359375
1445426024342;303.1526184082031;-85.17948913574219;-14.387871742248535;2.693878173828125;-9.180007934570312;1.21014404296875
1445426024373;305.7723693847656;-83.59200286865234;-14.225383758544922;3.0272979736328125;-9.101547241210938;1.21014404296875
1445426024405;306.7005310058594;-82.75343322753906;-14.2825927734375;1.732818603515625;-10.337188720703125;1.1120758056640625
1445426024439;308.13970947265625;-81.43975067138672;-14.723920822143555;1.2817230224609375;-10.513702392578125;1.249359130859375
1445426024471;309.96978759765625;-80.57535552978516;-15.474308013916016;1.8701171875;-10.101821899414062;1.1512908935546875
1445426024505;311.04376220703125;-80.2646713256836;-15.820568084716797;3.69415283203125;-9.081939697265625;0.4059906005859375
