sep=;
timestamp;gyro-alpha;gyro-beta;gyro-gamma;accel-x;accel-y;accel-z
1445424352488;174.03659057617188;-78.70401000976562;-2.661269426345825;0.3991241455078125;-12.121994018554688;0.01373291015625
1445424352519;175.62908935546875;-80.9840087890625;-2.5986812114715576;2.752716064453125;-11.259017944335938;0.4059906005859375
1445424352552;176.79493713378906;-82.88426208496094;-2.770855665206909;3.75299072265625;-11.651275634765625;0.4256134033203125
1445424352586;179.91455078125;-87.79505157470703;-2.8097519874572754;2.9096221923828125;-11.435531616210938;0.6021270751953125
1445424352618;183.21282958984375;-92.36962127685547;-1.8482452630996704;1.12481689453125;-11.27862548828125;-0.241241455078125
1445424352651;183.563720703125;-94.28994750976562;-1.1454215049743652;1.0855865478515625;-10.749069213867188;-0.064727783203125
1445424352684;182.768798828125;-98.2834243774414;-0.2505019009113312;1.53668212890625;-10.003753662109375;-0.1431732177734375
1445424352717;182.17303466796875;-101.95916748046875;0.003615305060520768;2.2035369873046875;-9.258453369140625;-1.0257720947265625
1445424352751;182.11456298828125;-103.64501953125;0.09558374434709549;1.8308868408203125;-9.493820190429688;-1.00616455078125
1445424352783;182.2257080078125;-106.38092803955078;0.18683196604251862;1.673980712890625;-9.356521606445312;-0.3981475830078125
1445424352816;182.052490234375;-108.55573272705078;-0.3623010814189911;1.497467041015625;-8.728897094726562;-0.1039581298828125
1445424352849;182.05023193359375;-109.43859100341797;-0.8518165349960327;1.18365478515625;-8.454315185546875;-0.77081298828125
1445424352882;182.76025390625;-110.90374755859375;-1.763572335243225;-0.0519866943359375;-7.8462982177734375;-2.7713623046875
1445424352915;183.67486572265625;-111.53009033203125;-1.9812136888504028;-0.4442596435546875;-7.2186737060546875;-3.51666259765625
1445424352949;186.10064697265625;-112.34210205078125;-1.9784342050552368;-0.228515625;-7.061767578125;-3.4185943603515625
1445424352981;187.8189697265625;-112.06114959716797;-1.8401211500167847;-0.0716094970703125;-6.865631103515625;-3.57550048828125
1445424353013;188.59783935546875;-111.41395568847656;-1.6516679525375366;0.0656890869140625;-7.5128631591796875;-4.458099365234375
1445424353048;190.2890625;-109.44308471679688;-1.0462344884872437;-0.1696624755859375;-8.022811889648438;-4.9484405517578125
1445424353080;191.89154052734375;-107.1764144897461;-0.07104209810495377;-1.20916748046875;-9.474197387695312;-6.1252288818359375
1445424353113;192.4605712890625;-106.05941772460938;0.420826256275177;-1.0130462646484375;-11.651275634765625;-6.0271759033203125
1445424353147;193.19378662109375;-104.94186401367188;0.9402655363082886;-0.1304473876953125;-10.847137451171875;-6.3017578125
1445424353180;193.0557861328125;-105.11566925048828;0.46224281191825867;1.3797760009765625;-8.983871459960938;-5.1641845703125
1445424353212;193.09100341796875;-105.02448272705078;0.06622595340013504;2.164306640625;-8.925033569335938;-3.51666259765625
1445424353245;194.372314453125;-103.14939880371094;-0.653118908405304;3.3411102294921875;-13.84796142578125;-2.2221832275390625
1445424353278;196.5804443359375;-100.42166900634766;-0.5628063678741455;2.929229736328125;-11.78857421875;-2.5359954833984375
1445424353312;198.70318603515625;-100.18051147460938;-0.03693254292011261;2.164306640625;-7.63055419921875;0.3471527099609375
1445424353344;203.36505126953125;-98.82679748535156;0.040873561054468155;2.5369720458984375;-8.356246948242188;3.6225738525390625
1445424353377;207.4613037109375;-96.11894226074219;-0.22110147774219513;-1.111114501953125;-10.631378173828125;1.876983642578125
1445424353410;210.87387084960938;-94.6252212524414;0.3070765435695648;0.987518310546875;-10.101821899414062;1.7200775146484375
1445424353443;216.53713989257812;-91.19851684570312;1.0313221216201782;1.9485626220703125;-9.90570068359375;-0.3589324951171875
1445424353476;219.1591796875;-89.88227081298828;1.1110562086105347;0.026458740234375;-9.96453857421875;1.0532379150390625
1445424353509;225.31356811523438;-88.27059936523438;1.125959038734436;-0.542327880859375;-9.709564208984375;0.7786407470703125
1445424353542;231.65554809570312;-87.01734924316406;0.9726400375366211;-1.8171844482421875;-9.650726318359375;0.6609649658203125
1445424353575;234.13787841796875;-86.35671997070312;0.8614559173583984;-2.150604248046875;-9.68994140625;0.3471527099609375
1445424353608;237.79693603515625;-84.8286361694336;0.5169379711151123;-1.8760223388671875;-9.68994140625;-0.064727783203125
1445424353641;240.42486572265625;-83.18415069580078;-0.18533919751644135;-0.97381591796875;-9.611495971679688;-0.3393096923828125
1445424353674;241.60098266601562;-82.40025329589844;-0.6730555295944214;-0.640380859375;-9.68994140625;-0.300079345703125
1445424353708;243.95590209960938;-80.84635925292969;-1.9122445583343506;-0.954193115234375;-9.846847534179688;-0.0843353271484375
1445424353741;246.22674560546875;-79.33511352539062;-3.1765382289886475;-0.1304473876953125;-10.415634155273438;0.01373291015625
1445424353774;247.49554443359375;-78.67316436767578;-3.7817180156707764;0.2029876708984375;-10.572540283203125;0.386383056640625
1445424353806;250.37612915039062;-77.92688751220703;-4.923206329345703;0.16375732421875;-10.670608520507812;0.58251953125
1445424353841;253.44036865234375;-77.87877655029297;-5.729182243347168;0.22259521484375;-10.8863525390625;0.4059906005859375
1445424353873;254.86273193359375;-77.93453979492188;-6.056493759155273;-0.228515625;-11.690505981445312;-0.0451202392578125
1445424353907;257.6590881347656;-77.95098876953125;-6.274997711181641;-0.287353515625;-11.90625;-0.6531219482421875
1445424353942;259.03741455078125;-78.0767593383789;-6.227523326873779;-0.6207733154296875;-11.965087890625;-0.182403564453125
1445424353972;261.8528137207031;-79.5562515258789;-5.4497504234313965;-0.777679443359375;-12.59271240234375;0.4059906005859375
1445424354006;264.36407470703125;-83.0578384399414;-4.413852214813232;3.69415283203125;-10.807907104492188;-0.4177703857421875
1445424354039;266.1814880371094;-86.02017974853516;-4.087432384490967;5.027862548828125;-11.51397705078125;0.36676025390625
1445424354073;271.985595703125;-92.62520599365234;-2.575443983078003;3.615692138671875;-12.867294311523438;1.32781982421875
1445424354103;273.2781677246094;-96.65296173095703;-0.2521218955516815;0.3991241455078125;-13.0438232421875;-0.3393096923828125
1445424354137;272.16943359375;-99.04733276367188;0.5639198422431946;-0.542327880859375;-11.651275634765625;-0.574676513671875
1445424354170;271.5993957519531;-104.73967742919922;1.2010059356689453;0.928680419921875;-9.140777587890625;-1.0257720947265625
1445424354203;271.6431884765625;-106.98239135742188;1.291062831878662;1.8308868408203125;-8.964248657226562;-1.8691558837890625
1445424354235;271.7303466796875;-110.8351058959961;1.4639626741409302;1.3405609130859375;-8.709274291992188;-1.692626953125
1445424354269;271.6123352050781;-114.0140151977539;0.6205723881721497;1.30133056640625;-6.2183990478515625;-0.3981475830078125
1445424354303;271.7453918457031;-115.17658996582031;-0.39897337555885315;1.1444244384765625;-5.669219970703125;-1.947601318359375
1445424354334;272.7713623046875;-116.09735107421875;-2.458009958267212;0.3991241455078125;-6.238006591796875;-2.8498077392578125
1445424354368;274.21026611328125;-115.3475341796875;-3.510864734649658;-0.6207733154296875;-6.5910491943359375;-4.1246795654296875
1445424354401;274.9870300292969;-114.7197494506836;-3.608095645904541;-0.660003662109375;-6.0418701171875;-4.340423583984375
1445424354434;276.145751953125;-113.08477783203125;-3.574336290359497;-0.0519866943359375;-6.5910491943359375;-4.9288177490234375
1445424354466;276.1576232910156;-110.7445297241211;-2.937814235687256;0.04608154296875;-11.729736328125;-7.1451263427734375
1445424354498;276.25927734375;-109.71089935302734;-2.289361000061035;0.4579620361328125;-13.1614990234375;-7.0862884521484375
1445424354532;276.28546142578125;-108.99593353271484;-1.2871464490890503;2.67425537109375;-9.258453369140625;-7.3216400146484375
1445424354564;276.1028747558594;-109.18528747558594;-1.3718174695968628;4.94940185546875;-10.062606811523438;-1.810302734375
1445424354598;279.359130859375;-109.69059753417969;-2.1348392963409424;6.26348876953125;-16.12310791015625;0.2098541259765625
1445424354631;283.50286865234375;-106.58440399169922;-3.053575038909912;2.0270233154296875;-13.357635498046875;-3.34014892578125
1445424354664;284.9749755859375;-105.31990051269531;-2.6836814880371094;1.36016845703125;-3.5117645263671875;4.1717529296875
1445424354697;292.4972839355469;-104.93605041503906;-1.1808968782424927;1.41900634765625;-7.7286224365234375;3.3675994873046875
1445424354730;297.80474853515625;-101.1378402709961;-1.3728148937225342;-3.739288330078125;-12.690780639648438;1.56317138671875
1445424354764;299.6128234863281;-99.44454193115234;-0.8468906283378601;-2.150604248046875;-11.27862548828125;1.1512908935546875
1445424354796;304.6703796386719;-96.08686065673828;0.7888997793197632;3.615692138671875;-8.591598510742188;-0.692352294921875
1445424354829;309.6217041015625;-93.27747344970703;1.1166751384735107;1.5759124755859375;-9.513427734375;0.7786407470703125
1445424354862;312.180419921875;-92.26747131347656;1.1661663055419922;0.10491943359375;-10.337188720703125;1.308197021484375
1445424354895;317.3091735839844;-90.59589385986328;1.4031226634979248;-1.15032958984375;-10.121444702148438;0.1706390380859375
1445424354929;320.7729187011719;-89.46162414550781;1.6239957809448242;-2.22906494140625;-9.650726318359375;0.30792236328125
1445424354961;322.0597839355469;-88.84379577636719;1.7595915794372559;-1.8956451416015625;-9.533035278320312;0.19024658203125
1445424354994;323.9564208984375;-87.52851867675781;1.6727973222732544;-0.97381591796875;-9.552658081054688;-0.241241455078125
1445424355027;325.8229675292969;-86.23297119140625;0.8495171070098877;-0.34619140625;-9.768402099609375;0.0921783447265625
1445424355060;326.6513366699219;-85.53678894042969;0.16608481109142303;-0.091217041015625;-9.729171752929688;0.2294769287109375
1445424355093;327.94158935546875;-84.02227020263672;-1.3983229398727417;-0.208892822265625;-9.748779296875;0.3471527099609375
1445424355127;328.70391845703125;-83.26858520507812;-2.1612906455993652;-0.2481231689453125;-10.297958374023438;0.01373291015625
1445424355159;330.33203125;-81.97703552246094;-3.515812397003174;-0.267730712890625;-10.5921630859375;0.01373291015625
1445424355195;331.65277099609375;-81.1136474609375;-4.491603851318359;-1.346466064453125;-10.513702392578125;0.36676025390625
1445424355225;332.1561584472656;-80.8169174194336;-4.9443254470825195;-1.0130462646484375;-10.984420776367188;0.07257080078125
1445424355258;332.8797912597656;-80.24103546142578;-5.660940170288086;-0.718841552734375;-12.376968383789062;-0.0843353271484375
1445424355292;333.75091552734375;-80.02806091308594;-6.030972003936768;-0.150054931640625;-11.768951416015625;-0.4962158203125
1445424355337;335.1378173828125;-81.49834442138672;-5.510247707366943;-0.7384490966796875;-11.945480346679688;-0.5550537109375
1445424355358;335.75616455078125;-82.81222534179688;-4.938817501068115;-0.091217041015625;-11.376693725585938;-0.182403564453125
1445424355390;338.51641845703125;-87.50293731689453;-4.268805503845215;4.753265380859375;-11.847412109375;-0.515838623046875
1445424355425;340.95233154296875;-90.80359649658203;-4.03571081161499;5.2828216552734375;-13.024200439453125;-0.2804718017578125
1445424355457;344.45697021484375;-96.65650177001953;-2.562832832336426;1.41900634765625;-13.2203369140625;0.2098541259765625
1445424355489;344.1912536621094;-98.77043151855469;-1.4164015054702759;0.0068511962890625;-12.573104858398438;0.01373291015625
1445424355522;340.89739990234375;-103.7630615234375;0.12274713814258575;0.1833648681640625;-10.513702392578125;0.0333404541015625
1445424355559;337.4326171875;-108.5046615600586;0.12799102067947388;1.8308868408203125;-8.571990966796875;-1.4180450439453125
1445424355589;336.39898681640625;-110.6053695678711;-0.010371643118560314;2.183929443359375;-8.571990966796875;-1.75146484375
1445424355621;334.6767578125;-114.14308166503906;-0.2865856885910034;1.7720489501953125;-7.944366455078125;-1.0453948974609375
1445424355654;333.93902587890625;-115.60798645019531;-0.4626350998878479;2.1446990966796875;-6.2183990478515625;-0.9080963134765625
1445424355689;333.0617980957031;-117.5392074584961;-1.2983167171478271;1.850494384765625;-6.43414306640625;-1.6730194091796875
1445424355720;333.4588317871094;-118.02815246582031;-2.360398054122925;0.6737060546875;-6.9636993408203125;-3.085174560546875
1445424355753;333.8992614746094;-118.01512908935547;-2.7603273391723633;0.22259521484375;-6.66949462890625;-3.51666259765625
1445424355786;334.5854187011719;-117.25212097167969;-3.46042537689209;-0.4246368408203125;-5.9438018798828125;-3.7324066162109375
1445424355819;334.65643310546875;-115.4035873413086;-3.745082139968872;-0.85614013671875;-7.0813751220703125;-5.242645263671875
1445424355853;334.15789794921875;-113.90190124511719;-3.550048828125;-1.346466064453125;-8.983871459960938;-6.6548004150390625
1445424355885;333.73687744140625;-110.58380126953125;-2.4010095596313477;0.10491943359375;-14.514816284179688;-7.4981689453125
1445424355918;334.3659362792969;-109.8938217163086;-0.7867993712425232;2.6546478271484375;-10.866744995117188;-8.812255859375
1445424355953;333.4310302734375;-110.3428726196289;-0.7129577994346619;2.49774169921875;-6.9048614501953125;-6.5763397216796875
1445424355983;331.82763671875;-111.68888092041016;-1.7726408243179321;1.6347503662109375;-8.081649780273438;-1.771087646484375
1445424356018;333.7653503417969;-108.76438903808594;-2.239166021347046;2.7723236083984375;-17.927536010742188;-3.7324066162109375
1445424356050;334.8088684082031;-106.48038482666016;-2.053539991378784;2.125091552734375;-15.417037963867188;-4.6346282958984375
1445424356082;338.04534912109375;-105.55899810791016;-0.6487119793891907;2.7134857177734375;-4.8258514404296875;3.3087615966796875
1445424356116;340.5991516113281;-105.2251968383789;-0.19257156550884247;0.1441497802734375;-9.709564208984375;2.0731201171875
1445424356149;342.5902099609375;-102.22743225097656;-0.7044792175292969;-2.8762969970703125;-11.298233032226562;1.9358367919921875
1445424356182;345.6069641113281;-99.0319595336914;0.03304744511842728;-0.326568603515625;-9.90570068359375;1.4258880615234375
1445424356215;347.25274658203125;-97.3381576538086;0.10647417604923248;1.791656494140625;-9.042709350585938;-0.0843353271484375
1445424356249;349.0676574707031;-94.22586822509766;-0.3457121253013611;0.6933135986328125;-10.062606811523438;0.1706390380859375
1445424356281;351.4732360839844;-91.92549896240234;-0.4608984589576721;-0.0716094970703125;-10.19989013671875;-0.0254974365234375
1445424356314;352.7926330566406;-91.24036407470703;-0.5141468644142151;-0.326568603515625;-9.96453857421875;-0.1627960205078125
1445424356347;354.119873046875;-90.16658020019531;-0.7150636315345764;-1.7191162109375;-9.650726318359375;-0.1431732177734375
1445424356380;354.3130798339844;-89.59014129638672;-0.8003604412078857;-1.3660736083984375;-9.356521606445312;-0.2608642578125
1445424356412;354.2893371582031;-88.24695587158203;-1.0180048942565918;-0.954193115234375;-9.356521606445312;-0.2216339111328125
1445424356446;353.9891052246094;-86.74083709716797;-1.819870114326477;-0.1108245849609375;-9.3369140625;-0.2804718017578125
1445424356479;354.1716003417969;-85.21368408203125;-3.2110650539398193;0.536407470703125;-9.631103515625;-0.3393096923828125
1445424356512;354.3523864746094;-84.42225646972656;-3.950805425643921;0.242218017578125;-9.788009643554688;-0.1431732177734375
1445424356545;354.7503662109375;-83.00315856933594;-5.142746925354004;-0.3657989501953125;-10.31756591796875;0.2686920166015625
1445424356580;354.9801330566406;-82.5560302734375;-5.522089958190918;-0.032379150390625;-10.435256958007812;0.01373291015625
1445424356611;354.9500732421875;-81.94864654541016;-6.135776996612549;-0.660003662109375;-11.200164794921875;0.445220947265625
1445424356644;354.44781494140625;-81.62397003173828;-6.519688606262207;-0.5619354248046875;-12.788848876953125;-0.868865966796875
1445424356677;354.2420349121094;-81.53397369384766;-6.414203643798828;-0.777679443359375;-12.53387451171875;-0.9865570068359375
1445424356710;353.2803649902344;-82.22502899169922;-5.543717861175537;-1.7779541015625;-12.455429077148438;-0.77081298828125
1445424356743;352.7826232910156;-84.93233489990234;-4.534828186035156;2.43890380859375;-10.121444702148438;-0.1039581298828125
1445424356778;353.1642150878906;-87.38480377197266;-4.326521396636963;3.5960845947265625;-11.435531616210938;0.1510162353515625
1445424356809;352.5785827636719;-93.7110595703125;-3.56524920463562;0.6933135986328125;-14.102935791015625;0.955169677734375
1445424356843;350.1199951171875;-98.57478332519531;-0.8003453612327576;0.04608154296875;-12.945755004882812;0.3471527099609375
1445424356875;347.7831115722656;-100.74714660644531;0.5195027589797974;0.7913818359375;-12.121994018554688;0.24908447265625
1445424356909;342.35589599609375;-105.47879028320312;1.4836795330047607;1.3209381103515625;-10.062606811523438;-0.633514404296875
1445424356940;340.136474609375;-107.97456359863281;1.7083706855773926;0.5756378173828125;-7.7678375244140625;-0.7119598388671875
1445424356975;335.97039794921875;-112.43017578125;1.6882905960083008;0.477569580078125;-7.2186737060546875;-0.88848876953125
1445424357008;332.444091796875;-116.44803619384766;1.0612902641296387;1.6935882568359375;-6.2772369384765625;-0.123565673828125
1445424357040;330.95501708984375;-117.90912628173828;0.36075592041015625;2.2035369873046875;-6.3360748291015625;-1.1042327880859375
1445424357073;329.5522766113281;-119.38895416259766;-0.6112366914749146;1.8308868408203125;-6.7675628662109375;-2.006439208984375
1445424357106;329.4808349609375;-119.44023132324219;-0.7152042388916016;0.7717742919921875;-6.414520263671875;-3.1047821044921875
1445424357139;329.3326721191406;-118.68485260009766;-0.919809877872467;-0.01275634765625;-6.0222625732421875;-3.2420806884765625
1445424357174;329.0224609375;-116.95481872558594;-1.145264983177185;-0.4442596435546875;-6.296844482421875;-4.0070037841796875
1445424357205;328.85986328125;-115.71650695800781;-1.1132235527038574;-1.3268585205078125;-10.19989013671875;-7.3412628173828125
1445424357239;327.0244140625;-112.41304016113281;-0.6544351577758789;-1.8367919921875;-14.377532958984375;-8.30230712890625
1445424357274;324.9251708984375;-111.00892639160156;0.5540496706962585;-0.4442596435546875;-13.416473388671875;-9.027999877929688
1445424357308;322.47662353515625;-113.04450225830078;0.73745197057724;1.98779296875;-6.061492919921875;-3.6735687255859375
1445424357338;322.9017333984375;-113.67826080322266;0.203280508518219;2.929229736328125;-8.218948364257812;-0.3981475830078125
1445424357370;325.7734375;-110.48625946044922;-1.5848572254180908;3.7922210693359375;-17.358749389648438;-3.3205413818359375
1445424357403;326.1119079589844;-108.84839630126953;-2.0131566524505615;2.2819976806640625;-13.78912353515625;-3.8697052001953125
1445424357436;329.76141357421875;-108.14532470703125;-0.43098899722099304;1.3209381103515625;-5.276947021484375;4.6228485107421875
1445424357469;333.17584228515625;-103.88935852050781;-0.3253988027572632;-0.4442596435546875;-9.180007934570312;1.9358367919921875
1445424357505;332.97381591796875;-101.99240112304688;-0.7685320377349854;-2.366363525390625;-10.729446411132812;1.465118408203125
1445424357535;335.0853576660156;-98.84304809570312;-0.6366968750953674;1.2032623291015625;-10.219512939453125;-0.6727447509765625
1445424357568;337.5198669433594;-95.81880950927734;-0.3828597068786621;1.3405609130859375;-9.376129150390625;-0.3393096923828125
1445424357601;338.6591491699219;-94.778076171875;-0.2982424199581146;0.34027099609375;-9.925308227539062;-0.123565673828125
1445424357635;340.896728515625;-93.67532348632812;-0.19186720252037048;-0.287353515625;-9.709564208984375;-0.123565673828125
1445424357667;341.67413330078125;-93.2576675415039;-0.20733512938022614;-0.85614013671875;-9.415359497070312;0.13140869140625
1445424357700;342.3345947265625;-92.17497253417969;-0.15736690163612366;-0.660003662109375;-9.474197387695312;-0.005889892578125
1445424357734;342.7608947753906;-90.85346984863281;-0.16231368482112885;0.0853118896484375;-9.474197387695312;-0.2804718017578125
1445424357766;343.01971435546875;-90.18206024169922;-0.28649604320526123;0.6148681640625;-9.474197387695312;-0.241241455078125
1445424357799;343.85675048828125;-88.90984344482422;-0.8582248687744141;0.6737060546875;-9.68994140625;-0.0843353271484375
1445424357832;345.0920715332031;-87.45983123779297;-1.7466559410095215;0.477569580078125;-9.611495971679688;0.2098541259765625
1445424357867;345.6415710449219;-86.60530853271484;-2.251915216445923;-0.777679443359375;-9.827239990234375;0.7982635498046875
1445424357898;346.46240234375;-84.99183654785156;-3.079172134399414;-1.4837646484375;-10.297958374023438;1.131683349609375
1445424357932;346.7859802246094;-83.65129089355469;-3.664754629135132;-0.895355224609375;-11.533599853515625;0.2686920166015625
1445424357964;346.9538879394531;-83.15303039550781;-4.0973219871521;-1.405303955078125;-11.984695434570312;-0.3393096923828125
1445424357997;347.5775451660156;-82.5344467163086;-4.60563325881958;-1.464141845703125;-11.533599853515625;-0.3589324951171875
1445424358030;347.95599365234375;-82.37816619873047;-4.230682849884033;-0.895355224609375;-12.239669799804688;-0.5942840576171875
1445424358063;348.1206970214844;-82.75292205810547;-3.638052463531494;-0.542327880859375;-12.612335205078125;-0.0843353271484375
1445424358095;349.490966796875;-84.46633911132812;-2.200063943862915;2.55657958984375;-11.200164794921875;-0.2020263671875
1445424358129;350.8034362792969;-85.90000915527344;-1.4371426105499268;3.75299072265625;-11.259017944335938;-0.633514404296875
1445424358162;353.46075439453125;-89.89537048339844;0.2638716399669647;2.2819976806640625;-12.671173095703125;-0.4177703857421875
1445424358195;353.6075744628906;-93.89107513427734;2.0631041526794434;2.125091552734375;-12.749618530273438;-0.241241455078125
1445424358230;352.4366760253906;-96.02058410644531;2.6411492824554443;1.105194091796875;-11.239395141601562;0.621734619140625
1445424358261;350.4224548339844;-100.67400360107422;3.6376214027404785;0.1833648681640625;-10.611770629882812;-0.2020263671875
1445424358294;347.5143127441406;-105.5899429321289;4.919042110443115;-0.522705078125;-9.317291259765625;-1.692626953125
1445424358328;345.7279052734375;-107.96981048583984;5.178560733795166;0.1245269775390625;-8.787734985351562;-1.457275390625
1445424358360;341.9859924316406;-111.89212799072266;4.387531280517578;1.791656494140625;-8.1405029296875;-0.94732666015625
1445424358394;340.4095153808594;-113.62528991699219;3.6124558448791504;1.6935882568359375;-7.826690673828125;-2.457550048828125
1445424358426;339.0125427246094;-116.67986297607422;2.2340593338012695;1.4582366943359375;-7.5913238525390625;-3.16363525390625
1445424358460;338.98126220703125;-118.8291244506836;1.2241441011428833;1.046356201171875;-6.355682373046875;-2.6144561767578125
1445424358492;338.8853759765625;-119.4997787475586;0.4817432165145874;0.536407470703125;-5.35540771484375;-2.2418060302734375
1445424358525;338.7532958984375;-119.48584747314453;-0.9269705414772034;0.34027099609375;-5.276947021484375;-2.7517547607421875
1445424358558;338.7648620605469;-117.48807525634766;-1.688675045967102;0.0068511962890625;-5.845733642578125;-5.1837921142578125
1445424358593;338.6481628417969;-115.88954162597656;-1.7585076093673706;-1.2483978271484375;-10.964813232421875;-7.8315887451171875
1445424358624;338.2760925292969;-112.8893814086914;-1.2336180210113525;-0.777679443359375;-13.651840209960938;-8.263092041015625
1445424358657;337.90130615234375;-112.1004409790039;-0.522468090057373;1.497467041015625;-10.5921630859375;-7.929656982421875
1445424358690;337.5952453613281;-112.3392333984375;-0.6530467867851257;2.3408355712890625;-8.611221313476562;-6.3017578125
1445424358723;337.914306640625;-111.88912200927734;-1.6327548027038574;2.4781341552734375;-11.808181762695312;-1.9083709716796875
1445424358756;340.10693359375;-108.71446228027344;-2.1980321407318115;2.32122802734375;-15.4366455078125;-4.6346282958984375
1445424358790;341.3086242675781;-108.25621795654297;-1.7282819747924805;1.12481689453125;-10.494094848632812;-1.202301025390625
1445424358822;346.02056884765625;-106.5109634399414;-0.4082365930080414;0.1245269775390625;-7.86590576171875;2.52423095703125
1445424358856;346.7876892089844;-104.37808227539062;-0.5656880140304565;-2.17022705078125;-11.317855834960938;2.40655517578125
1445424358888;347.6746520996094;-100.6885986328125;-1.1612569093704224;-0.091217041015625;-10.5921630859375;0.621734619140625
1445424358924;349.48895263671875;-97.44216918945312;-1.3618921041488647;1.811279296875;-9.709564208984375;-0.3589324951171875
1445424358955;349.95208740234375;-96.03106689453125;-1.4120715856552124;0.34027099609375;-10.121444702148438;-0.1627960205078125
1445424358987;352.2537841796875;-93.99393463134766;-1.0804475545883179;0.1245269775390625;-10.02337646484375;-0.2020263671875
1445424359020;354.23504638671875;-92.74242401123047;-0.9674773812294006;-0.895355224609375;-9.670333862304688;-0.2216339111328125
1445424359053;354.59808349609375;-92.24345397949219;-1.0655922889709473;-1.0718841552734375;-9.395751953125;-0.0451202392578125
1445424359086;354.98504638671875;-91.06578063964844;-1.174596905708313;-0.34619140625;-9.278060913085938;-0.182403564453125
1445424359119;354.8846740722656;-89.56532287597656;-1.5063927173614502;0.0656890869140625;-9.434967041015625;-0.2020263671875
1445424359152;354.8480529785156;-88.78709411621094;-1.848127841949463;0.28143310546875;-9.552658081054688;-0.2608642578125
1445424359186;355.35870361328125;-87.29203796386719;-2.9381887912750244;0.7913818359375;-9.807632446289062;-0.4373779296875
1445424359219;356.4000244140625;-85.88468170166016;-4.021737575531006;0.16375732421875;-9.807632446289062;-0.2608642578125
1445424359250;356.8288879394531;-85.19551849365234;-4.42146110534668;-0.601165771484375;-9.807632446289062;0.2883148193359375
1445424359284;357.1488342285156;-84.0448226928711;-4.8992719650268555;-1.3856964111328125;-10.8275146484375;0.621734619140625
1445424359319;356.75860595703125;-83.00990295410156;-5.499755859375;-1.6798858642578125;-12.455429077148438;-0.182403564453125
1445424359350;356.2418212890625;-82.51412963867188;-5.654016971588135;-1.4249267578125;-12.788848876953125;-1.00616455078125
1445424359383;355.8265380859375;-81.85111236572266;-5.647664546966553;-1.0718841552734375;-12.082763671875;-0.6138916015625
1445424359416;355.59881591796875;-82.00752258300781;-5.29096794128418;-1.287628173828125;-12.47503662109375;-0.5354461669921875
1445424359449;354.9817810058594;-83.84002685546875;-4.016190052032471;-0.032379150390625;-11.612045288085938;-0.2216339111328125
1445424359482;354.94500732421875;-85.46694946289062;-3.4580509662628174;3.7922210693359375;-11.141326904296875;-0.7315826416015625
1445424359515;356.16693115234375;-90.85163116455078;-2.292973041534424;3.9098968505859375;-12.200454711914062;-0.0451202392578125
1445424359548;356.45965576171875;-96.65249633789062;-0.3136105537414551;0.9482879638671875;-13.298797607421875;0.4844512939453125
1445424359581;352.6377258300781;-101.36724090576172;1.8997570276260376;0.595245361328125;-12.514266967773438;0.07257080078125
1445424359614;350.2987060546875;-103.95232391357422;2.3943521976470947;0.7913818359375;-11.78857421875;-0.2608642578125
1445424359647;346.24383544921875;-109.12286376953125;2.7820703983306885;0.869842529296875;-9.278060913085938;-0.8492584228515625
1445424359679;344.6481018066406;-111.33979797363281;2.86883544921875;1.6543731689453125;-7.5324859619140625;-0.77081298828125
1445424359713;342.2974853515625;-115.23585510253906;2.6824605464935303;1.9485626220703125;-7.257904052734375;-0.515838623046875
1445424359746;340.54302978515625;-117.97465515136719;1.7379802465438843;2.811553955078125;-6.0811004638671875;0.0921783447265625
1445424359779;340.1277160644531;-118.86492919921875;1.1412805318832397;2.7134857177734375;-5.8261260986328125;-0.241241455078125
1445424359812;340.477294921875;-119.12591552734375;0.24036872386932373;1.3209381103515625;-6.5125885009765625;-1.8495330810546875
1445424359845;341.42626953125;-117.72728729248047;-0.15028823912143707;0.16375732421875;-6.8460235595703125;-3.653961181640625
1445424359878;341.9461975097656;-116.65684509277344;-0.2480314075946808;-0.267730712890625;-6.72833251953125;-4.47772216796875
1445424359911;342.20989990234375;-114.1060562133789;-0.301218718290329;-1.8956451416015625;-11.259017944335938;-6.81170654296875
1445424359944;341.88287353515625;-112.71504211425781;-0.2451951503753662;-0.01275634765625;-14.593276977539062;-7.302032470703125
1445424359977;341.6343688964844;-111.25350189208984;0.3979727029800415;1.4582366943359375;-11.043258666992188;-8.380767822265625
1445424360010;341.6197814941406;-112.39891815185547;0.41214144229888916;2.752716064453125;-6.2183990478515625;-4.8699798583984375
1445424360043;342.1802978515625;-112.93830108642578;-0.17595192790031433;3.498016357421875;-12.02392578125;-0.4569854736328125
1445424360076;344.0096130371094;-110.92208862304688;-1.7013388872146606;3.63531494140625;-16.436920166015625;-1.3003692626953125
1445424360108;345.91192626953125;-106.85850524902344;-1.567668080329895;1.615142822265625;-11.690505981445312;-3.45782470703125
1445424360142;347.6391906738281;-105.90886688232422;-0.543703556060791;1.2621002197265625;-7.0225372314453125;0.9159393310546875
1445424360175;352.56805419921875;-104.50861358642578;0.818352997303009;1.5955352783203125;-8.3758544921875;2.386932373046875
1445424360209;353.5210876464844;-101.04359436035156;0.2877897322177887;-2.5036468505859375;-10.121444702148438;2.1319580078125
1445424360242;355.00482177734375;-99.33122253417969;0.4043915271759033;-0.640380859375;-10.003753662109375;1.56317138671875
1445424360274;358.9084777832031;-95.69570922851562;0.4966997802257538;1.41900634765625;-9.90570068359375;-0.241241455078125
1445424360307;0.759979248046875;-92.84406280517578;0.7330966591835022;0.3206634521484375;-10.19989013671875;-0.123565673828125
1445424360340;2.3489990234375;-91.91362762451172;0.9609275460243225;0.0068511962890625;-9.90570068359375;-0.123565673828125
1445424360373;5.829681396484375;-90.70206451416016;1.1783828735351562;-0.7580718994140625;-9.709564208984375;0.07257080078125
1445424360407;7.9437255859375;-89.61414337158203;1.2247763872146606;-1.03265380859375;-9.533035278320312;0.052947998046875
1445424360439;8.89727783203125;-89.02075958251953;1.2787431478500366;-0.58154296875;-9.434967041015625;-0.0451202392578125
1445424360473;10.6993408203125;-87.78417205810547;1.131711721420288;-0.3069610595703125;-9.395751953125;-0.182403564453125
1445424360505;11.6021728515625;-87.2206039428711;0.8788544535636902;-0.1892852783203125;-9.591873168945312;-0.2020263671875
1445424360542;13.908935546875;-86.09272003173828;0.03547600656747818;0.04608154296875;-9.650726318359375;-0.1431732177734375
1445424360571;15.976470947265625;-84.80736541748047;-0.9497019052505493;-0.405029296875;-9.552658081054688;0.2686920166015625
1445424360605;16.65887451171875;-84.10718536376953;-1.3845995664596558;-1.4837646484375;-9.807632446289062;0.81787109375
1445424360637;17.5889892578125;-82.80867767333984;-1.9321955442428589;-1.8367919921875;-10.690231323242188;0.9159393310546875
1445424360672;18.492645263671875;-81.91436004638672;-2.540081024169922;-1.346466064453125;-12.337738037109375;-0.633514404296875
1445424360705;19.215667724609375;-81.70130920410156;-2.742299795150757;-1.522979736328125;-12.631942749023438;-1.00616455078125
1445424360736;20.91448974609375;-82.0148696899414;-2.293658971786499;-0.895355224609375;-12.494644165039062;-1.202301025390625
1445424360768;21.869049072265625;-82.91765594482422;-1.632516622543335;1.438629150390625;-12.121994018554688;-0.574676513671875
1445424360802;24.727874755859375;-86.34294891357422;-0.3140263557434082;4.066802978515625;-11.415924072265625;-0.3197021484375
1445424360835;28.996795654296875;-91.45919036865234;0.9914027452468872;5.322052001953125;-11.062881469726562;0.445220947265625
1445424360867;31.323211669921875;-94.16262817382812;1.8079581260681152;1.811279296875;-13.2791748046875;-0.2216339111328125
1445424360901;32.96612548828125;-98.20821380615234;4.361719608306885;1.0267486572265625;-13.55377197265625;-0.6727447509765625
1445424360934;32.42138671875;-101.5923080444336;6.594486236572266;2.4781341552734375;-10.8863525390625;-0.182403564453125
1445424360968;32.15631103515625;-103.13133239746094;7.154364585876465;2.752716064453125;-9.297683715820312;-0.5942840576171875
1445424361000;31.792022705078125;-106.36608123779297;7.123779773712158;1.9681854248046875;-9.3369140625;-1.1042327880859375
1445424361034;31.945526123046875;-109.88285064697266;5.523257255554199;2.2035369873046875;-8.277786254882812;-1.18267822265625
1445424361066;32.72833251953125;-111.40291595458984;4.550276756286621;1.8701171875;-7.669769287109375;-1.771087646484375
1445424361099;34.842315673828125;-113.06388854980469;2.704115152359009;-0.4638671875;-7.86590576171875;-2.8498077392578125
1445424361132;36.6689453125;-113.3828125;1.481096863746643;-2.2682952880859375;-6.72833251953125;-3.39898681640625
1445424361165;37.967132568359375;-113.32640075683594;1.300931453704834;-2.032928466796875;-6.1399383544921875;-3.45782470703125
1445424361198;40.951568603515625;-112.49340057373047;0.9004438519477844;-0.7384490966796875;-6.2183990478515625;-3.3205413818359375
1445424361231;42.226470947265625;-111.74679565429688;0.30138689279556274;-0.032379150390625;-6.473358154296875;-3.5558929443359375
1445424361264;44.23724365234375;-109.92181396484375;-1.3302408456802368;0.7129364013671875;-8.238555908203125;-6.41943359375
1445424361297;45.1392822265625;-108.1015396118164;-2.547705888748169;-0.0716094970703125;-14.299072265625;-7.811981201171875
1445424361330;45.839691162109375;-107.56478881835938;-2.518770694732666;0.9090576171875;-13.357635498046875;-8.6357421875
1445424361363;46.83697509765625;-108.37310028076172;-2.636362075805664;1.8308868408203125;-5.5907745361328125;-5.536834716796875
1445424361396;48.23345947265625;-109.30445861816406;-3.0886130332946777;3.439178466796875;-9.709564208984375;-0.82965087890625
1445424361429;48.6007080078125;-107.62020874023438;-3.4803643226623535;3.8510589599609375;-13.887191772460938;-0.6531219482421875
1445424361462;50.35223388671875;-103.18911743164062;-3.3076705932617188;3.3018798828125;-12.612335205078125;-4.1246795654296875
1445424361495;53.827972412109375;-101.86332702636719;-2.15073561668396;2.301605224609375;-6.43414306640625;2.6811370849609375
1445424361529;55.57940673828125;-101.02478790283203;-2.0308287143707275;1.811279296875;-9.356521606445312;2.8772735595703125
1445424361561;56.123779296875;-98.14016723632812;-1.8818010091781616;-2.5232696533203125;-11.180557250976562;0.955169677734375
1445424361594;57.23126220703125;-96.5608139038086;-1.098824381828308;1.30133056640625;-8.983871459960938;0.81787109375
1445424361626;61.63897705078125;-93.19601440429688;-0.010783161036670208;2.6546478271484375;-9.081939697265625;-0.6531219482421875
1445424361661;65.83663940429688;-90.55654907226562;0.0182980764657259;0.869842529296875;-10.19989013671875;0.111785888671875
1445424361693;68.32403564453125;-89.5876235961914;0.08955235779285431;0.0853118896484375;-9.670333862304688;0.5432891845703125
1445424361727;73.15948486328125;-88.2638931274414;0.034468553960323334;-0.4834747314453125;-9.729171752929688;0.5236663818359375
1445424361760;76.99700927734375;-87.05903625488281;0.028785834088921547;-1.1895599365234375;-9.788009643554688;0.4059906005859375
1445424361794;78.63876342773438;-86.39788055419922;0.02674872800707817;-0.954193115234375;-9.434967041015625;-0.1431732177734375
1445424361825;81.77362060546875;-85.17388153076172;-0.23837600648403168;-1.0718841552734375;-9.356521606445312;-0.2608642578125
1445424361858;84.50164794921875;-84.04952239990234;-1.0631697177886963;-1.0718841552734375;-9.748779296875;-0.123565673828125
1445424361891;85.72579956054688;-83.44798278808594;-1.5869053602218628;-0.718841552734375;-9.984146118164062;0.07257080078125
1445424361924;87.91696166992188;-81.99739837646484;-2.8707306385040283;-0.150054931640625;-9.846847534179688;-0.0254974365234375
1445424361957;89.06787109375;-81.20622253417969;-3.6670632362365723;-0.836517333984375;-10.788284301757812;0.0921783447265625
1445424361991;91.93975830078125;-80.0216064453125;-5.310765266418457;0.04608154296875;-11.376693725585938;-0.3589324951171875
1445424362024;94.828125;-79.40260314941406;-6.663177013397217;-0.287353515625;-10.729446411132812;0.0333404541015625
1445424362056;96.3297119140625;-79.25052642822266;-7.203607559204102;-1.2483978271484375;-12.200454711914062;-0.868865966796875
1445424362089;99.17471313476562;-79.1932373046875;-7.6663689613342285;-0.9934234619140625;-12.121994018554688;-0.3981475830078125
1445424362125;101.27468872070312;-80.07717895507812;-6.944093227386475;-0.777679443359375;-11.984695434570312;0.0333404541015625
1445424362156;102.01416015625;-81.19400787353516;-6.531248569488525;0.16375732421875;-11.572830200195312;0.327545166015625
1445424362189;103.20352172851562;-85.32746124267578;-6.019612789154053;3.1253662109375;-12.376968383789062;0.2883148193359375
1445424362223;104.34164428710938;-91.016845703125;-4.638088703155518;0.5560302734375;-14.416748046875;0.386383056640625
1445424362254;103.78179931640625;-93.49480438232422;-3.363959789276123;-0.0519866943359375;-13.357635498046875;0.1510162353515625
1445424362290;99.3829345703125;-97.4691390991211;-1.0079522132873535;1.2032623291015625;-11.239395141601562;0.1510162353515625
1445424362319;97.02865600585938;-99.70210266113281;-0.6430297493934631;1.438629150390625;-9.611495971679688;-0.9865570068359375
1445424362353;93.55722045898438;-104.79042053222656;-0.5442649722099304;0.8306121826171875;-8.728897094726562;-1.0453948974609375
1445424362385;90.34170532226562;-109.69322204589844;-0.8054527044296265;0.10491943359375;-8.120880126953125;-0.9669342041015625
1445424362419;88.70651245117188;-111.80836486816406;-1.0239545106887817;0.418731689453125;-7.5324859619140625;-0.4569854736328125
1445424362452;85.15985107421875;-114.90454864501953;-2.2282874584198;1.7132110595703125;-5.8849639892578125;-0.3981475830078125
1445424362491;83.06536865234375;-116.2688980102539;-3.5032293796539307;0.8306121826171875;-6.179168701171875;-2.2221832275390625
1445424362529;82.195068359375;-116.16666412353516;-3.9429678916931152;-0.091217041015625;-6.2576141357421875;-3.144012451171875
1445424362550;82.1021728515625;-115.67161560058594;-3.917262077331543;-0.3069610595703125;-6.1399383544921875;-3.261688232421875
1445424362585;82.5078125;-113.9444808959961;-3.782144069671631;-0.1304473876953125;-7.1598358154296875;-4.6150054931640625
1445424362617;82.5609130859375;-112.66239929199219;-3.7970938682556152;0.0656890869140625;-9.101547241210938;-5.73297119140625
1445424362652;82.02349853515625;-110.015869140625;-3.6854522228240967;-1.5818328857421875;-13.651840209960938;-7.5570068359375
1445424362684;80.88955688476562;-109.62150573730469;-2.9636805057525635;-0.0716094970703125;-10.396026611328125;-7.94927978515625
1445424362715;80.1072998046875;-110.4363021850586;-2.9643454551696777;0.928680419921875;-7.7678375244140625;-6.046783447265625
1445424362750;78.80657958984375;-111.23177337646484;-3.6327269077301025;2.066253662109375;-10.003753662109375;-1.810302734375
1445424362782;79.20361328125;-107.21505737304688;-4.067812919616699;2.8507843017578125;-17.280288696289062;-3.085174560546875
1445424362815;80.1826171875;-105.20342254638672;-3.8404700756073;3.2038116455078125;-13.259567260742188;-3.712799072265625
1445424362849;82.18524169921875;-104.55120849609375;-3.1539058685302734;3.6745452880859375;-4.649322509765625;3.83831787109375
1445424362881;83.32135009765625;-103.6825942993164;-3.5111899375915527;-0.3069610595703125;-10.062606811523438;2.1907958984375
1445424362914;84.83038330078125;-100.32159423828125;-4.3522515296936035;-3.170501708984375;-11.474761962890625;1.9358367919921875
1445424362947;87.72567749023438;-97.6075439453125;-3.7974140644073486;0.301055908203125;-10.02337646484375;-0.0451202392578125
1445424362980;88.76348876953125;-96.22599029541016;-3.692856550216675;1.30133056640625;-9.238845825195312;-0.88848876953125
1445424363014;90.10357666015625;-93.73303985595703;-3.9547128677368164;0.477569580078125;-9.788009643554688;-0.123565673828125
1445424363045;91.2144775390625;-92.93878173828125;-4.111281394958496;0.2618255615234375;-9.984146118164062;-0.2020263671875
1445424363079;93.21563720703125;-92.06126403808594;-4.464191913604736;-0.1304473876953125;-9.788009643554688;-0.3393096923828125
1445424363112;94.74163818359375;-91.23651885986328;-4.700234413146973;-0.91497802734375;-9.356521606445312;-0.5942840576171875
1445424363144;95.44781494140625;-90.77754974365234;-4.808258533477783;-0.954193115234375;-9.376129150390625;-0.751190185546875
1445424363178;96.409912109375;-89.76988220214844;-5.192694187164307;-0.8169097900390625;-9.317291259765625;-0.692352294921875
1445424363210;97.447998046875;-88.6982192993164;-5.954431533813477;0.2618255615234375;-9.493820190429688;-0.574676513671875
1445424363245;98.13604736328125;-88.06028747558594;-6.525514125823975;-0.1892852783203125;-9.45458984375;-0.1039581298828125
1445424363282;99.38055419921875;-86.54024505615234;-7.8834333419799805;-0.836517333984375;-9.552658081054688;0.4059906005859375
1445424363310;100.15896606445312;-85.17964172363281;-8.779134750366211;-0.97381591796875;-10.749069213867188;0.4844512939453125
1445424363350;100.96966552734375;-84.22501373291016;-9.646018981933594;-1.3072357177734375;-13.141891479492188;-0.9080963134765625
1445424363384;101.51846313476562;-83.8922119140625;-9.903273582458496;-2.8174591064453125;-12.455429077148438;-0.94732666015625
1445424363410;102.43499755859375;-83.65093231201172;-9.767146110534668;-3.2097320556640625;-12.514266967773438;-0.9080963134765625
1445424363451;102.19873046875;-84.61155700683594;-8.650832176208496;1.9093475341796875;-13.1026611328125;-1.1630706787109375
1445424363483;101.91439819335938;-85.64292907714844;-8.091986656188965;3.615692138671875;-11.78857421875;-0.9865570068359375
1445424363509;102.68179321289062;-89.61201477050781;-7.182321548461914;3.831451416015625;-10.905975341796875;-0.4766082763671875
1445424363551;104.05975341796875;-94.99946594238281;-5.988216400146484;2.5761871337890625;-12.47503662109375;-0.6138916015625
1445424363588;103.42266845703125;-99.22904205322266;-4.377191066741943;0.8894500732421875;-12.02392578125;-0.4569854736328125
1445424363607;103.42266845703125;-99.22904205322266;-4.377191066741943;0.16375732421875;-11.259017944335938;-0.2804718017578125
1445424363650;96.27493286132812;-104.64044952392578;-2.540720224380493;0.5560302734375;-9.729171752929688;-0.94732666015625
1445424363710;89.67120361328125;-109.21077728271484;-1.0262123346328735;1.7720489501953125;-8.042434692382812;-0.9080963134765625
1445424363725;89.67120361328125;-109.21077728271484;-1.0262123346328735;1.7720489501953125;-8.042434692382812;-0.9080963134765625
1445424363744;87.03494262695312;-110.4022445678711;-0.7917636632919312;1.791656494140625;-7.5324859619140625;-0.4373779296875
1445424363821;79.591064453125;-113.54939270019531;-1.5901799201965332;1.5759124755859375;-7.1990509033203125;-2.1045074462890625
1445424363827;79.591064453125;-113.54939270019531;-1.5901799201965332;1.5759124755859375;-7.1990509033203125;-2.1045074462890625
1445424363855;78.21282958984375;-113.9990234375;-2.322181224822998;0.7913818359375;-7.1402130126953125;-3.1244049072265625
1445424363887;77.80056762695312;-113.99861145019531;-2.6329503059387207;0.6148681640625;-6.924468994140625;-3.202850341796875
1445424363923;77.42874145507812;-113.21541595458984;-3.1014108657836914;-0.1696624755859375;-7.0225372314453125;-3.771636962890625
1445424363953;76.767822265625;-111.18666076660156;-3.2573230266571045;-1.3268585205078125;-9.631103515625;-5.90948486328125
1445424363987;76.326904296875;-110.11321258544922;-3.078989028930664;-1.169952392578125;-11.768951416015625;-6.674407958984375
1445424364020;75.958251953125;-109.39692687988281;-2.250885486602783;0.8109893798828125;-13.181106567382812;-7.5962371826171875
1445424364052;74.43792724609375;-110.21697235107422;-2.270195722579956;1.3405609130859375;-6.5322113037109375;-6.3409881591796875
1445424364086;73.43502807617188;-110.893310546875;-2.607513904571533;1.7720489501953125;-5.7476806640625;-3.45782470703125
1445424364118;73.52828979492188;-108.99005889892578;-2.853919506072998;2.73309326171875;-11.612045288085938;-0.77081298828125
1445424364153;74.69757080078125;-106.50604248046875;-2.556123971939087;2.5958099365234375;-17.6529541015625;-5.1837921142578125
1445424364185;76.51806640625;-103.90484619140625;-1.5503895282745361;2.8311614990234375;-11.965087890625;-3.3793792724609375
1445424364217;77.29510498046875;-104.19918823242188;-1.1187057495117188;-0.1696624755859375;-9.160385131835938;1.8966064453125
1445424364250;77.51806640625;-102.8628158569336;-1.3479154109954834;-2.3859710693359375;-10.31756591796875;1.7985382080078125
1445424364283;79.58993530273438;-99.59733581542969;-0.8401092290878296;0.7129364013671875;-9.729171752929688;1.0924530029296875
1445424364316;81.43142700195312;-97.8857650756836;-0.5344939827919006;2.419281005859375;-8.709274291992188;0.1706390380859375
1445424364349;83.17938232421875;-94.53614807128906;-0.5457830429077148;1.3993988037109375;-9.258453369140625;0.81787109375
1445424364382;84.9617919921875;-92.11096954345703;-0.423803448677063;0.10491943359375;-10.435256958007812;0.19024658203125
1445424364415;86.45071411132812;-91.27690124511719;-0.23413442075252533;-0.58154296875;-9.513427734375;0.2098541259765625
1445424364448;88.90081787109375;-89.97135925292969;-0.07360384613275528;-0.777679443359375;-9.356521606445312;0.386383056640625
1445424364481;90.9078369140625;-88.73775482177734;-0.23053999245166779;-0.4246368408203125;-9.886077880859375;0.4256134033203125
1445424364514;92.6666259765625;-87.40975189208984;-0.5091802477836609;0.04608154296875;-9.846847534179688;0.386383056640625
1445424364547;93.75201416015625;-86.75096893310547;-0.84164959192276;0.654083251953125;-10.062606811523438;0.1706390380859375
1445424364580;96.49075317382812;-85.56105041503906;-1.7871371507644653;0.8894500732421875;-9.709564208984375;-0.0451202392578125
1445424364613;97.99169921875;-85.00904846191406;-2.2090649604797363;-1.6406707763671875;-9.3369140625;0.680572509765625
1445424364646;100.90399169921875;-84.04082489013672;-2.840202808380127;-2.8959197998046875;-9.846847534179688;1.1709136962890625
1445424364680;103.515380859375;-83.48200988769531;-2.9727542400360107;-1.4837646484375;-11.141326904296875;0.111785888671875
1445424364713;105.03134155273438;-83.40184783935547;-3.116162061691284;-0.7580718994140625;-11.435531616210938;-0.633514404296875
1445424364745;108.58427429199219;-83.97449493408203;-3.4886562824249268;-1.6995086669921875;-11.90625;-1.143463134765625
1445424364778;110.17692565917969;-84.75331115722656;-3.415900230407715;0.22259521484375;-12.063156127929688;-1.1630706787109375
1445424364811;113.00778198242188;-87.2747573852539;-2.880303382873535;2.5761871337890625;-12.200454711914062;-1.3003692626953125
1445424364844;116.02182006835938;-91.45956420898438;-2.620824098587036;5.7927703857421875;-12.220062255859375;-0.7119598388671875
1445424364877;118.34768676757812;-94.28194427490234;-2.539729118347168;3.7725982666015625;-13.083053588867188;-0.2216339111328125
1445424364910;123.89497375488281;-99.60533142089844;-1.5403401851654053;2.38006591796875;-12.435806274414062;-0.4766082763671875
1445424364943;125.26889038085938;-102.8165054321289;-0.06304436177015305;1.36016845703125;-11.45513916015625;-0.9865570068359375
1445424364976;124.26870727539062;-104.3992691040039;0.584022045135498;1.9485626220703125;-8.650436401367188;-1.51611328125
1445424365010;123.58450317382812;-107.3602523803711;1.3902080059051514;2.2231597900390625;-7.68939208984375;-1.5357208251953125
1445424365042;123.7691650390625;-109.73164367675781;1.565365195274353;1.47784423828125;-8.1405029296875;-2.08489990234375
1445424365076;123.72576904296875;-110.83112335205078;1.5239112377166748;1.6935882568359375;-7.86590576171875;-1.692626953125
1445424365108;123.19775390625;-112.79553985595703;0.6860013008117676;2.3996734619140625;-7.257904052734375;-1.7906951904296875
1445424365141;123.84860229492188;-113.76827239990234;-0.794859766960144;1.47784423828125;-7.57171630859375;-3.3205413818359375
1445424365174;124.79287719726562;-113.91409301757812;-1.3447400331497192;0.1833648681640625;-8.120880126953125;-4.144287109375
1445424365207;127.09884643554688;-113.84962463378906;-1.8701834678649902;-1.5426025390625;-7.669769287109375;-4.458099365234375
1445424365240;129.2047119140625;-113.59321594238281;-2.1950769424438477;-0.777679443359375;-6.72833251953125;-3.7324066162109375
1445424365274;129.954345703125;-113.24768829345703;-2.437502384185791;-0.1696624755859375;-6.7087249755859375;-3.7520294189453125
1445424365307;130.99440002441406;-111.63890838623047;-3.0921714305877686;0.1441497802734375;-9.238845825195312;-6.0271759033203125
1445424365339;131.32733154296875;-110.58666229248047;-3.4119062423706055;0.4579620361328125;-12.200454711914062;-7.302032470703125
1445424365372;132.51406860351562;-109.58467864990234;-3.6163694858551025;1.41900634765625;-11.474761962890625;-7.9100494384765625
1445424365407;133.61090087890625;-110.79244995117188;-3.8800482749938965;3.0272979736328125;-7.1598358154296875;-5.8114166259765625
1445424365439;133.64173889160156;-111.72160339355469;-4.292196750640869;3.3018798828125;-6.414520263671875;-4.144287109375
1445424365471;132.751708984375;-111.74005889892578;-5.405277252197266;3.4784088134765625;-9.023101806640625;-3.57550048828125
1445424365507;133.8358917236328;-109.25679779052734;-5.4505720138549805;3.81182861328125;-14.789398193359375;-4.340423583984375
1445424365538;134.94903564453125;-107.61286926269531;-4.984752655029297;4.1060333251953125;-15.279739379882812;-4.673858642578125
1445424365574;136.9738006591797;-105.28247833251953;-3.7920265197753906;2.55657958984375;-6.924468994140625;1.1120758056640625
1445424365603;140.2280731201172;-104.52027893066406;-2.6806132793426514;1.850494384765625;-8.964248657226562;2.4261627197265625
1445424365636;141.96290588378906;-103.05520629882812;-2.5881388187408447;0.2618255615234375;-10.552932739257812;1.7200775146484375
1445424365669;146.08016967773438;-99.7461166381836;-1.4907681941986084;-0.5619354248046875;-10.297958374023438;2.0338897705078125
1445424365703;151.19198608398438;-96.22167205810547;-0.2665576636791229;1.7132110595703125;-9.317291259765625;-0.064727783203125
1445424365736;153.9075927734375;-94.58335876464844;-0.1787266731262207;1.2621002197265625;-9.768402099609375;-0.2608642578125
1445424365769;159.85203552246094;-92.05709075927734;-0.1426417976617813;-0.4246368408203125;-10.749069213867188;1.3474273681640625
1445424365803;162.92404174804688;-91.22053527832031;-0.05871829017996788;-1.5818328857421875;-10.121444702148438;0.955169677734375
1445424365847;170.74652099609375;-89.6081771850586;-0.03216421976685524;-1.856414794921875;-10.003753662109375;0.641357421875
1445424365867;172.63821411132812;-88.99152374267578;-0.04855070263147354;-1.4445343017578125;-9.925308227539062;0.4648284912109375
1445424365901;174.41018676757812;-88.32234954833984;-0.11391463130712509;-0.777679443359375;-9.944915771484375;0.2883148193359375
1445424365933;177.7074432373047;-87.19612884521484;-0.5761541128158569;-0.34619140625;-10.003753662109375;0.2686920166015625
1445424365965;179.1688232421875;-86.74168395996094;-0.9137073755264282;-0.4834747314453125;-10.08221435546875;0.0333404541015625
1445424365999;181.74884033203125;-86.11748504638672;-1.6071022748947144;-0.4246368408203125;-9.925308227539062;-0.0843353271484375
1445424366032;183.91156005859375;-85.57032775878906;-2.3534817695617676;-0.5030975341796875;-9.631103515625;-0.1039581298828125
1445424366065;184.83502197265625;-85.25049591064453;-2.82818341255188;-0.4638671875;-9.552658081054688;0.111785888671875
1445424366098;186.60888671875;-84.51726531982422;-4.062173366546631;-0.3069610595703125;-9.670333862304688;0.111785888671875
1445424366131;188.5496826171875;-83.63964080810547;-5.535247325897217;-0.1696624755859375;-9.631103515625;0.2294769287109375
1445424366164;189.66790771484375;-83.12561798095703;-6.26921272277832;-0.777679443359375;-9.788009643554688;0.4059906005859375
1445424366197;192.06756591796875;-82.11016082763672;-7.830764293670654;-0.8757476806640625;-10.415634155273438;0.6021270751953125
1445424366230;193.8265380859375;-81.56095886230469;-9.458028793334961;0.3206634521484375;-10.5333251953125;-0.7315826416015625
1445424366263;194.7899169921875;-81.45732116699219;-10.168538093566895;-0.97381591796875;-11.21978759765625;-0.8492584228515625
1445424366296;195.89447021484375;-81.4598617553711;-10.853981018066406;-2.17022705078125;-11.886642456054688;-0.4569854736328125
1445424366329;196.06829833984375;-81.58588409423828;-10.970284461975098;-1.6602783203125;-12.65155029296875;0.7786407470703125
1445424366363;194.8619384765625;-82.70240020751953;-10.802021026611328;0.7717742919921875;-11.78857421875;0.621734619140625
1445424366396;193.885498046875;-86.1910400390625;-10.185415267944336;2.2819976806640625;-11.925857543945312;-1.378814697265625
1445424366428;194.6048583984375;-88.8573989868164;-9.442936897277832;-1.856414794921875;-12.945755004882812;-0.4373779296875
1445424366462;195.6212158203125;-93.71570587158203;-6.9637675285339355;-0.91497802734375;-12.886917114257812;0.4059906005859375
1445424366494;191.7181396484375;-97.70341491699219;-4.394424915313721;1.24249267578125;-11.847412109375;0.81787109375
1445424366530;188.45538330078125;-99.4930648803711;-3.519115924835205;0.2618255615234375;-10.5333251953125;-0.6138916015625
1445424366560;180.94476318359375;-103.29573822021484;-2.0529770851135254;0.6344757080078125;-9.650726318359375;-0.6531219482421875
1445424366593;174.37022399902344;-107.0657958984375;-1.1525195837020874;0.3991241455078125;-9.709564208984375;0.13140869140625
1445424366626;171.2072296142578;-108.5921401977539;-0.8252689838409424;-0.4834747314453125;-10.160659790039062;-0.3785400390625
1445424366659;164.15599060058594;-111.82233428955078;-0.05264796316623688;-1.856414794921875;-9.356521606445312;-1.084625244140625
1445424366692;160.11204528808594;-113.48271942138672;0.3244818150997162;-1.8956451416015625;-8.76812744140625;-1.378814697265625
1445424366725;152.03759765625;-116.14678192138672;0.8913969993591309;-1.7191162109375;-9.180007934570312;-1.6337890625
1445424366758;143.4752960205078;-118.408447265625;1.3443011045455933;-0.7384490966796875;-9.513427734375;-1.18267822265625
1445424366792;138.70970153808594;-119.38224029541016;1.5140072107315063;0.0068511962890625;-9.807632446289062;-1.6533966064453125
1445424366824;129.77066040039062;-121.0654525756836;1.737847924232483;1.0855865478515625;-9.768402099609375;-1.8495330810546875
1445424366857;122.66250610351562;-122.26873779296875;1.6729631423950195;2.811553955078125;-8.689666748046875;-1.5945587158203125
1445424366890;120.0069580078125;-122.645751953125;1.3838316202163696;3.0861358642578125;-7.86590576171875;-1.4768829345703125
1445424366923;116.29519653320312;-122.92942810058594;0.6540013551712036;2.5369720458984375;-7.1402130126953125;-2.02606201171875
1445424366956;115.45558166503906;-122.2905044555664;0.08812654763460159;1.615142822265625;-6.7871856689453125;-3.6147308349609375
1445424366990;115.84556579589844;-121.63850402832031;-0.23989403247833252;0.8894500732421875;-6.630279541015625;-4.59539794921875
1445424367024;117.05322265625;-119.83512115478516;-1.5233714580535889;-0.8169097900390625;-7.4736480712890625;-6.6940155029296875
1445424367055;117.24557495117188;-118.71997833251953;-2.3564014434814453;-0.6796112060546875;-8.709274291992188;-6.92938232421875
1445424367090;117.67547607421875;-116.8661117553711;-3.3004512786865234;-0.522705078125;-9.042709350585938;-6.7724761962890625
1445424367125;119.59527587890625;-115.21942901611328;-3.187199831008911;2.8311614990234375;-10.454864501953125;-6.3998260498046875
1445424367155;119.80072021484375;-114.43026733398438;-3.664685010910034;3.6549224853515625;-13.436080932617188;-6.3998260498046875
1445424367187;120.63201904296875;-113.60334014892578;-3.75766658782959;1.7720489501953125;-12.082763671875;-5.3406982421875
1445424367220;121.65121459960938;-113.08036804199219;-2.285374164581299;2.2035369873046875;-7.92474365234375;-1.143463134765625
1445424367253;121.75933837890625;-112.69676971435547;-1.7996629476547241;2.635040283203125;-6.4537506103515625;-1.2807464599609375
1445424367286;123.211669921875;-110.91744995117188;-1.2982532978057861;0.595245361328125;-9.807632446289062;0.111785888671875
1445424367319;125.8564453125;-107.88056945800781;-0.21638770401477814;0.10491943359375;-11.121719360351562;-0.3589324951171875
1445424367353;127.37350463867188;-106.15105438232422;0.08076359331607819;1.1444244384765625;-10.180282592773438;-0.7904205322265625
1445424367384;131.69178771972656;-102.78561401367188;-0.2719723582267761;1.75244140625;-9.552658081054688;-0.3393096923828125
1445424367419;136.3300018310547;-99.23517608642578;-0.9413500428199768;-0.91497802734375;-10.19989013671875;1.4847259521484375
1445424367453;138.4165496826172;-97.49456787109375;-1.0443732738494873;-2.4644317626953125;-9.533035278320312;1.308197021484375
1445424367485;142.06463623046875;-94.27137756347656;-1.14565110206604;-1.15032958984375;-9.866470336914062;0.5236663818359375
1445424367517;143.55116271972656;-92.73226928710938;-1.3501938581466675;0.2029876708984375;-10.356796264648438;0.111785888671875
1445424367550;146.3049774169922;-89.93143463134766;-1.9388407468795776;0.595245361328125;-9.90570068359375;-0.123565673828125
1445424367583;148.44204711914062;-87.56607818603516;-2.8735036849975586;0.1245269775390625;-9.631103515625;-0.123565673828125
1445424367616;149.45411682128906;-86.64556884765625;-3.390751838684082;0.04608154296875;-9.944915771484375;-0.182403564453125
1445424367649;151.49185180664062;-84.94029235839844;-4.49872350692749;-0.2481231689453125;-10.08221435546875;-0.182403564453125
1445424367682;153.49107360839844;-83.2509765625;-5.9195733070373535;-0.1304473876953125;-10.415634155273438;-0.633514404296875
1445424367715;154.6464080810547;-82.45829772949219;-6.75684928894043;-0.032379150390625;-10.101821899414062;-1.2219085693359375
1445424367749;157.3841094970703;-81.39259338378906;-8.144393920898438;-0.7384490966796875;-10.7098388671875;-1.457275390625
1445424367782;159.6978759765625;-81.17150115966797;-8.692416191101074;-2.3859710693359375;-11.808181762695312;-0.7904205322265625
1445424367814;160.4224853515625;-81.37360382080078;-8.651792526245117;-2.856689453125;-13.632217407226562;-1.7318572998046875
1445424367847;160.73477172851562;-82.3279037475586;-7.857184886932373;-1.3268585205078125;-12.514266967773438;-1.3984375
1445424367881;160.1571502685547;-85.23326110839844;-6.64720344543457;0.34027099609375;-12.396575927734375;-0.4569854736328125
1445424367915;159.40235900878906;-87.70162200927734;-5.97658634185791;0.8306121826171875;-13.298797607421875;0.8374786376953125
1445424367946;157.799072265625;-93.69469451904297;-3.8481457233428955;0.3206634521484375;-15.162063598632812;1.32781982421875
1445424367979;155.92588806152344;-96.06507873535156;-2.362286329269409;-0.6796112060546875;-13.691055297851562;1.2297515869140625
1445424368012;149.0563201904297;-99.99564361572266;0.9463418126106262;0.5167999267578125;-11.827789306640625;1.21014404296875
1445424368045;140.72991943359375;-104.81108856201172;1.5500290393829346;1.6347503662109375;-9.709564208984375;0.5432891845703125
1445424368080;137.71791076660156;-107.50373840332031;1.42025625705719;1.850494384765625;-9.00347900390625;0.13140869140625
1445424368112;132.49832153320312;-112.51693725585938;1.6789828538894653;1.18365478515625;-9.180007934570312;0.0333404541015625
1445424368144;126.94647216796875;-117.02894592285156;1.7156240940093994;1.732818603515625;-7.434417724609375;0.2294769287109375
1445424368178;124.55015563964844;-118.91746520996094;1.3544178009033203;1.2621002197265625;-6.983306884765625;-0.4373779296875
1445424368210;121.53070068359375;-121.21636199951172;0.8822546601295471;0.0853118896484375;-6.924468994140625;-2.8302001953125
1445424368243;120.57901000976562;-121.8398666381836;0.8503198027610779;0.16375732421875;-5.6299896240234375;-3.144012451171875
1445424368276;118.33821105957031;-122.37850952148438;0.27281588315963745;0.2618255615234375;-4.865081787109375;-2.7125244140625
1445424368310;116.527099609375;-121.54303741455078;-0.6123432517051697;0.242218017578125;-5.0808258056640625;-2.8498077392578125
1445424368342;115.83554077148438;-120.46138000488281;-1.0318036079406738;0.7717742919921875;-6.983306884765625;-3.830474853515625
1445424368376;114.36358642578125;-117.32147216796875;-1.8001738786697388;0.6933135986328125;-8.120880126953125;-4.77191162109375
1445424368409;112.13583374023438;-114.26039123535156;-2.0020079612731934;-1.6406707763671875;-13.749893188476562;-7.4001007080078125
1445424368442;111.05860900878906;-113.48255157470703;-1.4881137609481812;-1.03265380859375;-11.592437744140625;-8.145401000976562
1445424368475;108.48741149902344;-113.10433197021484;-0.8868552446365356;-0.2481231689453125;-9.06231689453125;-6.8901519775390625
1445424368508;105.98828125;-112.47624206542969;-1.4860451221466064;3.1645965576171875;-13.946029663085938;-1.437652587890625
1445424368540;105.16838073730469;-110.90149688720703;-2.1894941329956055;3.439178466796875;-18.378631591796875;-5.1249542236328125
1445424368573;101.82366943359375;-108.36134338378906;-3.9858925342559814;1.5759124755859375;-7.7874603271484375;-2.4183197021484375
1445424368606;100.58248901367188;-110.40381622314453;-3.564117193222046;2.55657958984375;-7.2775115966796875;3.60296630859375
1445424368643;100.85678100585938;-109.64791870117188;-3.344501495361328;1.0659637451171875;-10.905975341796875;2.6811370849609375
1445424368673;99.24200439453125;-105.90200805664062;-2.9175004959106445;-1.3660736083984375;-9.395751953125;3.0537872314453125
1445424368705;99.15048217773438;-104.06690979003906;-2.1036911010742188;2.55657958984375;-8.925033569335938;0.13140869140625
1445424368739;99.99530029296875;-100.10185241699219;-1.565973162651062;2.8899993896484375;-9.591873168945312;0.24908447265625
1445424368773;101.951904296875;-96.2834243774414;-1.3555023670196533;1.556304931640625;-10.552932739257812;0.562896728515625
1445424368804;103.30984497070312;-94.9698715209961;-1.0349631309509277;-0.5030975341796875;-9.788009643554688;0.19024658203125
1445424368843;107.05514526367188;-93.38629913330078;-0.20933382213115692;-0.7384490966796875;-9.788009643554688;0.2294769287109375
1445424368870;110.060546875;-91.92166900634766;0.06283774971961975;-0.6796112060546875;-9.807632446289062;0.562896728515625
1445424368903;111.1904296875;-91.17858123779297;0.16635973751544952;-0.4834747314453125;-9.768402099609375;0.562896728515625
1445424368936;112.9241943359375;-89.57310485839844;0.37188252806663513;-0.228515625;-9.297683715820312;0.641357421875
1445424368969;114.201904296875;-87.83648681640625;0.059453390538692474;-0.228515625;-9.591873168945312;0.621734619140625
1445424369003;114.88909912109375;-86.97090148925781;-0.3275451958179474;-0.150054931640625;-9.827239990234375;0.5236663818359375
1445424369035;116.12765502929688;-85.21293640136719;-1.375932216644287;0.1245269775390625;-9.748779296875;0.2294769287109375
1445424369068;117.432861328125;-83.3587417602539;-2.7186310291290283;0.22259521484375;-10.25872802734375;0.052947998046875
1445424369102;118.29005432128906;-82.44216918945312;-3.474440097808838;-0.208892822265625;-10.788284301757812;0.1510162353515625
1445424369134;120.24626159667969;-80.99651336669922;-4.762200832366943;-1.15032958984375;-11.121719360351562;0.1510162353515625
1445424369169;121.04794311523438;-80.63746643066406;-5.10060453414917;-1.6995086669921875;-11.200164794921875;0.24908447265625
1445424369200;122.28709411621094;-80.27346801757812;-5.501360893249512;-2.150604248046875;-12.671173095703125;-0.7904205322265625
1445424369233;123.16128540039062;-79.83610534667969;-5.282309055328369;-0.7384490966796875;-12.141616821289062;-0.574676513671875
1445424369266;123.59103393554688;-79.8425064086914;-4.924100875854492;-0.4246368408203125;-13.867584228515625;-0.9865570068359375
1445424369299;124.16619873046875;-81.4640884399414;-3.547102689743042;-0.0716094970703125;-12.553482055664062;-0.6138916015625
1445424369332;123.6629638671875;-85.6480484008789;-2.55475115776062;4.184478759765625;-11.45513916015625;0.4059906005859375
1445424369365;122.89710998535156;-88.61937713623047;-2.277986764907837;4.517913818359375;-12.47503662109375;1.190521240234375
1445424369399;121.7259521484375;-94.26495361328125;-1.5309147834777832;0.869842529296875;-12.867294311523438;0.7982635498046875
1445424369432;118.97280883789062;-99.5945816040039;-0.44301557540893555;1.850494384765625;-11.710113525390625;0.4059906005859375
1445424369464;117.13568115234375;-102.28766632080078;-0.2747471332550049;1.928955078125;-11.21978759765625;0.5432891845703125
1445424369497;113.93939208984375;-107.55254364013672;0.10001452267169952;1.046356201171875;-8.925033569335938;-0.5550537109375
1445424369531;112.4791259765625;-110.05271911621094;0.30359479784965515;0.8502197265625;-8.101272583007812;-1.1630706787109375
1445424369563;109.50721740722656;-114.46542358398438;0.4333711564540863;1.0659637451171875;-8.003204345703125;-0.77081298828125
1445424369596;106.6007080078125;-116.931396484375;-0.02909831516444683;2.183929443359375;-6.0811004638671875;-0.064727783203125
1445424369629;105.66049194335938;-117.5255126953125;-0.37466588616371155;1.36016845703125;-6.1007080078125;-1.692626953125
1445424369662;105.158935546875;-117.71980285644531;-0.8677216172218323;0.8306121826171875;-6.2772369384765625;-2.6536865234375
1445424369695;105.97015380859375;-117.08976745605469;-1.0741493701934814;-0.1108245849609375;-6.630279541015625;-3.85009765625
1445424369731;106.56378173828125;-116.46839141845703;-1.1647332906723022;-0.2481231689453125;-7.1402130126953125;-4.399261474609375
1445424369761;107.09390258789062;-114.48069763183594;-1.214109182357788;-0.58154296875;-9.376129150390625;-6.92938232421875
1445424369794;106.26260375976562;-112.65139770507812;-0.6764298677444458;-0.7580718994140625;-14.083328247070312;-6.98822021484375
1445424369827;106.24378967285156;-112.54560089111328;0.02951495721936226;-0.032379150390625;-12.690780639648438;-8.204238891601562
1445424369860;104.73809814453125;-113.0303955078125;0.6550875306129456;0.595245361328125;-6.61065673828125;-6.478271484375
1445424369893;103.05499267578125;-113.43424224853516;0.3524741232395172;2.183929443359375;-12.47503662109375;0.30792236328125
1445424369927;103.314453125;-111.82073974609375;0.01132103893905878;3.5960845947265625;-18.535537719726562;1.4062652587890625
1445424369959;105.74710083007812;-107.04862976074219;-0.06474678963422775;2.61541748046875;-11.023651123046875;-3.4382171630859375
1445424369992;105.648193359375;-106.42882537841797;0.5001794099807739;3.81182861328125;-3.962860107421875;4.603240966796875
1445424370025;108.94654846191406;-105.0866470336914;1.4849690198898315;2.2231597900390625;-8.120880126953125;2.975341796875
1445424370058;111.43917846679688;-100.75833892822266;1.0858891010284424;-3.6412200927734375;-11.90625;2.1907958984375
1445424370091;113.17355346679688;-98.94092559814453;1.6395938396453857;-1.5622100830078125;-10.278350830078125;1.6220245361328125
1445424370125;115.58267211914062;-94.94148254394531;2.114409923553467;2.0858612060546875;-9.042709350585938;-0.633514404296875
1445424370157;116.42593383789062;-93.22306823730469;2.2597718238830566;0.477569580078125;-10.376419067382812;0.7198028564453125
1445424370190;120.14375305175781;-90.71583557128906;2.66144061088562;0.28143310546875;-10.08221435546875;0.1510162353515625
1445424370225;124.0770263671875;-89.4683609008789;2.7432305812835693;-0.326568603515625;-9.709564208984375;0.7001953125
1445424370258;125.63153076171875;-88.8691177368164;2.794308662414551;-0.58154296875;-9.45458984375;0.7394256591796875
1445424370294;128.20799255371094;-87.58735656738281;2.9711005687713623;-0.267730712890625;-9.513427734375;0.621734619140625
1445424370322;130.2976837158203;-86.0969467163086;2.6674983501434326;-0.091217041015625;-9.650726318359375;0.4844512939453125
1445424370355;131.280029296875;-85.3451919555664;2.1220340728759766;0.4971771240234375;-9.827239990234375;0.13140869140625
1445424370389;133.41683959960938;-83.90476989746094;0.5589966773986816;0.2618255615234375;-9.90570068359375;-0.1431732177734375
1445424370422;136.14053344726562;-82.39939880371094;-0.999355137348175;-0.6207733154296875;-10.337188720703125;-0.005889892578125
1445424370456;137.53086853027344;-81.74394226074219;-1.6008989810943604;-1.8760223388671875;-10.25872802734375;0.30792236328125
1445424370487;140.05039978027344;-80.75215148925781;-2.280109167098999;-2.4644317626953125;-10.376419067382812;0.759033203125
1445424370521;142.18077087402344;-80.1431655883789;-2.8311450481414795;-0.91497802734375;-12.161224365234375;-0.5354461669921875
1445424370553;143.49734497070312;-79.97798919677734;-3.0223817825317383;-0.4638671875;-12.29852294921875;-0.6138916015625
1445424370586;146.5718536376953;-80.31114196777344;-3.0034611225128174;-0.7384490966796875;-12.200454711914062;-0.7315826416015625
1445424370619;149.29473876953125;-82.32506561279297;-2.2403275966644287;0.34027099609375;-11.533599853515625;-0.5550537109375
1445424370653;149.93438720703125;-84.17313385009766;-2.1098852157592773;3.8510589599609375;-10.905975341796875;0.2686920166015625
1445424370685;151.4291229248047;-89.62804412841797;-1.99489426612854;4.439453125;-13.063430786132812;1.2885894775390625
1445424370718;153.13316345214844;-92.50923919677734;-1.707129716873169;1.8897247314453125;-12.494644165039062;-0.3981475830078125
1445424370751;155.2984619140625;-97.16870880126953;-0.163689985871315;1.3209381103515625;-11.847412109375;-0.692352294921875
1445424370784;153.11749267578125;-101.24365997314453;1.4899694919586182;1.791656494140625;-9.944915771484375;-0.4373779296875
1445424370817;152.40843200683594;-103.51383972167969;1.9989819526672363;1.811279296875;-8.925033569335938;-0.868865966796875
1445424370850;151.26490783691406;-107.34724426269531;2.6800010204315186;1.1444244384765625;-8.532760620117188;-1.378814697265625
1445424370883;149.55458068847656;-110.53299713134766;3.2935521602630615;2.125091552734375;-7.944366455078125;-0.88848876953125
1445424370916;148.56915283203125;-111.97857666015625;3.4497287273406982;2.9684600830078125;-7.23828125;-0.4373779296875
1445424370950;147.56292724609375;-113.38895416259766;3.0095326900482178;1.732818603515625;-7.2186737060546875;-1.829925537109375
1445424370982;147.80125427246094;-113.55817413330078;2.6526856422424316;-0.405029296875;-7.8462982177734375;-3.6735687255859375
1445424371014;149.1253204345703;-113.6911849975586;2.1630735397338867;-0.4442596435546875;-7.3363494873046875;-3.889312744140625
1445424371048;150.75270080566406;-113.59212493896484;1.8574888706207275;-0.3854217529296875;-6.43414306640625;-3.536285400390625
1445424371081;151.96043395996094;-112.49041748046875;1.5871000289916992;-0.8169097900390625;-7.35595703125;-4.2423553466796875
1445424371114;152.15248107910156;-111.52883911132812;1.5216710567474365;-1.169952392578125;-8.571990966796875;-5.1445770263671875
1445424371147;152.2982177734375;-109.42376708984375;1.9117646217346191;-1.111114501953125;-13.2203369140625;-6.92938232421875
1445424371180;152.81610107421875;-109.03121185302734;2.370323896408081;1.6347503662109375;-11.121719360351562;-8.792648315429688
1445424371214;153.10252380371094;-110.19512176513672;2.2861406803131104;1.850494384765625;-6.8852386474609375;-7.10589599609375
1445424371246;152.73382568359375;-111.91740417480469;0.5224279165267944;2.73309326171875;-6.2772369384765625;-1.8691558837890625
1445424371281;153.0603790283203;-111.27095794677734;-0.37049081921577454;3.69415283203125;-12.749618530273438;-1.437652587890625
1445424371312;155.04066467285156;-106.925537109375;-1.3461421728134155;3.890289306640625;-17.7706298828125;-2.7713623046875
1445424371345;158.26231384277344;-103.11355590820312;-0.5469032526016235;1.791656494140625;-11.141326904296875;-2.7909698486328125
1445424371379;160.07110595703125;-102.89432525634766;0.400785893201828;0.928680419921875;-6.473358154296875;1.6024017333984375
1445424371410;163.1486358642578;-101.00752258300781;0.8408136367797852;1.2817230224609375;-8.101272583007812;3.583343505859375
1445424371444;165.8916778564453;-97.21270751953125;0.5363211631774902;-1.111114501953125;-11.023651123046875;1.4258880615234375
1445424371477;168.60043334960938;-95.5009994506836;0.9523779153823853;-0.208892822265625;-10.905975341796875;1.2297515869140625
1445424371511;173.46917724609375;-92.0688247680664;1.8410907983779907;1.850494384765625;-9.513427734375;-0.6138916015625
1445424371543;175.40875244140625;-90.57129669189453;2.0655503273010254;-0.1892852783203125;-9.513427734375;0.621734619140625
1445424371576;179.69561767578125;-88.35350799560547;2.2105813026428223;-0.640380859375;-9.96453857421875;0.7786407470703125
1445424371609;183.6097412109375;-86.74858856201172;2.2684216499328613;-0.8169097900390625;-9.552658081054688;0.4256134033203125
1445424371642;185.1033935546875;-85.89140319824219;2.3021581172943115;-0.6796112060546875;-9.356521606445312;0.6021270751953125
1445424371675;187.43524169921875;-83.97360229492188;2.0580978393554688;-0.8169097900390625;-9.45458984375;0.1510162353515625
1445424371709;189.524169921875;-82.11441040039062;1.0642845630645752;-0.836517333984375;-9.709564208984375;0.3471527099609375
1445424371741;190.33050537109375;-81.21985626220703;0.3400997817516327;-0.228515625;-9.68994140625;0.111785888671875
1445424371774;191.7861328125;-79.46142578125;-1.1709482669830322;-0.1892852783203125;-9.768402099609375;0.24908447265625
1445424371806;193.10443115234375;-77.82151794433594;-2.756453037261963;0.7325439453125;-10.062606811523438;0.58251953125
1445424371840;193.82073974609375;-77.07696533203125;-3.637869119644165;0.5756378173828125;-10.19989013671875;0.759033203125
1445424371874;195.3720703125;-75.92265319824219;-5.1912841796875;0.7129364013671875;-10.611770629882812;0.7786407470703125
1445424371907;196.95465087890625;-75.12652587890625;-6.308818817138672;0.536407470703125;-12.337738037109375;-0.6531219482421875
1445424371939;198.10528564453125;-74.88809967041016;-6.875213146209717;0.3795013427734375;-12.318130493164062;-0.692352294921875
1445424371972;200.82086181640625;-74.71736907958984;-7.80242395401001;-1.4445343017578125;-12.906524658203125;-0.692352294921875
1445424372006;202.115478515625;-75.09403991699219;-7.844013690948486;-1.5033721923828125;-12.239669799804688;-0.7315826416015625
1445424372041;203.5997314453125;-77.12215423583984;-6.545187950134277;-0.150054931640625;-10.19989013671875;0.994384765625
1445424372073;203.8902587890625;-81.93648529052734;-4.867862701416016;4.517913818359375;-13.985260009765625;-0.005889892578125
1445424372105;204.34619140625;-85.34112548828125;-4.118209362030029;3.949127197265625;-15.6719970703125;0.5236663818359375
1445424372137;205.44403076171875;-91.28165435791016;-1.769106388092041;0.34027099609375;-14.632492065429688;-0.0254974365234375
1445424372170;201.3837890625;-95.35307312011719;0.5282807350158691;1.3797760009765625;-9.788009643554688;0.81787109375
1445424372203;199.04833984375;-98.0322494506836;0.6128007173538208;1.7132110595703125;-8.88580322265625;0.1510162353515625
1445424372236;196.10443115234375;-103.01805114746094;0.6615867018699646;0.9090576171875;-9.00347900390625;-0.574676513671875
1445424372273;194.0955810546875;-107.93254852294922;1.499036431312561;0.7521514892578125;-9.199615478515625;-0.574676513671875
1445424372303;192.7655029296875;-110.13704681396484;1.9191893339157104;1.6935882568359375;-8.807342529296875;0.562896728515625
1445424372335;189.5189208984375;-113.32101440429688;1.4801812171936035;2.360443115234375;-6.944091796875;0.4059906005859375
1445424372369;188.5576171875;-114.51509857177734;0.9308921098709106;1.164031982421875;-6.55181884765625;-1.0257720947265625
1445424372401;188.25909423828125;-116.35894012451172;0.2518755793571472;0.34027099609375;-6.0418701171875;-3.16363525390625
1445424372435;189.11968994140625;-117.09751892089844;-0.2318723499774933;0.22259521484375;-5.23773193359375;-2.9478759765625
1445424372473;189.87078857421875;-117.05320739746094;-0.33856678009033203;0.1833648681640625;-5.1200408935546875;-2.9478759765625
1445424372500;191.54248046875;-115.41627502441406;-0.41215163469314575;-0.0716094970703125;-6.9636993408203125;-4.4973297119140625
1445424372533;191.98095703125;-113.88999938964844;-0.6562256217002869;-1.9936981201171875;-11.592437744140625;-7.6746826171875
1445424372566;192.4830322265625;-110.90576171875;-1.2562549114227295;-2.5821075439453125;-14.083328247070312;-8.282699584960938
1445424372599;192.944091796875;-110.56806945800781;-0.9061755537986755;0.7521514892578125;-10.729446411132812;-8.12579345703125
1445424372632;193.0537109375;-111.38331604003906;-0.9207738637924194;1.9485626220703125;-6.8852386474609375;-1.96722412109375
1445424372666;194.7696533203125;-111.23370361328125;-1.3164061307907104;1.6543731689453125;-8.630828857421875;0.327545166015625
1445424372699;199.70294189453125;-106.3287582397461;-0.8435766696929932;3.556854248046875;-17.044937133789062;-1.143463134765625
1445424372731;201.7762451171875;-104.39299011230469;-0.49678292870521545;3.1057586669921875;-14.946304321289062;-1.692626953125
1445424372767;205.87969970703125;-102.80565643310547;0.4088107645511627;2.8899993896484375;-8.238555908203125;3.583343505859375
1445424372796;212.39288330078125;-98.93347930908203;0.3400191068649292;0.1441497802734375;-10.5921630859375;2.46539306640625
1445424372830;216.092529296875;-96.8073501586914;0.2112223356962204;-0.0716094970703125;-10.788284301757812;1.7789306640625
1445424372867;222.51092529296875;-93.62858581542969;-0.1748531013727188;-0.7972869873046875;-10.062606811523438;-0.2608642578125
1445424372896;228.52273559570312;-91.6472396850586;-0.47182971239089966;-2.17022705078125;-9.68994140625;0.4256134033203125
1445424372929;231.78948974609375;-90.95773315429688;-0.7861607074737549;-2.11138916015625;-10.08221435546875;0.2294769287109375
1445424372962;237.28610229492188;-89.5410385131836;-1.8078889846801758;-1.2680206298828125;-9.807632446289062;-0.0843353271484375
1445424372996;241.51947021484375;-88.5447006225586;-2.886841297149658;-0.1304473876953125;-9.376129150390625;-0.515838623046875
1445424373029;243.67193603515625;-88.09321594238281;-3.5335206985473633;-0.032379150390625;-9.611495971679688;-1.0453948974609375
1445424373062;247.72500610351562;-87.35481262207031;-5.087083339691162;-0.7580718994140625;-9.748779296875;-1.378814697265625
1445424373095;249.26544189453125;-87.04994201660156;-5.8813605308532715;-1.346466064453125;-9.493820190429688;-1.261138916015625
1445424373127;251.24774169921875;-86.5051040649414;-7.167725563049316;-1.0130462646484375;-9.788009643554688;-1.1630706787109375
1445424373161;252.97848510742188;-85.79503631591797;-8.224222183227539;0.5756378173828125;-10.25872802734375;-0.064727783203125
1445424373193;254.51266479492188;-85.4838638305664;-8.962981224060059;0.987518310546875;-7.86590576171875;-0.868865966796875
1445424373227;257.44293212890625;-83.54316711425781;-11.577739715576172;2.0074005126953125;-8.454315185546875;0.8571014404296875
1445424373260;259.35821533203125;-81.55219268798828;-14.835176467895508;0.1441497802734375;-9.788009643554688;0.955169677734375
1445424373292;260.34417724609375;-81.17916107177734;-16.243810653686523;-0.97381591796875;-10.356796264648438;0.13140869140625
1445424373326;262.1404724121094;-81.66643524169922;-18.43241310119629;-1.228790283203125;-10.925582885742188;-1.261138916015625
1445424373359;262.93072509765625;-83.7756576538086;-18.913759231567383;0.9678955078125;-12.965362548828125;0.5432891845703125
1445424373392;263.3899230957031;-85.39201354980469;-18.681171417236328;1.0071258544921875;-13.396865844726562;0.01373291015625
1445424373424;263.4595642089844;-87.92013549804688;-16.96201515197754;0.3991241455078125;-11.10211181640625;-1.0257720947265625
1445424373458;262.2727966308594;-90.09893035888672;-14.09029769897461;1.24249267578125;-9.846847534179688;-0.810028076171875
1445424373490;261.9735107421875;-91.06322479248047;-12.416667938232422;2.0074005126953125;-9.709564208984375;-0.3785400390625
1445424373524;261.0316162109375;-92.75810241699219;-9.044154167175293;4.125640869140625;-10.415634155273438;-1.2219085693359375
1445424373556;260.1273193359375;-93.775390625;-7.8901753425598145;2.5761871337890625;-9.317291259765625;0.621734619140625
1445424373590;258.9095153808594;-95.731689453125;-5.988669395446777;1.556304931640625;-9.709564208984375;0.680572509765625
1445424373624;255.20114135742188;-97.08194732666016;-4.00233793258667;0.0853118896484375;-10.905975341796875;-0.5550537109375
1445424373656;252.41891479492188;-98.09703063964844;-3.0690250396728516;0.242218017578125;-10.847137451171875;-0.4569854736328125
1445424373689;246.94580078125;-100.12285614013672;-1.5458848476409912;0.9678955078125;-10.180282592773438;-0.005889892578125
1445424373723;241.67782592773438;-102.0224609375;-0.2900383770465851;0.7717742919921875;-10.08221435546875;-0.1627960205078125
1445424373756;238.91549682617188;-103.12118530273438;0.1442469209432602;1.30133056640625;-10.02337646484375;-0.3981475830078125
1445424373787;233.39129638671875;-105.47162628173828;0.37027907371520996;1.75244140625;-8.846572875976562;-0.692352294921875
1445424373820;229.26840209960938;-107.56328582763672;0.03185771033167839;1.497467041015625;-8.238555908203125;-1.4768829345703125
1445424373852;227.43685913085938;-108.3829574584961;-0.4171677529811859;1.30133056640625;-7.669769287109375;-1.6730194091796875
1445424373886;223.8927001953125;-109.60478973388672;-2.0200252532958984;0.9482879638671875;-6.238006591796875;-2.634063720703125
1445424373920;222.28775024414062;-109.83964538574219;-2.9502718448638916;0.5167999267578125;-8.022811889648438;-4.909210205078125
1445424373952;219.43701171875;-109.40876770019531;-4.458175182342529;0.1441497802734375;-10.7686767578125;-6.2625274658203125
1445424373986;217.49407958984375;-108.3342514038086;-4.931885242462158;1.105194091796875;-13.396865844726562;-7.7923736572265625
1445424374018;216.59597778320312;-108.71805572509766;-4.76583194732666;1.2032623291015625;-9.3369140625;-7.94927978515625
1445424374051;213.69125366210938;-110.58015441894531;-5.40900182723999;2.4781341552734375;-7.6501617431640625;-0.7315826416015625
1445424374084;214.71923828125;-110.52308654785156;-5.7701921463012695;7.0088043212890625;-20.1634521484375;-0.005889892578125
1445424374119;216.09988403320312;-108.56970977783203;-5.768651962280273;3.51763916015625;-15.94659423828125;-3.536285400390625
1445424374150;217.447265625;-106.7996826171875;-4.775737285614014;2.183929443359375;-4.845458984375;3.073394775390625
1445424374183;219.610107421875;-106.50039672851562;-4.133207321166992;-0.6992340087890625;-9.219223022460938;1.523956298828125
1445424374217;224.29937744140625;-102.59518432617188;-4.183928489685059;-2.91552734375;-11.33746337890625;2.1711883544921875
1445424374249;228.16192626953125;-98.61746215820312;-3.943303108215332;0.5560302734375;-9.199615478515625;0.6609649658203125
1445424374283;229.85308837890625;-97.04505157470703;-3.8793141841888428;2.7134857177734375;-8.336624145507812;-0.064727783203125
1445424374315;232.4080810546875;-94.22320556640625;-4.04254674911499;1.438629150390625;-9.140777587890625;0.759033203125
1445424374348;235.92852783203125;-92.07807922363281;-3.7871510982513428;-0.208892822265625;-10.5333251953125;0.3471527099609375
1445424374382;237.74362182617188;-91.15703582763672;-3.64534854888916;-0.6992340087890625;-10.062606811523438;-0.1039581298828125
1445424374414;240.64215087890625;-89.56810760498047;-3.5023813247680664;-0.91497802734375;-9.552658081054688;0.4256134033203125
1445424374446;242.49383544921875;-87.74031066894531;-3.7559399604797363;0.595245361328125;-9.670333862304688;0.641357421875
1445424374481;243.40682983398438;-86.78319549560547;-4.173652172088623;1.2032623291015625;-9.709564208984375;0.7001953125
1445424374513;245.71261596679688;-84.91519927978516;-5.658609867095947;1.556304931640625;-10.454864501953125;0.4059906005859375
1445424374547;247.12173461914062;-83.99507904052734;-6.597719192504883;1.046356201171875;-10.5333251953125;-0.6138916015625
1445424374580;250.6129150390625;-82.39179229736328;-8.367753028869629;-1.15032958984375;-10.611770629882812;-0.3393096923828125
1445424374612;253.67001342773438;-81.38672637939453;-9.223783493041992;-3.739288330078125;-10.454864501953125;-0.0254974365234375
1445424374646;254.55364990234375;-81.07109832763672;-9.444474220275879;-2.28790283203125;-11.553207397460938;-0.692352294921875
1445424374679;255.78775024414062;-80.9577865600586;-9.850666999816895;-1.6602783203125;-12.278900146484375;-1.319976806640625
1445424374712;257.6356201171875;-81.33021545410156;-9.718085289001465;-0.4834747314453125;-11.572830200195312;-0.94732666015625
1445424374744;258.4985046386719;-82.03990173339844;-9.172544479370117;-0.0716094970703125;-11.90625;-0.9277191162109375
1445424374777;260.3049011230469;-85.33528900146484;-7.573226451873779;2.61541748046875;-10.964813232421875;0.9159393310546875
1445424374810;262.57818603515625;-90.87142181396484;-5.826233863830566;6.7538299560546875;-14.436370849609375;0.81787109375
1445424374843;264.62359619140625;-93.90843200683594;-4.829098224639893;5.6947021484375;-15.122833251953125;0.052947998046875
1445424374877;267.507080078125;-98.87397003173828;-1.8533809185028076;1.8897247314453125;-12.788848876953125;-0.633514404296875
1445424374909;265.4256591796875;-103.6290054321289;0.5747324824333191;1.41900634765625;-11.004043579101562;-0.2216339111328125
1445424374942;264.88311767578125;-106.1778793334961;1.3403470516204834;1.928955078125;-9.729171752929688;-0.1627960205078125
1445424374975;263.3044738769531;-110.25965881347656;2.205286979675293;1.8308868408203125;-7.4540252685546875;-1.06500244140625
1445424375008;261.03912353515625;-114.1063461303711;2.1311655044555664;1.6935882568359375;-6.72833251953125;-1.0257720947265625
1445424375041;260.5693359375;-115.72461700439453;1.7701834440231323;1.8897247314453125;-6.3949127197265625;-0.6727447509765625
1445424375074;261.37152099609375;-117.41853332519531;0.7702791094779968;1.497467041015625;-6.414520263671875;-0.94732666015625
1445424375107;262.0581359863281;-117.39290618896484;0.1255253106355667;0.2618255615234375;-7.179443359375;-2.8302001953125
1445424375140;263.07904052734375;-116.5818862915039;-1.0511585474014282;-0.4246368408203125;-7.375579833984375;-3.7324066162109375
1445424375173;263.4949035644531;-114.84988403320312;-1.694010853767395;-1.0130462646484375;-8.356246948242188;-5.1249542236328125
1445424375206;263.5863952636719;-113.70782470703125;-1.9356544017791748;-1.20916748046875;-9.180007934570312;-5.536834716796875
1445424375240;262.88916015625;-111.76097869873047;-1.710395097732544;-0.4638671875;-9.827239990234375;-5.654510498046875
1445424375275;262.5474853515625;-110.4964599609375;-0.511152446269989;0.6933135986328125;-11.376693725585938;-5.5760650634765625
1445424375305;262.32000732421875;-110.09419250488281;-0.06133852154016495;1.2817230224609375;-10.8863525390625;-7.16473388671875
1445424375340;261.0400390625;-109.72017669677734;-0.305993914604187;2.4781341552734375;-8.4346923828125;-5.419158935546875
1445424375373;263.3047180175781;-109.57206726074219;-1.2045226097106934;4.71405029296875;-12.494644165039062;-0.88848876953125
1445424375404;265.805908203125;-108.15235137939453;-1.8950519561767578;5.6947021484375;-17.574493408203125;-0.4177703857421875
1445424375437;269.08050537109375;-104.33672332763672;-2.2659096717834473;1.438629150390625;-9.180007934570312;-0.77081298828125
1445424375470;271.1512451171875;-103.77099609375;-1.4127219915390015;2.4585113525390625;-6.414520263671875;3.6814117431640625
1445424375503;278.47161865234375;-101.80811309814453;-0.2309037148952484;1.36016845703125;-10.121444702148438;2.1711883544921875
1445424375536;282.05908203125;-98.25800323486328;-0.08769795298576355;-2.8174591064453125;-11.317855834960938;1.6024017333984375
1445424375571;284.60107421875;-96.6294937133789;0.6080553531646729;1.3209381103515625;-9.317291259765625;-0.3981475830078125
1445424375602;289.9490966796875;-93.20355987548828;1.3112460374832153;2.0074005126953125;-9.395751953125;-0.2020263671875
1445424375636;294.9681701660156;-90.55716705322266;1.480159044265747;0.16375732421875;-10.160659790039062;1.21014404296875
1445424375670;297.6068420410156;-89.51912689208984;1.490312099456787;-0.3069610595703125;-10.08221435546875;0.896331787109375
1445424375701;302.1340026855469;-88.21668243408203;1.4171031713485718;-1.346466064453125;-9.68994140625;0.5432891845703125
1445424375733;305.50384521484375;-86.8963623046875;1.4786337614059448;-1.522979736328125;-9.650726318359375;0.2098541259765625
1445424375767;306.9329528808594;-86.19496154785156;1.4601844549179077;-1.228790283203125;-9.572265625;-0.064727783203125
1445424375800;309.203857421875;-85.00428009033203;1.023150086402893;-0.954193115234375;-9.631103515625;-0.4962158203125
1445424375833;310.1012878417969;-84.51045989990234;0.5792133212089539;-0.34619140625;-9.68994140625;-0.2608642578125
1445424375866;311.57080078125;-83.45585632324219;-0.7875814437866211;0.026458740234375;-9.709564208984375;-0.123565673828125
1445424375899;312.90570068359375;-82.00035095214844;-2.628157138824463;0.2618255615234375;-9.788009643554688;0.1510162353515625
1445424375932;313.8603210449219;-81.21981048583984;-3.621001720428467;-0.640380859375;-10.219512939453125;0.327545166015625
1445424375966;315.3663024902344;-80.09539031982422;-4.881077289581299;-2.0721588134765625;-10.356796264648438;0.955169677734375
1445424375998;316.5382995605469;-79.7667236328125;-5.73463249206543;-0.9934234619140625;-11.533599853515625;-0.2216339111328125
1445424376033;317.040771484375;-79.73887634277344;-5.9444451332092285;-0.58154296875;-12.41619873046875;-0.7119598388671875
1445424376064;318.45269775390625;-79.6850814819336;-6.077340602874756;-0.7972869873046875;-13.083053588867188;-0.4569854736328125
1445424376098;319.953369140625;-80.85188293457031;-5.154263496398926;0.301055908203125;-11.651275634765625;0.2883148193359375
1445424376130;320.9960021972656;-82.34444427490234;-4.435396194458008;3.7725982666015625;-10.749069213867188;0.01373291015625
1445424376163;324.1156005859375;-87.53250122070312;-3.5705809593200684;5.7339324951171875;-12.573104858398438;-0.005889892578125
1445424376196;326.5498352050781;-90.98821258544922;-3.158583164215088;2.0270233154296875;-13.239959716796875;0.052947998046875
1445424376230;330.5585632324219;-96.61465454101562;-1.0205705165863037;0.8894500732421875;-12.690780639648438;-0.2804718017578125
1445424376262;328.20172119140625;-101.31351470947266;0.9594661593437195;0.04608154296875;-10.8275146484375;0.19024658203125
1445424376295;326.49859619140625;-104.17662048339844;1.2533234357833862;0.1245269775390625;-8.82696533203125;-1.2807464599609375
1445424376328;322.808837890625;-109.0321044921875;1.1099051237106323;0.654083251953125;-8.2581787109375;-2.02606201171875
1445424376361;319.57879638671875;-113.1922836303711;0.6820839047431946;1.850494384765625;-7.68939208984375;-1.319976806640625
1445424376395;318.4548645019531;-114.76367950439453;0.3783286511898041;2.419281005859375;-6.9636993408203125;-0.88848876953125
1445424376427;316.885986328125;-116.82133483886719;-0.5909430980682373;2.4585113525390625;-5.9438018798828125;-1.2807464599609375
1445424376460;316.6245422363281;-117.26802062988281;-1.61381995677948;1.1444244384765625;-6.944091796875;-2.516387939453125
1445424376493;316.8927001953125;-117.06951904296875;-1.9667891263961792;0.6148681640625;-6.983306884765625;-3.2420806884765625
1445424376526;317.363525390625;-116.18658447265625;-2.623234272003174;-0.208892822265625;-6.66949462890625;-3.653961181640625
1445424376559;317.6618347167969;-115.56123352050781;-2.887219190597534;-0.01275634765625;-7.0029296875;-4.71307373046875
1445424376592;317.9560546875;-113.61019134521484;-3.2565805912017822;0.10491943359375;-8.022811889648438;-6.046783447265625
1445424376625;316.3422546386719;-111.10279083251953;-3.2814321517944336;-0.836517333984375;-11.51397705078125;-8.204238891601562
1445424376659;315.7122802734375;-110.40693664550781;-3.069173574447632;0.2618255615234375;-12.318130493164062;-7.753143310546875
1445424376692;314.51324462890625;-110.45777893066406;-2.603548049926758;1.24249267578125;-10.14105224609375;-7.2235870361328125
1445424376725;313.232421875;-111.17979431152344;-3.0238356590270996;2.6546478271484375;-8.76812744140625;-3.653961181640625
1445424376757;313.7591247558594;-110.75656127929688;-3.50895357131958;3.7725982666015625;-13.259567260742188;-1.457275390625
1445424376793;315.549560546875;-107.54328918457031;-3.9480390548706055;2.870391845703125;-14.12255859375;-4.673858642578125
1445424376824;315.88702392578125;-106.95802307128906;-3.6518337726593018;1.850494384765625;-4.1197662353515625;3.406829833984375
1445424376855;320.717041015625;-106.58978271484375;-2.056089162826538;2.5173492431640625;-5.4338531494140625;3.1126251220703125
1445424376890;323.12054443359375;-102.51860809326172;-2.3537561893463135;-2.660552978515625;-11.121719360351562;1.4258880615234375
1445424376922;323.8402099609375;-100.7878189086914;-2.137817621231079;-0.58154296875;-9.96453857421875;0.9747772216796875
1445424376957;326.4136047363281;-97.41218566894531;-1.798427939414978;1.615142822265625;-8.983871459960938;-0.2020263671875
1445424376990;328.56988525390625;-94.47028350830078;-1.9756020307540894;1.164031982421875;-9.925308227539062;0.24908447265625
1445424377020;329.75823974609375;-93.26403045654297;-1.9850698709487915;0.6737060546875;-10.25872802734375;0.5432891845703125
1445424377057;332.3085021972656;-91.6817855834961;-1.9843395948410034;0.34027099609375;-9.68994140625;0.19024658203125
1445424377087;334.0704040527344;-90.53240966796875;-2.1407840251922607;-0.601165771484375;-9.631103515625;0.2686920166015625
1445424377120;334.6905212402344;-89.87870788574219;-2.2456655502319336;-0.522705078125;-9.297683715820312;0.111785888671875
1445424377153;335.5048828125;-88.41556549072266;-2.591200828552246;-0.405029296875;-9.474197387695312;-0.005889892578125
1445424377186;336.1500549316406;-86.75209045410156;-3.526996612548828;0.16375732421875;-9.631103515625;0.0333404541015625
1445424377219;336.5697021484375;-85.90074920654297;-4.206422805786133;0.595245361328125;-9.866470336914062;-0.1627960205078125
1445424377252;337.573486328125;-84.12959289550781;-5.738724708557129;0.7521514892578125;-9.925308227539062;-0.123565673828125
1445424377286;338.6128234863281;-82.38774108886719;-7.199886322021484;-0.7580718994140625;-11.023651123046875;0.01373291015625
1445424377318;339.0545349121094;-81.75667572021484;-7.735093116760254;-0.85614013671875;-11.27862548828125;-0.2804718017578125
1445424377351;339.4250183105469;-80.99564361572266;-8.588949203491211;-1.20916748046875;-11.768951416015625;-0.4373779296875
1445424377384;339.29876708984375;-80.8661117553711;-8.954712867736816;-1.8956451416015625;-13.141891479492188;-0.82965087890625
1445424377418;339.1468811035156;-80.81029510498047;-8.9315185546875;-0.7580718994140625;-12.612335205078125;-0.4569854736328125
1445424377450;338.7156677246094;-81.60710906982422;-7.886756896972656;-1.111114501953125;-12.494644165039062;-0.6727447509765625
1445424377483;338.3928527832031;-82.88556671142578;-7.085204601287842;-0.01275634765625;-11.062881469726562;0.1510162353515625
1445424377515;339.0647888183594;-87.7144775390625;-5.719791889190674;4.71405029296875;-11.651275634765625;0.2294769287109375
1445424377549;339.835205078125;-91.13948059082031;-4.99744987487793;1.8308868408203125;-13.73028564453125;0.7198028564453125
1445424377582;340.64483642578125;-96.54618835449219;-2.4851109981536865;0.5167999267578125;-13.377243041992188;0.5236663818359375
1445424377616;337.2137145996094;-100.1650161743164;0.32815054059028625;0.2029876708984375;-12.141616821289062;0.36676025390625
1445424377649;331.7503662109375;-105.15947723388672;1.6792101860046387;0.10491943359375;-10.494094848632812;-0.574676513671875
1445424377682;329.396240234375;-107.52740478515625;2.216383934020996;0.2029876708984375;-9.199615478515625;-0.692352294921875
1445424377714;324.60614013671875;-111.98287200927734;2.7395782470703125;1.3797760009765625;-7.257904052734375;-0.6138916015625
1445424377748;322.50799560546875;-114.07193756103516;2.7576544284820557;2.360443115234375;-6.37530517578125;0.3471527099609375
1445424377781;319.5744323730469;-116.82068634033203;2.09232497215271;2.635040283203125;-6.1399383544921875;-0.2216339111328125
1445424377814;318.7919921875;-118.03376770019531;1.1664754152297974;1.3797760009765625;-6.3949127197265625;-2.02606201171875
1445424377847;318.89837646484375;-118.12711334228516;0.7889869213104248;0.28143310546875;-6.238006591796875;-3.0459442138671875
1445424377879;318.8166809082031;-117.62921905517578;-0.19998665153980255;-0.4638671875;-6.0418701171875;-3.28131103515625
1445424377912;318.5069274902344;-116.55026245117188;-0.8879755139350891;-0.7972869873046875;-6.37530517578125;-4.4973297119140625
1445424377945;318.2853088378906;-115.49908447265625;-0.8769161105155945;-0.85614013671875;-7.68939208984375;-5.96832275390625
1445424377979;316.9114990234375;-112.70130157470703;-0.5357559323310852;-1.4249267578125;-14.181396484375;-7.9100494384765625
1445424378011;316.0027770996094;-112.10997009277344;-0.17522023618221283;-0.267730712890625;-12.788848876953125;-8.694580078125
1445424378045;314.2151794433594;-113.356689453125;0.38275638222694397;1.438629150390625;-8.866195678710938;-7.7335205078125
1445424378077;314.2703552246094;-114.50504302978516;-0.4942471385002136;3.6549224853515625;-8.160110473632812;-2.2418060302734375
1445424378111;315.5848388671875;-113.7921371459961;-0.8858801126480103;4.0864105224609375;-16.946868896484375;-0.94732666015625
1445424378144;319.3244934082031;-110.05145263671875;-0.7105884552001953;3.0076904296875;-14.338302612304688;-3.4185943603515625
1445424378176;323.53375244140625;-109.12593841552734;0.26767095923423767;1.6347503662109375;-7.061767578125;1.6220245361328125
1445424378209;325.56512451171875;-108.01912689208984;0.2376844435930252;-0.601165771484375;-8.787734985351562;2.1123504638671875
1445424378242;328.442138671875;-104.49788665771484;-0.10961435735225677;-2.307525634765625;-10.631378173828125;1.9946746826171875
1445424378275;332.0041198730469;-100.23548126220703;0.5993540287017822;1.3209381103515625;-9.12115478515625;-0.3785400390625
1445424378310;333.8564453125;-98.4200439453125;0.6320674419403076;2.9684600830078125;-8.611221313476562;-0.633514404296875
1445424378341;336.66650390625;-94.71871185302734;-0.04464724287390709;0.595245361328125;-10.180282592773438;0.19024658203125
1445424378374;338.169921875;-93.24688720703125;-0.3372519314289093;-0.6992340087890625;-10.337188720703125;-0.2216339111328125
1445424378408;341.9045104980469;-91.4462661743164;-0.4633411765098572;-1.1307220458984375;-9.984146118164062;0.01373291015625
1445424378440;344.44769287109375;-90.0733413696289;-0.47853630781173706;-0.640380859375;-9.709564208984375;0.641357421875
1445424378474;345.4899597167969;-89.32794189453125;-0.5873813629150391;0.9678955078125;-9.513427734375;0.8374786376953125
1445424378507;347.77777099609375;-87.73411560058594;-1.1875412464141846;1.3993988037109375;-9.45458984375;0.935546875
1445424378539;349.6827697753906;-85.87337493896484;-2.557544231414795;1.1444244384765625;-9.474197387695312;0.759033203125
1445424378573;350.512939453125;-84.84098052978516;-3.4007046222686768;0.04608154296875;-9.866470336914062;0.386383056640625
1445424378608;352.1042785644531;-82.79068756103516;-5.135124683380127;-0.267730712890625;-9.944915771484375;0.0921783447265625
1445424378639;353.64459228515625;-81.15245056152344;-6.891039848327637;-1.1307220458984375;-10.788284301757812;-0.2020263671875
1445424378671;354.4665832519531;-80.6287841796875;-7.6115875244140625;-0.601165771484375;-10.749069213867188;-0.7119598388671875
1445424378704;355.7334289550781;-80.08463287353516;-8.750250816345215;-1.3856964111328125;-11.121719360351562;-0.692352294921875
1445424378737;355.9959716796875;-80.09192657470703;-9.160479545593262;-0.97381591796875;-12.59271240234375;-1.06500244140625
1445424378771;356.324462890625;-80.29889678955078;-9.163809776306152;-0.1304473876953125;-12.71038818359375;-0.4962158203125
1445424378810;356.1587829589844;-81.44304656982422;-8.306760787963867;-0.954193115234375;-13.514541625976562;0.445220947265625
1445424378836;356.22906494140625;-82.71533203125;-7.611528396606445;3.69415283203125;-11.51397705078125;0.052947998046875
1445424378869;357.1136169433594;-87.42627716064453;-6.450192928314209;5.5770263671875;-11.533599853515625;0.07257080078125
1445424378903;358.38543701171875;-93.73799896240234;-5.384260654449463;1.2621002197265625;-11.690505981445312;0.3471527099609375
1445424378936;358.165283203125;-96.07112121582031;-4.249130725860596;-0.4638671875;-11.670883178710938;-0.1627960205078125
1445424378969;355.1261291503906;-100.26101684570312;-1.731318473815918;0.0853118896484375;-11.965087890625;0.504058837890625
1445424379001;349.2823181152344;-104.24797821044922;-0.42545855045318604;0.242218017578125;-10.239120483398438;0.2686920166015625
1445424379034;346.4473571777344;-106.3061752319336;0.09811017662286758;0.1833648681640625;-9.219223022460938;-0.4962158203125
1445424379067;341.41839599609375;-110.02731323242188;0.9922668933868408;1.1444244384765625;-8.571990966796875;-0.7904205322265625
1445424379101;336.507568359375;-112.55130004882812;1.2035627365112305;1.8308868408203125;-8.3170166015625;0.36676025390625
1445424379134;334.37164306640625;-113.55699157714844;1.0681198835372925;1.8701171875;-7.7089996337890625;0.30792236328125
1445424379166;331.71392822265625;-114.84774017333984;0.8173998594284058;1.164031982421875;-7.493255615234375;-1.4768829345703125
1445424379199;330.9024353027344;-115.0884017944336;0.7707973122596741;0.5756378173828125;-7.826690673828125;-2.26141357421875
1445424379232;329.3653564453125;-115.18983459472656;0.3485373258590698;0.654083251953125;-7.63055419921875;-2.339874267578125
1445424379265;328.18841552734375;-114.84972381591797;-0.22764654457569122;0.6148681640625;-6.8852386474609375;-3.34014892578125
1445424379298;327.8041687011719;-114.44005584716797;-0.4687432050704956;-0.01275634765625;-7.35595703125;-5.536834716796875
1445424379331;326.1043701171875;-113.10546112060547;-0.8568859696388245;-0.9345855712890625;-8.82696533203125;-6.75286865234375
1445424379365;323.2261657714844;-111.48184204101562;-0.6805811524391174;-1.7779541015625;-13.651840209960938;-6.5959625244140625
1445424379397;322.67901611328125;-111.20417022705078;-0.025857390835881233;-0.9345855712890625;-11.886642456054688;-8.400375366210938
1445424379430;320.9217224121094;-111.84827423095703;0.6133251190185547;1.8308868408203125;-7.2186737060546875;-5.6349029541015625
1445424379463;319.7484436035156;-112.34031677246094;0.13356447219848633;2.8311614990234375;-13.926422119140625;0.7982635498046875
1445424379498;321.0427551269531;-110.5242919921875;-0.0638434961438179;3.890289306640625;-19.908477783203125;-1.810302734375
1445424379530;323.02435302734375;-106.60855102539062;-0.0960683599114418;3.556854248046875;-8.473922729492188;-1.3984375
1445424379562;326.66522216796875;-107.1927719116211;0.4876113831996918;2.9096221923828125;-4.9435272216796875;5.2112579345703125
1445424379595;329.0619201660156;-105.9446029663086;0.47060105204582214;0.34027099609375;-11.121719360351562;2.151580810546875
1445424379629;331.44049072265625;-101.54712677001953;0.6043685674667358;-3.8765869140625;-11.78857421875;2.1907958984375
1445424379661;333.49908447265625;-99.75992584228516;1.4753395318984985;3.63531494140625;-8.081649780273438;-0.9277191162109375
1445424379694;335.64056396484375;-96.21723175048828;1.301297903060913;2.811553955078125;-8.473922729492188;-0.515838623046875
1445424379727;338.3486633300781;-93.69927978515625;1.3155134916305542;0.22259521484375;-10.474472045898438;0.896331787109375
1445424379760;340.62274169921875;-92.6899642944336;1.515777826309204;0.6148681640625;-9.90570068359375;0.13140869140625
1445424379793;343.848876953125;-91.45877075195312;1.429329514503479;-0.9345855712890625;-9.670333862304688;0.759033203125
1445424379827;345.8533630371094;-90.29638671875;1.285706639289856;-0.8757476806640625;-9.552658081054688;0.36676025390625
1445424379860;346.6780700683594;-89.5705795288086;1.2485758066177368;-0.3657989501953125;-9.572265625;0.4648284912109375
1445424379892;348.12542724609375;-87.91605377197266;0.7168914675712585;0.026458740234375;-9.513427734375;0.4844512939453125
1445424379926;348.9457092285156;-87.05469512939453;0.15451103448867798;0.4971771240234375;-9.631103515625;0.504058837890625
1445424379958;350.3687744140625;-85.08045959472656;-1.229098916053772;0.4579620361328125;-9.670333862304688;0.5236663818359375
1445424379991;351.77947998046875;-82.85311889648438;-2.632516384124756;0.6148681640625;-9.96453857421875;0.13140869140625
1445424380024;352.59002685546875;-81.90674591064453;-3.3322789669036865;-0.58154296875;-11.082489013671875;0.2294769287109375
1445424380058;354.4745788574219;-80.54315948486328;-4.526932239532471;-0.3657989501953125;-11.082489013671875;0.052947998046875
1445424380090;356.06610107421875;-79.80075073242188;-5.657063007354736;-0.660003662109375;-11.39630126953125;0.01373291015625
1445424380124;356.5965270996094;-79.60633850097656;-6.143314838409424;-1.346466064453125;-11.886642456054688;-0.2216339111328125
1445424380156;357.6301574707031;-79.27267456054688;-6.45589542388916;-0.326568603515625;-12.063156127929688;-0.300079345703125
1445424380191;358.3965759277344;-79.61917114257812;-5.894223213195801;-0.836517333984375;-12.259292602539062;0.13140869140625
1445424380222;358.848876953125;-80.51268768310547;-5.33200216293335;-0.954193115234375;-11.808181762695312;0.4059906005859375
1445424380256;0.4893798828125;-84.47486877441406;-4.426950931549072;3.6549224853515625;-10.690231323242188;0.19024658203125
1445424380293;3.1790771484375;-90.71617126464844;-3.620015859603882;4.184478759765625;-13.122268676757812;0.052947998046875
1445424380321;4.642974853515625;-93.63350677490234;-2.795168399810791;2.7919464111328125;-13.377243041992188;0.1510162353515625
1445424380358;4.88037109375;-98.2353286743164;-0.248957559466362;0.8894500732421875;-11.886642456054688;0.1706390380859375
1445424380388;0.66595458984375;-102.74385833740234;1.4588468074798584;0.418731689453125;-10.160659790039062;-0.810028076171875
1445424380420;358.5663757324219;-105.2747802734375;2.0304629802703857;0.7129364013671875;-8.846572875976562;-1.1630706787109375
1445424380454;355.0918884277344;-109.65968322753906;2.68751859664917;1.30133056640625;-7.8462982177734375;-1.00616455078125
1445424380486;353.57366943359375;-111.61302185058594;2.7722551822662354;1.438629150390625;-8.179718017578125;-0.4962158203125
1445424380519;350.82269287109375;-114.95262145996094;2.4339749813079834;2.5369720458984375;-6.983306884765625;0.1706390380859375
1445424380553;349.6087646484375;-116.95932006835938;1.6541515588760376;2.4781341552734375;-6.1399383544921875;-1.319976806640625
1445424380585;349.8910827636719;-117.37335205078125;1.3578944206237793;1.732818603515625;-6.5322113037109375;-2.1633453369140625
1445424380618;350.70086669921875;-117.07086181640625;0.7368735074996948;0.359893798828125;-7.042144775390625;-3.39898681640625
1445424380653;351.3012390136719;-116.24009704589844;0.02341175638139248;-1.0522613525390625;-7.0225372314453125;-4.08544921875
1445424380684;351.38525390625;-115.65193176269531;-0.18182335793972015;-1.20916748046875;-7.297119140625;-4.6150054931640625
1445424380718;350.2090759277344;-113.70684051513672;0.08385426551103592;-1.738739013671875;-9.258453369140625;-6.4586639404296875
1445424380751;349.3728942871094;-112.50947570800781;0.5247477293014526;-0.4638671875;-13.239959716796875;-6.8901519775390625
1445424380784;348.8580017089844;-111.04289245605469;1.8943651914596558;0.5167999267578125;-13.67144775390625;-7.7727508544921875
1445424380816;347.69244384765625;-111.56874084472656;2.311312437057495;2.360443115234375;-7.316741943359375;-6.242919921875
1445424380850;347.2325134277344;-112.41008758544922;1.9345110654830933;4.7924957275390625;-9.866470336914062;-0.574676513671875
1445424380881;349.900390625;-111.55232238769531;0.8690980672836304;5.3416748046875;-15.279739379882812;0.955169677734375
1445424380915;353.56475830078125;-107.34654235839844;1.322855830192566;2.9684600830078125;-13.828353881835938;-3.653961181640625
1445424380948;354.3896179199219;-106.77909851074219;2.0982587337493896;2.2231597900390625;-6.944091796875;0.7786407470703125
1445424380981;358.97406005859375;-106.11781311035156;3.596191883087158;2.2035369873046875;-7.57171630859375;3.83831787109375
1445424381014;2.526641845703125;-101.70954895019531;3.9833085536956787;-2.425201416015625;-11.808181762695312;1.876983642578125
1445424381049;4.572021484375;-99.8183822631836;5.032325267791748;1.1444244384765625;-9.238845825195312;0.621734619140625
1445424381080;11.168212890625;-95.92451477050781;6.918458938598633;2.9488525390625;-8.532760620117188;-0.515838623046875
1445424381113;16.206634521484375;-92.54808807373047;7.354441165924072;-0.2481231689453125;-9.925308227539062;1.3670501708984375
1445424381147;18.8232421875;-91.19517517089844;7.570806503295898;-1.6995086669921875;-10.572540283203125;1.6024017333984375
1445424381179;23.9622802734375;-88.99285888671875;7.9735002517700195;-1.4837646484375;-9.90570068359375;0.9159393310546875
1445424381212;26.21319580078125;-88.0115737915039;8.174124717712402;-1.0718841552734375;-10.14105224609375;1.1512908935546875
1445424381245;30.71881103515625;-85.80462646484375;8.480938911437988;-0.6207733154296875;-9.984146118164062;1.014007568359375
1445424381278;34.83111572265625;-83.98112487792969;8.302495956420898;-0.601165771484375;-10.02337646484375;0.759033203125
1445424381312;36.410736083984375;-83.29829406738281;7.979492664337158;-1.228790283203125;-9.886077880859375;0.759033203125
1445424381345;38.722015380859375;-82.02002716064453;7.075602054595947;-1.915252685546875;-10.25872802734375;0.8374786376953125
1445424381377;41.123291015625;-80.7160415649414;5.641486644744873;0.1441497802734375;-10.180282592773438;0.6021270751953125
1445424381414;44.396209716796875;-79.61766052246094;3.722860813140869;-0.287353515625;-9.788009643554688;0.327545166015625
1445424381444;46.146331787109375;-79.09416961669922;2.7943098545074463;-1.0718841552734375;-9.68994140625;0.445220947265625
1445424381476;49.362762451171875;-78.1125259399414;1.5570820569992065;-1.4249267578125;-9.68994140625;0.0921783447265625
1445424381509;50.8336181640625;-77.60926818847656;1.0834094285964966;-0.836517333984375;-10.042984008789062;-0.2608642578125
1445424381542;53.80133056640625;-76.64825439453125;-0.07613272219896317;-1.0522613525390625;-11.572830200195312;-0.4962158203125
1445424381575;55.2764892578125;-76.21785736083984;-0.6493138074874878;-0.1892852783203125;-11.612045288085938;-0.2216339111328125
1445424381608;58.430511474609375;-75.42594909667969;-1.7088321447372437;-0.4638671875;-11.651275634765625;0.19024658203125
1445424381641;61.61712646484375;-76.0633316040039;-2.4070708751678467;-0.542327880859375;-11.749343872070312;0.955169677734375
1445424381676;63.498260498046875;-77.2230453491211;-2.6273417472839355;1.850494384765625;-10.9451904296875;0.680572509765625
1445424381708;67.75839233398438;-81.3909912109375;-3.3500638008117676;6.341949462890625;-11.808181762695312;0.2883148193359375
1445424381740;73.5411376953125;-87.53201293945312;-3.601881504058838;2.5173492431640625;-12.906524658203125;0.896331787109375
1445424381773;75.795654296875;-90.28282928466797;-2.7578983306884766;0.4971771240234375;-12.749618530273438;0.111785888671875
1445424381807;75.65863037109375;-94.9188461303711;-0.13662780821323395;-0.1108245849609375;-11.51397705078125;0.0333404541015625
1445424381839;72.7008056640625;-99.90109252929688;1.0452101230621338;0.3991241455078125;-9.866470336914062;-1.202301025390625
1445424381873;71.19189453125;-102.34263610839844;1.1454393863677979;0.6933135986328125;-9.160385131835938;-1.771087646484375
1445424381907;69.1492919921875;-106.66104125976562;1.195369839668274;1.9681854248046875;-8.689666748046875;-1.6533966064453125
1445424381938;68.38101196289062;-108.40067291259766;1.226797342300415;1.811279296875;-8.395462036132812;-0.3981475830078125
1445424381972;66.3154296875;-111.30469512939453;1.0926387310028076;1.30133056640625;-7.12060546875;-1.0453948974609375
1445424382003;64.4622802734375;-113.62013244628906;0.36280328035354614;0.28143310546875;-6.983306884765625;-2.4771575927734375
1445424382037;64.07839965820312;-114.32260131835938;-0.27704378962516785;0.2029876708984375;-7.3951873779296875;-3.22247314453125
1445424382070;64.73052978515625;-114.79421997070312;-1.3864246606826782;0.359893798828125;-7.1402130126953125;-3.5558929443359375
1445424382102;65.83233642578125;-114.49766540527344;-2.4171371459960938;0.3206634521484375;-6.2576141357421875;-3.536285400390625
1445424382136;66.33535766601562;-113.91230010986328;-2.8068156242370605;0.3795013427734375;-6.1399383544921875;-3.536285400390625
1445424382169;67.218017578125;-111.85053253173828;-3.2252583503723145;0.28143310546875;-7.63055419921875;-4.7523040771484375
1445424382202;67.37481689453125;-109.04161071777344;-3.0653040409088135;-0.9934234619140625;-11.27862548828125;-7.7139129638671875
1445424382235;67.511962890625;-108.13298797607422;-2.5955312252044678;-0.7972869873046875;-13.2203369140625;-8.00811767578125
1445424382268;67.63027954101562;-108.81483459472656;-1.7444401979446411;0.9678955078125;-9.317291259765625;-8.36114501953125
1445424382302;66.28948974609375;-110.76372528076172;-2.2021000385284424;2.49774169921875;-6.3164520263671875;-4.2423553466796875
1445424382334;66.15512084960938;-110.9441909790039;-2.497770071029663;3.4784088134765625;-7.669769287109375;-2.692901611328125
1445424382367;66.79733276367188;-107.89170837402344;-2.9217593669891357;3.9687347412109375;-17.476425170898438;-2.7909698486328125
1445424382400;67.67877197265625;-105.61939239501953;-2.9442412853240967;2.4585113525390625;-11.90625;-4.6150054931640625
1445424382433;70.20370483398438;-105.1373291015625;-2.296569347381592;1.6543731689453125;-5.159271240234375;1.38665771484375
1445424382466;73.69760131835938;-102.9591064453125;-1.8600540161132812;1.9681854248046875;-8.160110473632812;2.8184356689453125
1445424382498;74.136962890625;-100.94412994384766;-2.05275559425354;-1.3660736083984375;-11.45513916015625;1.2885894775390625
1445424382532;76.35650634765625;-97.70289611816406;-1.1151140928268433;1.2032623291015625;-9.12115478515625;0.7001953125
1445424382565;78.60336303710938;-94.6399917602539;-1.1629894971847534;1.8308868408203125;-9.317291259765625;0.0921783447265625
1445424382599;79.421142578125;-93.3536148071289;-1.40367591381073;0.9678955078125;-10.278350830078125;0.7198028564453125
1445424382631;82.136962890625;-91.0255355834961;-1.5286240577697754;0.595245361328125;-10.376419067382812;0.504058837890625
1445424382664;85.05239868164062;-89.58663177490234;-1.496734619140625;-0.5030975341796875;-9.748779296875;0.4648284912109375
1445424382697;86.07781982421875;-89.01194763183594;-1.5399473905563354;-1.0718841552734375;-9.591873168945312;0.58251953125
1445424382730;87.51422119140625;-87.68266296386719;-1.7179954051971436;-0.660003662109375;-9.748779296875;0.3471527099609375
1445424382763;87.992431640625;-86.9157485961914;-1.867099642753601;-0.091217041015625;-9.631103515625;-0.064727783203125
1445424382806;89.83895874023438;-84.58064270019531;-3.0491840839385986;0.1833648681640625;-9.631103515625;-0.241241455078125
1445424382829;90.56646728515625;-83.87344360351562;-3.6671063899993896;0.1441497802734375;-9.768402099609375;-0.241241455078125
1445424382863;91.2117919921875;-83.16712951660156;-4.295709609985352;-0.032379150390625;-9.788009643554688;-0.1039581298828125
1445424382896;92.4888916015625;-81.6852035522461;-5.418854713439941;-0.3854217529296875;-9.984146118164062;-0.1039581298828125
1445424382928;94.1790771484375;-80.214599609375;-6.541752338409424;0.3991241455078125;-10.219512939453125;-0.0254974365234375
1445424382961;95.27471923828125;-79.70402526855469;-7.0879058837890625;0.7521514892578125;-10.337188720703125;-0.0843353271484375
1445424382994;97.08035278320312;-78.96929168701172;-8.062114715576172;-0.7384490966796875;-11.357070922851562;0.1706390380859375
1445424383026;97.76370239257812;-78.67303466796875;-8.478233337402344;-1.0522613525390625;-13.2791748046875;-0.5942840576171875
1445424383060;98.87078857421875;-78.42839813232422;-9.002875328063965;-0.777679443359375;-12.867294311523438;-0.6138916015625
1445424383094;99.63302612304688;-78.5954360961914;-8.739394187927246;-1.2680206298828125;-12.828079223632812;-0.0254974365234375
1445424383126;100.1630859375;-80.45406341552734;-7.6628031730651855;0.0853118896484375;-11.494369506835938;-0.3589324951171875
1445424383159;100.29901123046875;-82.41654968261719;-7.203908443450928;2.55657958984375;-10.219512939453125;-0.3785400390625
1445424383192;101.04519653320312;-88.45260620117188;-6.498231887817383;3.87066650390625;-10.8275146484375;0.2098541259765625
1445424383226;101.0809326171875;-91.94082641601562;-5.948840141296387;0.22259521484375;-12.9849853515625;1.1709136962890625
