sep=;
timestamp;gyro-alpha;gyro-beta;gyro-gamma;accel-x;accel-y;accel-z
1445513760033;29.483367919921875;-166.57351684570312;46.67761993408203;-6.878541469573975;-2.103306293487549;-6.773196697235107
1445513760053;33.234405517578125;-166.9360809326172;46.56138229370117;-7.0317702293396;-2.474407434463501;-6.9024834632873535
1445513760085;35.734100341796875;-167.1819610595703;45.7542724609375;-7.249642848968506;-2.2146365642547607;-6.807912349700928
1445513760117;36.07623291015625;-167.21636962890625;45.45121765136719;-6.936002254486084;-2.275688648223877;-7.272387504577637
1445513760150;36.832244873046875;-167.28150939941406;45.40907669067383;-6.133944988250732;-2.652775526046753;-6.958747386932373
1445513760182;36.035247802734375;-167.15863037109375;45.82386016845703;-6.956353187561035;-3.1699230670928955;-7.280767440795898
1445513760218;34.186981201171875;-166.96157836914062;46.3884162902832;-6.8593878746032715;-3.220201253890991;-7.0593037605285645
1445513760249;34.162200927734375;-166.94723510742188;46.495784759521484;-6.6127848625183105;-3.0861260890960693;-6.661866188049316
1445513760281;34.177459716796875;-166.9295196533203;46.5066032409668;-6.481103897094727;-2.9939491748809814;-6.354211330413818
1445513760315;32.484375;-166.7222900390625;46.42087173461914;-6.05852746963501;-3.422511339187622;-6.631938934326172
1445513760349;29.789459228515625;-166.4423828125;46.374755859375;-6.05852746963501;-3.422511339187622;-6.631938934326172
1445513760382;26.744354248046875;-166.12925720214844;46.33024978637695;-6.294356346130371;-3.023876667022705;-6.358999729156494
1445513760414;26.744354248046875;-166.12925720214844;46.33024978637695;-6.294356346130371;-3.023876667022705;-6.358999729156494
1445513760447;26.744354248046875;-166.12925720214844;46.33024978637695;-6.294356346130371;-3.023876667022705;-6.358999729156494
1445513760480;22.719573974609375;-163.9264373779297;44.993717193603516;-7.967903137207031;-1.5466543436050415;-6.443994045257568
1445513760512;22.464447021484375;-163.73825073242188;44.67196273803711;-7.753622055053711;-1.0690110921859741;-6.289567947387695
1445513760546;21.5084228515625;-163.44491577148438;43.8326416015625;-7.010222434997559;-0.8379706144332886;-6.141127586364746
1445513760579;20.021453857421875;-163.22743225097656;42.98820877075195;-7.802703380584717;-0.9624691009521484;-6.825869083404541
1445513760612;19.295867919921875;-163.2178497314453;42.657997131347656;-7.377732753753662;-1.4413094520568848;-6.184223175048828
1445513760645;18.85760498046875;-163.2798614501953;42.4217414855957;-6.744466304779053;-2.5761611461639404;-6.853402137756348
1445513760678;18.88568115234375;-163.37692260742188;42.35256576538086;-6.376956462860107;-3.272873640060425;-7.195773124694824
1445513760711;18.718017578125;-163.49118041992188;42.15981674194336;-6.202179431915283;-3.801992416381836;-7.532158374786377
1445513760744;18.43377685546875;-163.67318725585938;41.55694580078125;-6.418854713439941;-3.557783842086792;-7.096413612365723
1445513760777;18.87139892578125;-163.6880645751953;41.58978271484375;-6.257246017456055;-3.8163576126098633;-7.486668586730957
1445513760809;18.81341552734375;-163.61590576171875;41.429588317871094;-6.169857978820801;-4.027047157287598;-7.747636795043945
1445513760843;18.680511474609375;-163.56881713867188;41.341957092285156;-5.872976779937744;-3.9264907836914062;-7.401674747467041
1445513760876;18.506683349609375;-163.59585571289062;41.29140090942383;-5.582081317901611;-3.580528736114502;-7.299921035766602
1445513760909;18.004669189453125;-163.79833984375;41.09397888183594;-5.66228723526001;-3.1292216777801514;-7.24485445022583
1445513760942;17.567901611328125;-163.966796875;40.904563903808594;-5.855020046234131;-2.8622682094573975;-7.322665691375732
1445513760975;17.0072021484375;-164.3417205810547;40.72085952758789;-6.5265936851501465;-2.608482837677002;-7.433996200561523
1445513761007;17.042022705078125;-164.55076599121094;40.800201416015625;-6.709750175476074;-2.36188006401062;-7.3693528175354
1445513761041;17.3349609375;-164.9957275390625;41.113460540771484;-6.6846113204956055;-1.8602946996688843;-6.989871978759766
1445513761074;19.521453857421875;-165.1905517578125;41.33198547363281;-6.62236213684082;-1.9165585041046143;-6.904877662658691
1445513761107;21.8690185546875;-165.42430114746094;41.87431716918945;-6.537367820739746;-1.9692308902740479;-6.836642742156982
1445513761139;21.09405517578125;-165.4019317626953;42.47630310058594;-6.938396453857422;-2.278082847595215;-6.936002254486084
1445513761173;20.175018310546875;-165.34925842285156;42.81592559814453;-6.94079065322876;-2.3511061668395996;-6.858190536499023
1445513761206;19.7745361328125;-165.00888061523438;43.73708724975586;-6.963535785675049;-2.6156654357910156;-6.84981107711792
1445513761239;19.837066650390625;-164.89480590820312;43.92327880859375;-6.904877662658691;-2.783259391784668;-6.734889507293701
1445513761271;19.73297119140625;-164.73614501953125;44.090999603271484;-6.788758754730225;-2.9652187824249268;-6.742072105407715
1445513761305;19.376434326171875;-164.6116485595703;44.00006103515625;-6.4200520515441895;-3.3518824577331543;-6.785167694091797
1445513761338;19.046844482421875;-164.57485961914062;43.85207748413086;-6.309918403625488;-3.264493942260742;-7.016208171844482
1445513761371;18.358734130859375;-164.52223205566406;43.51504898071289;-6.133944988250732;-3.3028011322021484;-7.201758861541748
1445513761404;18.097412109375;-164.508056640625;43.38322830200195;-6.156689643859863;-3.0202853679656982;-7.208941459655762
1445513761437;17.6453857421875;-164.5203399658203;43.14653396606445;-6.2632317543029785;-2.8886044025421143;-7.273584842681885
1445513761469;17.533172607421875;-164.53421020507812;43.088653564453125;-6.45476770401001;-2.8215668201446533;-7.048529624938965
1445513761503;17.5052490234375;-164.58010864257812;43.081947326660156;-6.494272232055664;-2.7485435009002686;-7.000645637512207
1445513761536;17.675048828125;-164.6549835205078;43.18325424194336;-6.3745622634887695;-2.431311845779419;-6.93959379196167
1445513761569;17.76580810546875;-164.71568298339844;43.23991775512695;-6.494272232055664;-2.4624364376068115;-7.041347026824951
1445513761602;17.999359130859375;-164.76513671875;43.375675201416016;-6.788758754730225;-2.7281928062438965;-6.953958988189697
1445513761635;18.517303466796875;-164.72683715820312;43.664344787597656;-6.72531270980835;-2.8634653091430664;-6.836642742156982
1445513761668;18.73944091796875;-164.67233276367188;43.78689193725586;-6.703764915466309;-3.0382418632507324;-6.88332986831665
1445513761701;19.127044677734375;-164.5472412109375;44.003639221191406;-6.698976516723633;-3.163937568664551;-6.871358871459961
1445513761734;19.248321533203125;-164.493408203125;44.073570251464844;-6.683413982391357;-3.1471781730651855;-6.7911529541015625
1445513761766;19.32220458984375;-164.4201202392578;44.11822509765625;-6.707355976104736;-3.1232361793518066;-6.809109687805176
1445513761800;19.14013671875;-164.411865234375;44.02336502075195;-6.710947513580322;-2.914940595626831;-6.867767810821533
1445513761835;19.033538818359375;-164.4438018798828;43.97084426879883;-6.703764915466309;-2.7246015071868896;-6.831854343414307
1445513761867;18.792236328125;-164.5686798095703;43.856929779052734;-6.734889507293701;-2.499546527862549;-6.8809356689453125
1445513761899;18.512359619140625;-164.71981811523438;43.72677230834961;-6.72531270980835;-2.4181437492370605;-6.961141586303711
1445513761932;18.39715576171875;-164.774169921875;43.67431640625;-6.691793918609619;-2.431311845779419;-6.938396453857422
1445513761966;18.284637451171875;-164.8218231201172;43.630165100097656;-6.619967937469482;-2.5929205417633057;-6.930016994476318
1445513761998;18.274810791015625;-164.80938720703125;43.63210678100586;-6.611588001251221;-2.7904419898986816;-6.930016994476318
1445513762034;18.326446533203125;-164.69638061523438;43.68267822265625;-6.574477672576904;-2.9281086921691895;-6.953958988189697
1445513762064;18.3194580078125;-164.64988708496094;43.6837272644043;-6.466738700866699;-3.0095114707946777;-6.934805393218994
1445513762096;18.34210205078125;-164.54115295410156;43.69628143310547;-6.520608425140381;-3.0609867572784424;-7.050923824310303
1445513762133;18.372711181640625;-164.48545837402344;43.712059020996094;-6.538564682006836;-2.9927520751953125;-6.934805393218994
1445513762163;18.397705078125;-164.4601593017578;43.72405242919922;-6.53257942199707;-2.9915549755096436;-6.943184852600098
1445513762196;18.36529541015625;-164.46548461914062;43.701499938964844;-6.696582317352295;-2.920926094055176;-6.921637058258057
1445513762228;18.317413330078125;-164.4864959716797;43.67222595214844;-6.718130111694336;-2.800018787384033;-6.936002254486084
1445513762262;18.28753662109375;-164.54139709472656;43.652652740478516;-6.670246124267578;-2.6396074295043945;-6.919242858886719
1445513762295;18.30633544921875;-164.58717346191406;43.66297912597656;-6.675034523010254;-2.6240451335906982;-6.871358871459961
1445513762328;18.318267822265625;-164.5990753173828;43.668304443359375;-6.688202381134033;-2.673126220703125;-6.9024834632873535
1445513762360;18.34521484375;-164.60400390625;43.679683685302734;-6.643909931182861;-2.8359320163726807;-6.952761650085449
1445513762394;18.358367919921875;-164.5983123779297;43.68460464477539;-6.62355899810791;-2.8407204151153564;-6.9922661781311035
1445513762427;18.397247314453125;-164.55963134765625;43.69692611694336;-6.5732808113098145;-2.9161376953125;-6.932411193847656
1445513762461;18.37225341796875;-164.52207946777344;43.67636489868164;-6.534973621368408;-2.9233202934265137;-6.980295181274414
1445513762492;18.34307861328125;-164.50816345214844;43.65724182128906;-6.588842868804932;-2.9305028915405273;-6.998251438140869
1445513762526;18.28106689453125;-164.49925231933594;43.61821365356445;-6.560112476348877;-2.850297212600708;-6.967126846313477
1445513762559;18.244171142578125;-164.51553344726562;43.59488296508789;-6.600813865661621;-2.762908697128296;-6.956353187561035
1445513762592;18.239013671875;-164.5321502685547;43.590946197509766;-6.609193801879883;-2.715024709701538;-6.962338447570801
1445513762625;18.28509521484375;-164.5559539794922;43.61284637451172;-6.629544734954834;-2.760514497756958;-6.918045997619629
1445513762658;18.33380126953125;-164.55999755859375;43.63800811767578;-6.6594719886779785;-2.778470993041992;-6.919242858886719
1445513762691;18.437408447265625;-164.55508422851562;43.69297790527344;-6.687005519866943;-2.868253707885742;-6.920440196990967
1445513762724;18.493316650390625;-164.54721069335938;43.723167419433594;-6.698976516723633;-2.8838160037994385;-6.9024834632873535
1445513762756;18.584625244140625;-164.51809692382812;43.76968002319336;-6.6846113204956055;-2.9281086921691895;-6.84981107711792
1445513762790;18.61309814453125;-164.49803161621094;43.7772331237793;-6.66904878616333;-2.894589900970459;-6.888118267059326
1445513762822;18.59478759765625;-164.494873046875;43.76333999633789;-6.646304130554199;-2.8586769104003906;-6.896498203277588
1445513762856;18.55712890625;-164.4945068359375;43.730350494384766;-6.607996463775635;-2.8431146144866943;-6.943184852600098
1445513762889;18.53887939453125;-164.4982147216797;43.713043212890625;-6.596025466918945;-2.82515811920166;-6.987477779388428
1445513762922;18.48095703125;-164.51748657226562;43.65852355957031;-6.6127848625183105;-2.7700912952423096;-6.941987991333008
1445513762955;18.46868896484375;-164.52085876464844;43.64556121826172;-6.627150535583496;-2.8119897842407227;-6.976703643798828
1445513762988;18.494598388671875;-164.5169219970703;43.64461898803711;-6.584054470062256;-2.7940332889556885;-6.957550048828125
1445513763020;18.5509033203125;-164.50161743164062;43.65897750854492;-6.628347396850586;-2.7904419898986816;-6.854599475860596
1445513763055;18.598724365234375;-164.4971160888672;43.677677154541016;-6.606799602508545;-2.804807186126709;-6.862978935241699
1445513763087;18.640838623046875;-164.48936462402344;43.685874938964844;-6.624756336212158;-2.802412986755371;-6.9024834632873535
1445513763120;18.655303955078125;-164.48837280273438;43.68763732910156;-6.641515731811523;-2.852691411972046;-6.898892402648926
1445513763154;18.70208740234375;-164.49417114257812;43.704219818115234;-6.655880928039551;-2.8383262157440186;-6.934805393218994
1445513763190;18.714508056640625;-164.5030517578125;43.70793533325195;-6.653486728668213;-2.8347349166870117;-6.89410400390625
1445513763220;18.70501708984375;-164.51307678222656;43.69685745239258;-6.599617004394531;-2.8574798107147217;-6.941987991333008
1445513763256;18.648162841796875;-164.5102081298828;43.66267776489258;-6.563704013824463;-2.8826189041137695;-6.968324184417725
1445513763285;18.582489013671875;-164.51002502441406;43.62514114379883;-6.551733016967773;-2.892195701599121;-6.959944248199463
1445513763318;18.508636474609375;-164.5254669189453;43.5845947265625;-6.5493388175964355;-2.829946517944336;-6.9922661781311035
1445513763351;18.473480224609375;-164.53594970703125;43.56574249267578;-6.563704013824463;-2.823961019515991;-6.998251438140869
1445513763384;18.453521728515625;-164.5592803955078;43.55705642700195;-6.6127848625183105;-2.778470993041992;-6.9491705894470215
1445513763417;18.461273193359375;-164.56199645996094;43.562110900878906;-6.621164798736572;-2.806004285812378;-6.9060750007629395
1445513763454;18.5;-164.56033325195312;43.5904541015625;-6.586448669433594;-2.8119897842407227;-6.8809356689453125
1445513763483;18.521209716796875;-164.5592803955078;43.61240768432617;-6.676231384277344;-2.868253707885742;-6.944382190704346
1445513763516;18.54400634765625;-164.55287170410156;43.6302490234375;-6.722918510437012;-2.9053637981414795;-6.922834396362305
1445513763552;18.63885498046875;-164.52877807617188;43.69055938720703;-6.731297969818115;-2.9005753993988037;-6.836642742156982
1445513763583;18.683319091796875;-164.51947021484375;43.718563079833984;-6.652289390563965;-2.828749418258667;-6.897695064544678
1445513763620;18.63397216796875;-164.52078247070312;43.69871520996094;-6.582857608795166;-2.762908697128296;-6.907271862030029
1445513763648;18.572357177734375;-164.5266571044922;43.66797637939453;-6.5912370681762695;-2.7676970958709717;-6.980295181274414
1445513763682;18.480194091796875;-164.5343017578125;43.61888122558594;-6.524199485778809;-2.800018787384033;-6.98508358001709
1445513763718;18.37127685546875;-164.5519561767578;43.6041145324707;-6.640318393707275;-2.8443117141723633;-6.993463039398193
1445513763747;18.3380126953125;-164.556640625;43.608131408691406;-6.66904878616333;-2.8419175148010254;-6.947973251342773
1445513763783;18.39080810546875;-164.53028869628906;43.63509750366211;-6.628347396850586;-2.9161376953125;-6.965929985046387
1445513763827;18.4984130859375;-164.49183654785156;43.6915168762207;-6.636727333068848;-2.87064790725708;-6.884527206420898
1445513763846;18.555877685546875;-164.4813232421875;43.721473693847656;-6.641515731811523;-2.853888511657715;-6.825869083404541
1445513763879;18.58648681640625;-164.48423767089844;43.734806060791016;-6.67982292175293;-2.8347349166870117;-6.873753070831299
1445513763912;18.595947265625;-164.48985290527344;43.73780822753906;-6.651092529296875;-2.806004285812378;-6.890512466430664
1445513763945;18.586334228515625;-164.5187530517578;43.728206634521484;-6.671442985534668;-2.808398485183716;-6.912060260772705
1445513763978;18.559906005859375;-164.54502868652344;43.711936950683594;-6.678625583648682;-2.78086519241333;-6.908469200134277
1445513764011;18.5506591796875;-164.54244995117188;43.705108642578125;-6.685808181762695;-2.850297212600708;-6.989871978759766
1445513764044;18.513824462890625;-164.5171356201172;43.679344177246094;-6.520608425140381;-2.852691411972046;-6.965929985046387
1445513764078;18.472381591796875;-164.50082397460938;43.65303421020508;-6.523002624511719;-2.8658595085144043;-7.005434036254883
1445513764110;18.41339111328125;-164.48048400878906;43.614471435546875;-6.53257942199707;-2.8562827110290527;-6.921637058258057
1445513764144;18.383087158203125;-164.48439025878906;43.59314727783203;-6.557718276977539;-2.801215887069702;-6.926425457000732
1445513764176;18.366668701171875;-164.50201416015625;43.583255767822266;-6.596025466918945;-2.7700912952423096;-6.934805393218994
1445513764210;18.375457763671875;-164.5401611328125;43.5882568359375;-6.671442985534668;-2.828749418258667;-6.941987991333008
1445513764242;18.390472412109375;-164.5517578125;43.59688949584961;-6.671442985534668;-2.828749418258667;-6.952761650085449
1445513764276;18.4652099609375;-164.5477752685547;43.63916778564453;-6.6355299949646;-2.8610711097717285;-6.903680801391602
1445513764308;18.5341796875;-164.52183532714844;43.68058776855469;-6.6379241943359375;-2.920926094055176;-6.914454460144043
1445513764341;18.5555419921875;-164.5074920654297;43.694889068603516;-6.654683589935303;-2.8874073028564453;-6.93959379196167
1445513764373;18.577178955078125;-164.49375915527344;43.71349334716797;-6.625953197479248;-2.869450807571411;-6.868964672088623
1445513764407;18.59014892578125;-164.48667907714844;43.723331451416016;-6.648698329925537;-2.871845006942749;-6.846219539642334
1445513764441;18.58709716796875;-164.4941864013672;43.72346496582031;-6.672640323638916;-2.853888511657715;-6.892906665802002
1445513764473;18.54266357421875;-164.51905822753906;43.700843811035156;-6.660669326782227;-2.823961019515991;-6.956353187561035
1445513764509;18.5308837890625;-164.52967834472656;43.69420623779297;-6.62236213684082;-2.7880477905273438;-6.921637058258057
1445513764554;18.474090576171875;-164.5591278076172;43.665245056152344;-6.592434406280518;-2.7748796939849854;-6.975506782531738
1445513764574;18.448028564453125;-164.5660400390625;43.653839111328125;-6.603208065032959;-2.756923198699951;-6.975506782531738
1445513764605;18.457855224609375;-164.56663513183594;43.661067962646484;-6.57806921005249;-2.756923198699951;-6.938396453857422
1445513764637;18.506500244140625;-164.56362915039062;43.692073822021484;-6.592434406280518;-2.801215887069702;-6.931213855743408
1445513764671;18.533599853515625;-164.5601806640625;43.709232330322266;-6.618770599365234;-2.850297212600708;-6.890512466430664
1445513764704;18.603485107421875;-164.55923461914062;43.75275421142578;-6.641515731811523;-2.876633405685425;-6.884527206420898
1445513764737;18.6231689453125;-164.5716094970703;43.76862716674805;-6.6810197830200195;-2.8826189041137695;-6.936002254486084
1445513764771;18.623443603515625;-164.57882690429688;43.76984405517578;-6.655880928039551;-2.8383262157440186;-6.920440196990967
1445513764803;18.599334716796875;-164.59271240234375;43.756622314453125;-6.588842868804932;-2.8347349166870117;-6.967126846313477
1445513764836;18.54779052734375;-164.6096649169922;43.728179931640625;-6.633135795593262;-2.8179752826690674;-6.987477779388428
1445513764869;18.538330078125;-164.61717224121094;43.72319412231445;-6.63433313369751;-2.808398485183716;-6.950367450714111
1445513764902;18.554656982421875;-164.615478515625;43.731990814208984;-6.645106792449951;-2.8095955848693848;-6.909666061401367
1445513764935;18.5751953125;-164.6114044189453;43.742713928222656;-6.655880928039551;-2.783259391784668;-6.854599475860596
1445513764970;18.593536376953125;-164.61538696289062;43.751277923583984;-6.720524311065674;-2.8095955848693848;-6.877344608306885
1445513765003;18.6051025390625;-164.61355590820312;43.75703048706055;-6.701370716094971;-2.8143839836120605;-6.856993675231934
1445513765034;18.609588623046875;-164.60037231445312;43.758056640625;-6.661866188049316;-2.852691411972046;-6.9240312576293945
1445513765068;18.559600830078125;-164.57534790039062;43.72667694091797;-6.59004020690918;-2.8574798107147217;-6.94079065322876
1445513765100;18.525970458984375;-164.57086181640625;43.70685577392578;-6.592434406280518;-2.8455088138580322;-6.975506782531738
1445513765134;18.458251953125;-164.5675811767578;43.66658401489258;-6.600813865661621;-2.8335378170013428;-6.965929985046387
1445513765168;18.416473388671875;-164.5691680908203;43.63882827758789;-6.600813865661621;-2.7904419898986816;-6.9695210456848145
1445513765200;18.40765380859375;-164.5690460205078;43.630741119384766;-6.57926607131958;-2.7724854946136475;-6.933608055114746
1445513765235;18.425079345703125;-164.57156372070312;43.632816314697266;-6.619967937469482;-2.7688941955566406;-6.914454460144043
1445513765266;18.443328857421875;-164.5687713623047;43.63791275024414;-6.647500991821289;-2.784456491470337;-6.930016994476318
1445513765305;18.498077392578125;-164.548828125;43.65637969970703;-6.628347396850586;-2.8347349166870117;-6.892906665802002
1445513765331;18.52294921875;-164.541015625;43.666297912597656;-6.631938934326172;-2.84790301322937;-6.919242858886719
1445513765364;18.550384521484375;-164.5327606201172;43.675899505615234;-6.648698329925537;-2.851494312286377;-6.930016994476318
1445513765397;18.5382080078125;-164.52749633789062;43.66716003417969;-6.62236213684082;-2.851494312286377;-6.982689380645752
1445513765431;18.525848388671875;-164.50457763671875;43.65609359741211;-6.59004020690918;-2.7940332889556885;-6.886921405792236
1445513765464;18.526123046875;-164.5035400390625;43.658226013183594;-6.576871871948242;-2.7940332889556885;-6.9024834632873535
1445513765497;18.51263427734375;-164.5033416748047;43.652652740478516;-6.593631267547607;-2.7952303886413574;-6.9240312576293945
1445513765530;18.5113525390625;-164.51075744628906;43.65325164794922;-6.633135795593262;-2.801215887069702;-6.938396453857422
1445513765563;18.517669677734375;-164.5137176513672;43.658416748046875;-6.658275127410889;-2.802412986755371;-6.946776390075684
1445513765596;18.5494384765625;-164.5028533935547;43.680259704589844;-6.645106792449951;-2.823961019515991;-6.900089263916016
1445513765635;18.565673828125;-164.48362731933594;43.691776275634766;-6.63433313369751;-2.8359320163726807;-6.907271862030029
1445513765660;18.5660400390625;-164.47637939453125;43.691226959228516;-6.653486728668213;-2.8634653091430664;-6.912060260772705
1445513765694;18.54754638671875;-164.46189880371094;43.67588806152344;-6.618770599365234;-2.853888511657715;-6.941987991333008
1445513765727;18.537750244140625;-164.4579315185547;43.66716003417969;-6.618770599365234;-2.80361008644104;-6.897695064544678
1445513765760;18.51678466796875;-164.46324157714844;43.64934539794922;-6.648698329925537;-2.8203697204589844;-6.898892402648926
1445513765793;18.50775146484375;-164.46759033203125;43.64081954956055;-6.613982200622559;-2.7964274883270264;-6.903680801391602
1445513765826;18.50799560546875;-164.46807861328125;43.64079284667969;-6.604405403137207;-2.808398485183716;-6.898892402648926
1445513765859;18.502166748046875;-164.46568298339844;43.638336181640625;-6.633135795593262;-2.8371291160583496;-6.94079065322876
1445513765892;18.4990234375;-164.4623565673828;43.64033126831055;-6.641515731811523;-2.8371291160583496;-6.922834396362305
1445513765925;18.505584716796875;-164.45565795898438;43.648223876953125;-6.641515731811523;-2.8383262157440186;-6.903680801391602
1445513765958;18.50396728515625;-164.44955444335938;43.651573181152344;-6.630741596221924;-2.827552318572998;-6.92881965637207
1445513765991;18.5064697265625;-164.4441680908203;43.6546745300293;-6.636727333068848;-2.8155810832977295;-6.908469200134277
1445513766024;18.494384765625;-164.437744140625;43.651023864746094;-6.63433313369751;-2.8407204151153564;-6.936002254486084
1445513766058;18.488037109375;-164.43885803222656;43.649070739746094;-6.618770599365234;-2.827552318572998;-6.913257598876953
1445513766090;18.464691162109375;-164.430419921875;43.642051696777344;-6.6163763999938965;-2.8598740100860596;-6.9276227951049805
1445513766123;18.46435546875;-164.4326934814453;43.6419563293457;-6.598419666290283;-2.804807186126709;-6.926425457000732
1445513766156;18.461181640625;-164.43836975097656;43.63926315307617;-6.652289390563965;-2.8347349166870117;-6.956353187561035
1445513766189;18.453948974609375;-164.4534454345703;43.63309097290039;-6.617573261260986;-2.8143839836120605;-6.965929985046387
1445513766222;18.4613037109375;-164.4597625732422;43.63613510131836;-6.657077789306641;-2.832340717315674;-6.963535785675049
1445513766255;18.485687255859375;-164.46449279785156;43.648826599121094;-6.6163763999938965;-2.7916390895843506;-6.889315605163574
1445513766287;18.5352783203125;-164.48867797851562;43.67710494995117;-6.658275127410889;-2.78086519241333;-6.93959379196167
1445513766321;18.574432373046875;-164.49490356445312;43.6994514465332;-6.633135795593262;-2.8359320163726807;-6.896498203277588
1445513766354;18.624603271484375;-164.49203491210938;43.728492736816406;-6.6391215324401855;-2.8371291160583496;-6.930016994476318
1445513766387;18.6474609375;-164.48948669433594;43.74290466308594;-6.6630635261535645;-2.8610711097717285;-6.9240312576293945
1445513766420;18.685760498046875;-164.4703826904297;43.76382064819336;-6.654683589935303;-2.918531894683838;-6.903680801391602
1445513766453;18.697540283203125;-164.46124267578125;43.768096923828125;-6.628347396850586;-2.852691411972046;-6.908469200134277
1445513766486;18.695465087890625;-164.45484924316406;43.76141357421875;-6.624756336212158;-2.828749418258667;-6.907271862030029
1445513766520;18.655487060546875;-164.50303649902344;43.73338317871094;-6.661866188049316;-2.73537540435791;-6.913257598876953
1445513766552;18.642425537109375;-164.52880859375;43.72563934326172;-6.675034523010254;-2.713827610015869;-6.877344608306885
1445513766585;18.6185302734375;-164.58216857910156;43.709068298339844;-6.685808181762695;-2.671929121017456;-6.8821330070495605
1445513766618;18.6143798828125;-164.6110382080078;43.70581817626953;-6.687005519866943;-2.646790027618408;-6.903680801391602
1445513766652;18.595184326171875;-164.6454315185547;43.69352340698242;-6.67982292175293;-2.718616008758545;-6.977900981903076
1445513766684;18.595916748046875;-164.63629150390625;43.691680908203125;-6.628347396850586;-2.7940332889556885;-6.932411193847656
1445513766717;18.611541748046875;-164.59645080566406;43.693084716796875;-6.501454830169678;-2.89339280128479;-6.987477779388428
1445513766751;18.615966796875;-164.57199096679688;43.69029998779297;-6.490680694580078;-2.977189779281616;-6.995857238769531
1445513766787;18.66094970703125;-164.53504943847656;43.7064323425293;-6.580463409423828;-2.9747955799102783;-6.938396453857422
1445513766816;18.689544677734375;-164.52459716796875;43.71901321411133;-6.621164798736572;-2.96162748336792;-6.93959379196167
1445513766851;18.764556884765625;-164.52622985839844;43.75619888305664;-6.701370716094971;-2.892195701599121;-6.909666061401367
1445513766883;18.82562255859375;-164.54908752441406;43.78752136230469;-6.72531270980835;-2.78086519241333;-6.884527206420898
1445513766916;18.837066650390625;-164.5653076171875;43.79234313964844;-6.703764915466309;-2.73537540435791;-6.84981107711792
1445513766950;18.83770751953125;-164.610595703125;43.791221618652344;-6.721721172332764;-2.697068214416504;-6.886921405792236
1445513766983;18.831787109375;-164.63198852539062;43.788082122802734;-6.721721172332764;-2.6886885166168213;-6.931213855743408
1445513767018;18.814453125;-164.65367126464844;43.778953552246094;-6.645106792449951;-2.7892448902130127;-6.9731125831604
1445513767047;18.819854736328125;-164.65272521972656;43.781837463378906;-6.54455041885376;-2.7724854946136475;-6.955155849456787
1445513767080;18.8267822265625;-164.65423583984375;43.7874641418457;-6.557718276977539;-2.7952303886413574;-6.982689380645752
1445513767114;18.802703857421875;-164.64031982421875;43.77731704711914;-6.5948286056518555;-2.874239206314087;-6.93959379196167
1445513767147;18.808319091796875;-164.6284942626953;43.78190612792969;-6.600813865661621;-2.8670566082000732;-6.944382190704346
1445513767179;18.822662353515625;-164.6187286376953;43.796165466308594;-6.646304130554199;-2.8778305053710938;-6.914454460144043
1445513767212;18.83172607421875;-164.62120056152344;43.812530517578125;-6.676231384277344;-2.807201385498047;-6.903680801391602
1445513767245;18.8306884765625;-164.62606811523438;43.81745147705078;-6.697779178619385;-2.7760767936706543;-6.865373611450195
1445513767278;18.831207275390625;-164.6447296142578;43.8310432434082;-6.718130111694336;-2.7712883949279785;-6.896498203277588
1445513767312;18.82794189453125;-164.65150451660156;43.8367919921875;-6.683413982391357;-2.783259391784668;-6.89410400390625
1445513767345;18.81927490234375;-164.65797424316406;43.841766357421875;-6.666654586791992;-2.778470993041992;-6.892906665802002
1445513767383;18.805084228515625;-164.6620330810547;43.83985137939453;-6.66785192489624;-2.7880477905273438;-6.920440196990967
1445513767410;18.786865234375;-164.65264892578125;43.83864974975586;-6.670246124267578;-2.8778305053710938;-6.926425457000732
1445513767444;18.781768798828125;-164.63848876953125;43.838775634765625;-6.580463409423828;-2.8610711097717285;-6.892906665802002
1445513767477;18.717987060546875;-164.6224822998047;43.808406829833984;-6.581660270690918;-2.846705913543701;-6.912060260772705
1445513767510;18.63116455078125;-164.63128662109375;43.76506423950195;-6.653486728668213;-2.8431146144866943;-6.901286602020264
1445513767542;18.6123046875;-164.63722229003906;43.756744384765625;-6.653486728668213;-2.760514497756958;-6.916848659515381
1445513767576;18.554046630859375;-164.6624298095703;43.72857666015625;-6.6163763999938965;-2.7222073078155518;-6.912060260772705
1445513767609;18.445404052734375;-164.6956329345703;43.67226791381836;-6.584054470062256;-2.7269957065582275;-7.041347026824951
1445513767641;18.409027099609375;-164.70582580566406;43.65407180786133;-6.575675010681152;-2.718616008758545;-6.998251438140869
1445513767675;18.399139404296875;-164.6971435546875;43.6500129699707;-6.563704013824463;-2.8167781829833984;-6.987477779388428
1445513767707;18.440093994140625;-164.6857147216797;43.672977447509766;-6.57806921005249;-2.80361008644104;-6.967126846313477
1445513767741;18.54949951171875;-164.669921875;43.73383331298828;-6.665457725524902;-2.779668092727661;-6.918045997619629
1445513767774;18.701171875;-164.64520263671875;43.818626403808594;-6.788758754730225;-2.87064790725708;-6.7935471534729
1445513767806;18.80908203125;-164.6278533935547;43.8783073425293;-6.773196697235107;-2.823961019515991;-6.738480567932129
1445513767839;18.968963623046875;-164.6245574951172;43.96876525878906;-6.794744491577148;-2.782062292098999;-6.833051681518555
1445513767872;18.982666015625;-164.64939880371094;43.97916030883789;-6.757634162902832;-2.8107926845550537;-6.848613739013672
1445513767905;18.959381103515625;-164.66110229492188;43.96708679199219;-6.740874767303467;-2.827552318572998;-6.88332986831665
1445513767938;18.8692626953125;-164.67518615722656;43.91788101196289;-6.617573261260986;-2.8167781829833984;-6.878541469573975
1445513767971;18.80828857421875;-164.68048095703125;43.88401794433594;-6.582857608795166;-2.8179752826690674;-6.968324184417725
1445513768005;18.560089111328125;-164.7024383544922;43.746253967285156;-6.5277910232543945;-2.7533318996429443;-7.028179168701172
1445513768037;18.3963623046875;-164.70654296875;43.65599822998047;-6.473921298980713;-2.7246015071868896;-7.042544364929199
1445513768071;18.34710693359375;-164.70846557617188;43.62929153442383;-6.507440090179443;-2.7078421115875244;-7.003039836883545
1445513768104;18.331939697265625;-164.71002197265625;43.62489318847656;-6.603208065032959;-2.7317841053009033;-6.938396453857422
1445513768136;18.389312744140625;-164.6988067626953;43.661434173583984;-6.703764915466309;-2.8419175148010254;-6.89410400390625
1445513768169;18.4317626953125;-164.6880645751953;43.68693923950195;-6.690596580505371;-2.8431146144866943;-6.825869083404541
1445513768203;18.48553466796875;-164.66873168945312;43.7198600769043;-6.685808181762695;-2.894589900970459;-6.9060750007629395
1445513768236;18.514129638671875;-164.66098022460938;43.737701416015625;-6.66904878616333;-2.8574798107147217;-6.890512466430664
1445513768268;18.56573486328125;-164.6621856689453;43.76866912841797;-6.6846113204956055;-2.852691411972046;-6.916848659515381
1445513768301;18.563140869140625;-164.66531372070312;43.767250061035156;-6.651092529296875;-2.832340717315674;-6.900089263916016
1445513768336;18.521728515625;-164.6731414794922;43.742591857910156;-6.62236213684082;-2.7485435009002686;-6.953958988189697
1445513768367;18.45135498046875;-164.69818115234375;43.70167922973633;-6.586448669433594;-2.651578426361084;-6.977900981903076
1445513768400;18.4173583984375;-164.71450805664062;43.68238830566406;-6.558915615081787;-2.647987127304077;-6.983886241912842
1445513768434;18.400482177734375;-164.7305145263672;43.672977447509766;-6.660669326782227;-2.7293899059295654;-6.962338447570801
1445513768468;18.48309326171875;-164.749267578125;43.719505310058594;-6.689399719238281;-2.7509377002716064;-6.933608055114746
1445513768501;18.56005859375;-164.73655700683594;43.761592864990234;-6.746860504150391;-2.8670566082000732;-6.891709804534912
1445513768535;18.568511962890625;-164.72657775878906;43.76799774169922;-6.690596580505371;-2.852691411972046;-6.947973251342773
1445513768572;18.53192138671875;-164.71487426757812;43.74991226196289;-6.357802391052246;-2.6372132301330566;-6.9491705894470215
1445513768600;18.479583740234375;-164.7294158935547;43.72283935546875;-6.641515731811523;-2.759317398071289;-7.044938564300537
1445513768635;18.5269775390625;-164.71102905273438;43.749393463134766;-6.599617004394531;-2.698265314102173;-6.867767810821533
1445513768665;18.55010986328125;-164.70404052734375;43.76242446899414;-6.6810197830200195;-2.823961019515991;-6.919242858886719
1445513768697;18.566619873046875;-164.70333862304688;43.77174377441406;-6.593631267547607;-2.829946517944336;-6.831854343414307
1445513768735;18.618988037109375;-164.7037811279297;43.802860260009766;-6.66904878616333;-2.9029695987701416;-6.997054576873779
1445513768762;18.595550537109375;-164.71548461914062;43.79182434082031;-6.722918510437012;-2.9065608978271484;-6.958747386932373
1445513768795;18.55694580078125;-164.7373809814453;43.775047302246094;-6.71453857421875;-2.807201385498047;-6.9707183837890625
1445513768831;18.494293212890625;-164.75379943847656;43.742401123046875;-6.630741596221924;-2.7497406005859375;-6.926425457000732
1445513768862;18.40997314453125;-164.77830505371094;43.697566986083984;-6.6163763999938965;-2.715024709701538;-6.925228595733643
1445513768896;18.356781005859375;-164.812255859375;43.671173095703125;-6.657077789306641;-2.676717519760132;-6.898892402648926
1445513768929;18.337677001953125;-164.8318634033203;43.6624870300293;-6.6379241943359375;-2.668337821960449;-6.892906665802002
1445513768960;18.28143310546875;-164.87255859375;43.63685989379883;-6.6355299949646;-2.691082715988159;-7.0138139724731445
1445513768994;18.235382080078125;-164.8852996826172;43.614376068115234;-6.666654586791992;-2.7257986068725586;-6.97430944442749
1445513769027;18.172454833984375;-164.90829467773438;43.586669921875;-6.508637428283691;-2.8095955848693848;-6.989871978759766
1445513769060;18.161407470703125;-164.90203857421875;43.58347702026367;-6.610390663146973;-2.78086519241333;-7.011419773101807
1445513769093;18.11224365234375;-164.8893585205078;43.563201904296875;-6.561309814453125;-2.759317398071289;-6.955155849456787
1445513769126;17.98223876953125;-164.88368225097656;43.498165130615234;-6.5912370681762695;-2.855085611343384;-6.955155849456787
1445513769160;17.9427490234375;-164.87364196777344;43.479164123535156;-6.658275127410889;-2.8383262157440186;-6.898892402648926
1445513769192;17.962432861328125;-164.87225341796875;43.49091339111328;-6.710947513580322;-2.9041666984558105;-6.950367450714111
1445513769225;17.96942138671875;-164.87290954589844;43.49561309814453;-6.642712593078613;-2.846705913543701;-6.888118267059326
1445513769259;17.954681396484375;-164.88790893554688;43.48976516723633;-6.6355299949646;-2.801215887069702;-6.993463039398193
1445513769292;17.88861083984375;-164.91360473632812;43.45546340942383;-6.698976516723633;-2.78086519241333;-6.983886241912842
1445513769325;17.8211669921875;-164.94430541992188;43.420658111572266;-6.664260387420654;-2.740163803100586;-6.9731125831604
1445513769357;17.689727783203125;-164.9830322265625;43.35059356689453;-6.528987884521484;-2.673126220703125;-7.003039836883545
1445513769390;17.5986328125;-165.00746154785156;43.30190658569336;-6.518214225769043;-2.631227731704712;-7.020996570587158
1445513769423;17.4781494140625;-165.03489685058594;43.237510681152344;-6.53257942199707;-2.6815059185028076;-7.0341644287109375
1445513769455;17.42047119140625;-165.0575408935547;43.2103157043457;-6.572083473205566;-2.6839001178741455;-7.048529624938965
1445513769490;17.405303955078125;-165.0666046142578;43.203880310058594;-6.580463409423828;-2.669534921646118;-6.963535785675049
1445513769522;17.376678466796875;-165.0767059326172;43.18996047973633;-6.5732808113098145;-2.691082715988159;-6.9922661781311035
1445513769556;17.366119384765625;-165.07696533203125;43.18535614013672;-6.567295074462891;-2.6791117191314697;-7.001842975616455
1445513769587;17.378204345703125;-165.0753936767578;43.192718505859375;-6.5948286056518555;-2.7281928062438965;-6.999448776245117
1445513769620;17.38946533203125;-165.0722198486328;43.19875717163086;-6.596025466918945;-2.7234044075012207;-6.98628044128418
1445513769655;17.424468994140625;-165.06478881835938;43.21755599975586;-6.588842868804932;-2.7449522018432617;-6.998251438140869
1445513769687;17.43743896484375;-165.05702209472656;43.223880767822266;-6.600813865661621;-2.7497406005859375;-6.979097843170166
1445513769721;17.4473876953125;-165.05284118652344;43.22792434692383;-6.641515731811523;-2.762908697128296;-6.967126846313477
1445513769754;17.4881591796875;-165.0531005859375;43.24335861206055;-6.607996463775635;-2.7293899059295654;-6.987477779388428
1445513769786;17.509857177734375;-165.05307006835938;43.24648666381836;-6.631938934326172;-2.7545289993286133;-6.988674640655518
1445513769819;17.5242919921875;-165.05364990234375;43.24998474121094;-6.6163763999938965;-2.73537540435791;-6.989871978759766
1445513769852;17.547637939453125;-165.05300903320312;43.25397491455078;-6.624756336212158;-2.7437551021575928;-6.9910688400268555
1445513769885;17.55694580078125;-165.05154418945312;43.25282669067383;-6.645106792449951;-2.760514497756958;-6.989871978759766
1445513769918;17.615966796875;-165.04884338378906;43.27070617675781;-6.603208065032959;-2.7054479122161865;-6.932411193847656
1445513769951;17.6160888671875;-165.0594940185547;43.25663757324219;-6.582857608795166;-2.716221809387207;-6.983886241912842
1445513769984;17.609893798828125;-165.06753540039062;43.24677276611328;-6.6163763999938965;-2.695871114730835;-7.025784969329834
1445513770022;17.630828857421875;-165.0773162841797;43.246639251708984;-6.609193801879883;-2.6898856163024902;-7.0126166343688965
1445513770050;17.638092041015625;-165.0833740234375;43.24559783935547;-6.57926607131958;-2.694674015045166;-7.01979923248291
1445513770085;17.6617431640625;-165.08554077148438;43.2469367980957;-6.57926607131958;-2.7126305103302;-6.980295181274414
1445513770116;17.683502197265625;-165.08164978027344;43.24702072143555;-6.619967937469482;-2.7329812049865723;-7.0138139724731445
1445513770150;17.69268798828125;-165.08139038085938;43.24739074707031;-6.6163763999938965;-2.719813108444214;-6.997054576873779
1445513770184;17.719573974609375;-165.08074951171875;43.254886627197266;-6.615179061889648;-2.7234044075012207;-6.97430944442749
1445513770215;17.733489990234375;-165.08375549316406;43.2519645690918;-6.651092529296875;-2.7078421115875244;-6.993463039398193
1445513770248;17.737884521484375;-165.08627319335938;43.2484016418457;-6.621164798736572;-2.7030537128448486;-7.011419773101807
1445513770282;17.7601318359375;-165.08656311035156;43.24897384643555;-6.605602264404297;-2.7222073078155518;-7.001842975616455
1445513770314;17.7745361328125;-165.08547973632812;43.247840881347656;-6.610390663146973;-2.7269957065582275;-6.961141586303711
1445513770348;17.7821044921875;-165.084716796875;43.24812698364258;-6.603208065032959;-2.7222073078155518;-6.951564788818359
1445513770380;17.788787841796875;-165.08290100097656;43.24472427368164;-6.604405403137207;-2.715024709701538;-6.98508358001709
1445513770413;17.787567138671875;-165.079833984375;43.24217224121094;-6.5912370681762695;-2.7269957065582275;-6.961141586303711
1445513770447;17.80059814453125;-165.0823974609375;43.24819564819336;-6.604405403137207;-2.695871114730835;-6.964732646942139
1445513770478;17.803741455078125;-165.0853729248047;43.250736236572266;-6.627150535583496;-2.716221809387207;-6.959944248199463
1445513770512;17.810882568359375;-165.0730438232422;43.25718307495117;-6.621164798736572;-2.7545289993286133;-7.010222434997559
1445513770546;17.80535888671875;-165.07400512695312;43.25685501098633;-6.641515731811523;-2.737769603729248;-7.003039836883545
1445513770577;17.80120849609375;-165.07423400878906;43.25581741333008;-6.657077789306641;-2.7473464012145996;-7.009025573730469
1445513770611;17.83349609375;-165.0655517578125;43.27528381347656;-6.564900875091553;-2.713827610015869;-6.9024834632873535
1445513770644;17.821746826171875;-165.06790161132812;43.27073287963867;-6.562506675720215;-2.671929121017456;-7.003039836883545
1445513770677;17.80609130859375;-165.0745849609375;43.26753616333008;-6.593631267547607;-2.716221809387207;-6.980295181274414
1445513770710;17.819976806640625;-165.0764923095703;43.28102111816406;-6.602011203765869;-2.7485435009002686;-7.0126166343688965
1445513770743;17.82861328125;-165.07843017578125;43.288875579833984;-6.588842868804932;-2.73537540435791;-6.9695210456848145
1445513770776;17.85498046875;-165.07310485839844;43.308738708496094;-6.6163763999938965;-2.7126305103302;-6.956353187561035
1445513770810;17.858673095703125;-165.07081604003906;43.31327438354492;-6.617573261260986;-2.7437551021575928;-6.980295181274414
1445513770841;17.859161376953125;-165.0780487060547;43.317779541015625;-6.640318393707275;-2.734178304672241;-6.9695210456848145
1445513770875;17.8651123046875;-165.08497619628906;43.324951171875;-6.631938934326172;-2.6827030181884766;-6.936002254486084
1445513770908;17.8548583984375;-165.08993530273438;43.321495056152344;-6.642712593078613;-2.694674015045166;-6.94079065322876
1445513770942;17.837799072265625;-165.10015869140625;43.3170166015625;-6.617573261260986;-2.713827610015869;-6.964732646942139
1445513770974;17.83013916015625;-165.10299682617188;43.31462478637695;-6.62355899810791;-2.7006595134735107;-6.97430944442749
1445513771007;17.823974609375;-165.1040496826172;43.314937591552734;-6.599617004394531;-2.737769603729248;-6.983886241912842
1445513771040;17.816162109375;-165.103271484375;43.31149673461914;-6.5948286056518555;-2.7269957065582275;-6.998251438140869
1445513771073;17.803375244140625;-165.09854125976562;43.30564880371094;-6.5948286056518555;-2.742558002471924;-6.965929985046387
1445513771106;17.800262451171875;-165.09901428222656;43.30446243286133;-6.62236213684082;-2.7281928062438965;-6.9731125831604
1445513771139;17.8023681640625;-165.0980987548828;43.3061408996582;-6.621164798736572;-2.734178304672241;-6.963535785675049
1445513771172;17.809814453125;-165.10244750976562;43.31024169921875;-6.62236213684082;-2.7126305103302;-6.981492042541504
1445513771205;17.813140869140625;-165.10739135742188;43.31233215332031;-6.62355899810791;-2.6803088188171387;-6.988674640655518
1445513771238;17.802825927734375;-165.10934448242188;43.306373596191406;-6.617573261260986;-2.7246015071868896;-6.9922661781311035
1445513771271;17.798980712890625;-165.1053466796875;43.30276870727539;-6.624756336212158;-2.7329812049865723;-6.979097843170166
1445513771304;17.7994384765625;-165.1046600341797;43.302345275878906;-6.624756336212158;-2.7293899059295654;-7.029376029968262
1445513771339;17.802337646484375;-165.10897827148438;43.30302810668945;-6.672640323638916;-2.717418909072876;-6.993463039398193
1445513771370;17.835418701171875;-165.0997314453125;43.320404052734375;-6.555324077606201;-2.7006595134735107;-6.955155849456787
1445513771403;17.8380126953125;-165.09823608398438;43.32283401489258;-6.604405403137207;-2.713827610015869;-6.994660377502441
1445513771436;17.8360595703125;-165.1000518798828;43.32496643066406;-6.599617004394531;-2.7042508125305176;-6.9491705894470215
1445513771469;17.844635009765625;-165.10009765625;43.33078384399414;-6.607996463775635;-2.7449522018432617;-7.0138139724731445
1445513771502;17.882659912109375;-165.08985900878906;43.353885650634766;-6.602011203765869;-2.7449522018432617;-6.979097843170166
1445513771536;17.91876220703125;-165.0830841064453;43.376522064208984;-6.630741596221924;-2.762908697128296;-6.962338447570801
1445513771568;17.933197021484375;-165.07766723632812;43.385520935058594;-6.629544734954834;-2.7521347999572754;-6.956353187561035
1445513771603;17.948577880859375;-165.06777954101562;43.395755767822266;-6.630741596221924;-2.7533318996429443;-6.934805393218994
1445513771634;17.9449462890625;-165.06478881835938;43.39844512939453;-6.62355899810791;-2.7461493015289307;-6.937199592590332
1445513771667;17.926513671875;-165.0716552734375;43.39285659790039;-6.648698329925537;-2.713827610015869;-6.959944248199463
1445513771701;17.902587890625;-165.07925415039062;43.38590621948242;-6.63433313369751;-2.7234044075012207;-6.989871978759766
1445513771734;17.888214111328125;-165.0798797607422;43.38105392456055;-6.6127848625183105;-2.7281928062438965;-6.9707183837890625
1445513771768;17.851470947265625;-165.08175659179688;43.36814498901367;-6.593631267547607;-2.7246015071868896;-6.97430944442749
1445513771800;17.827911376953125;-165.0788116455078;43.35850143432617;-6.610390663146973;-2.738966703414917;-6.994660377502441
1445513771832;17.7784423828125;-165.08155822753906;43.33817672729492;-6.615179061889648;-2.719813108444214;-6.998251438140869
1445513771865;17.75933837890625;-165.0847930908203;43.33097839355469;-6.603208065032959;-2.713827610015869;-7.007828235626221
1445513771900;17.719757080078125;-165.08900451660156;43.31492614746094;-6.586448669433594;-2.7234044075012207;-6.994660377502441
1445513771932;17.705291748046875;-165.08653259277344;43.311851501464844;-6.576871871948242;-2.715024709701538;-6.979097843170166
1445513771964;17.7059326171875;-165.0838165283203;43.31525421142578;-6.599617004394531;-2.75812029838562;-6.994660377502441
1445513772000;17.713165283203125;-165.08218383789062;43.32679748535156;-6.603208065032959;-2.7497406005859375;-6.9910688400268555
1445513772030;17.714019775390625;-165.08218383789062;43.33129119873047;-6.599617004394531;-2.762908697128296;-6.967126846313477
1445513772065;17.69921875;-165.08094787597656;43.33053970336914;-6.604405403137207;-2.764105796813965;-6.98628044128418
1445513772096;17.70428466796875;-165.0893096923828;43.34128952026367;-6.649895191192627;-2.7257986068725586;-6.964732646942139
1445513772132;17.705352783203125;-165.09190368652344;43.34891128540039;-6.627150535583496;-2.736572504043579;-6.98508358001709
1445513772162;17.7249755859375;-165.09666442871094;43.368324279785156;-6.600813865661621;-2.7090392112731934;-6.931213855743408
1445513772195;17.723876953125;-165.10035705566406;43.372352600097656;-6.584054470062256;-2.721010208129883;-6.989871978759766
1445513772228;17.72705078125;-165.10943603515625;43.37947082519531;-6.617573261260986;-2.741360902786255;-6.959944248199463
1445513772261;17.755889892578125;-165.1165008544922;43.39839172363281;-6.621164798736572;-2.7461493015289307;-6.988674640655518
1445513772294;17.764617919921875;-165.11917114257812;43.40434646606445;-6.599617004394531;-2.759317398071289;-7.003039836883545
1445513772327;17.785247802734375;-165.12196350097656;43.417938232421875;-6.621164798736572;-2.7557260990142822;-6.976703643798828
1445513772360;17.787139892578125;-165.12718200683594;43.42050552368164;-6.63433313369751;-2.738966703414917;-6.997054576873779
1445513772393;17.78375244140625;-165.13877868652344;43.42195510864258;-6.641515731811523;-2.718616008758545;-6.9695210456848145
1445513772426;17.773529052734375;-165.15240478515625;43.42007064819336;-6.617573261260986;-2.7078421115875244;-6.947973251342773
1445513772460;17.77423095703125;-165.1587371826172;43.422489166259766;-6.63433313369751;-2.6874914169311523;-6.971915245056152
1445513772491;17.755401611328125;-165.1720733642578;43.418514251708984;-6.631938934326172;-2.7054479122161865;-7.006631374359131
1445513772525;17.75274658203125;-165.1732635498047;43.41978454589844;-6.597222805023193;-2.7437551021575928;-6.9910688400268555
1445513772558;17.752471923828125;-165.17120361328125;43.424522399902344;-6.600813865661621;-2.765302896499634;-6.97430944442749
1445513772592;17.748992919921875;-165.16871643066406;43.42688751220703;-6.586448669433594;-2.734178304672241;-6.981492042541504
1445513772625;17.74786376953125;-165.16635131835938;43.428131103515625;-6.606799602508545;-2.7473464012145996;-6.981492042541504
1445513772657;17.73797607421875;-165.1691436767578;43.426517486572266;-6.648698329925537;-2.7246015071868896;-6.980295181274414
1445513772690;17.740478515625;-165.17178344726562;43.42990493774414;-6.615179061889648;-2.737769603729248;-6.952761650085449
1445513772723;17.739013671875;-165.18080139160156;43.438499450683594;-6.633135795593262;-2.7257986068725586;-6.953958988189697
1445513772756;17.72894287109375;-165.1842803955078;43.43865966796875;-6.602011203765869;-2.737769603729248;-7.001842975616455
1445513772788;17.706024169921875;-165.18911743164062;43.44398880004883;-6.609193801879883;-2.719813108444214;-6.968324184417725
1445513772822;17.688812255859375;-165.1917724609375;43.44049072265625;-6.582857608795166;-2.7126305103302;-7.001842975616455
1445513772855;17.66204833984375;-165.19041442871094;43.43663787841797;-6.576871871948242;-2.734178304672241;-6.964732646942139
1445513772888;17.649169921875;-165.1954803466797;43.44020462036133;-6.611588001251221;-2.7257986068725586;-7.007828235626221
1445513772921;17.6458740234375;-165.20045471191406;43.44844055175781;-6.647500991821289;-2.7533318996429443;-6.987477779388428
1445513772954;17.665435791015625;-165.20199584960938;43.46415328979492;-6.593631267547607;-2.697068214416504;-6.9024834632873535
1445513772987;17.675262451171875;-165.20643615722656;43.478919982910156;-6.602011203765869;-2.7042508125305176;-6.976703643798828
1445513773020;17.667755126953125;-165.2093963623047;43.483604431152344;-6.62236213684082;-2.736572504043579;-6.956353187561035
1445513773054;17.666168212890625;-165.2098388671875;43.486785888671875;-6.597222805023193;-2.741360902786255;-7.025784969329834
1445513773086;17.661865234375;-165.21255493164062;43.49238586425781;-6.606799602508545;-2.7449522018432617;-7.024587631225586
1445513773118;17.65411376953125;-165.21299743652344;43.49178695678711;-6.602011203765869;-2.7724854946136475;-6.994660377502441
1445513773152;17.643951416015625;-165.2164764404297;43.49058532714844;-6.587646007537842;-2.7317841053009033;-6.9910688400268555
1445513773188;17.630645751953125;-165.21446228027344;43.4855842590332;-6.636727333068848;-2.740163803100586;-6.944382190704346
1445513773218;17.613494873046875;-165.224853515625;43.48059844970703;-6.627150535583496;-2.7090392112731934;-6.956353187561035
1445513773251;17.5966796875;-165.23179626464844;43.474178314208984;-6.613982200622559;-2.6898856163024902;-6.987477779388428
1445513773284;17.5875244140625;-165.2313995361328;43.47002410888672;-6.615179061889648;-2.7078421115875244;-6.97430944442749
1445513773318;17.590179443359375;-165.22579956054688;43.47282791137695;-6.607996463775635;-2.7329812049865723;-7.001842975616455
1445513773350;17.600494384765625;-165.2129669189453;43.47637939453125;-6.610390663146973;-2.7449522018432617;-6.989871978759766
1445513773383;17.601776123046875;-165.20855712890625;43.47715759277344;-6.617573261260986;-2.7664999961853027;-6.988674640655518
1445513773415;17.5941162109375;-165.19886779785156;43.4737548828125;-6.610390663146973;-2.756923198699951;-6.980295181274414
1445513773449;17.582977294921875;-165.19346618652344;43.46757888793945;-6.6127848625183105;-2.740163803100586;-6.965929985046387
1445513773483;17.5721435546875;-165.19320678710938;43.461708068847656;-6.624756336212158;-2.7234044075012207;-6.983886241912842
1445513773516;17.574798583984375;-165.19180297851562;43.45981979370117;-6.624756336212158;-2.7246015071868896;-6.98628044128418
1445513773548;17.5750732421875;-165.1944122314453;43.45941162109375;-6.6379241943359375;-2.7030537128448486;-6.988674640655518
1445513773587;17.580841064453125;-165.19326782226562;43.45948028564453;-6.627150535583496;-2.7269957065582275;-6.953958988189697
1445513773615;17.579833984375;-165.1930694580078;43.45613479614258;-6.607996463775635;-2.7293899059295654;-7.003039836883545
1445513773649;17.585235595703125;-165.19461059570312;43.45362091064453;-6.598419666290283;-2.7114334106445312;-6.987477779388428
1445513773681;17.587188720703125;-165.18292236328125;43.44812774658203;-6.605602264404297;-2.7724854946136475;-6.9922661781311035
1445513773713;17.589111328125;-165.1759490966797;43.44586181640625;-6.584054470062256;-2.742558002471924;-6.971915245056152
1445513773746;17.59600830078125;-165.17758178710938;43.44490432739258;-6.63433313369751;-2.7437551021575928;-7.015010833740234
1445513773779;17.619659423828125;-165.1799774169922;43.45353698730469;-6.618770599365234;-2.715024709701538;-6.958747386932373
1445513773812;17.64556884765625;-165.18087768554688;43.4657096862793;-6.599617004394531;-2.695871114730835;-6.980295181274414
1445513773845;17.660858154296875;-165.18026733398438;43.466705322265625;-6.609193801879883;-2.7090392112731934;-6.9491705894470215
1445513773878;17.66522216796875;-165.1829833984375;43.46650314331055;-6.617573261260986;-2.7317841053009033;-6.979097843170166
1445513773911;17.692840576171875;-165.1761474609375;43.4754753112793;-6.596025466918945;-2.7473464012145996;-6.976703643798828
1445513773946;17.7022705078125;-165.17466735839844;43.478126525878906;-6.604405403137207;-2.7533318996429443;-6.998251438140869
1445513773977;17.714508056640625;-165.17178344726562;43.47965621948242;-6.62355899810791;-2.73537540435791;-7.006631374359131
1445513774011;17.71917724609375;-165.16786193847656;43.47674560546875;-6.63433313369751;-2.7449522018432617;-6.999448776245117
1445513774044;17.7213134765625;-165.1697235107422;43.4754753112793;-6.6355299949646;-2.7030537128448486;-7.005434036254883
1445513774077;17.735931396484375;-165.1712188720703;43.478660583496094;-6.630741596221924;-2.6850972175598145;-6.98508358001709
1445513774109;17.74871826171875;-165.1785430908203;43.4760627746582;-6.618770599365234;-2.7018566131591797;-6.967126846313477
1445513774143;17.75079345703125;-165.17959594726562;43.47129440307617;-6.631938934326172;-2.7006595134735107;-6.993463039398193
1445513774175;17.774688720703125;-165.1807861328125;43.46717071533203;-6.621164798736572;-2.7054479122161865;-7.010222434997559
1445513774208;17.777496337890625;-165.1798553466797;43.46315383911133;-6.604405403137207;-2.7269957065582275;-6.998251438140869
1445513774244;17.7896728515625;-165.17465209960938;43.45710372924805;-6.6127848625183105;-2.7449522018432617;-6.987477779388428
1445513774274;17.79791259765625;-165.1720733642578;43.44893264770508;-6.609193801879883;-2.7269957065582275;-6.964732646942139
1445513774308;17.80487060546875;-165.17196655273438;43.4467887878418;-6.603208065032959;-2.7293899059295654;-6.950367450714111
1445513774340;17.814361572265625;-165.17709350585938;43.44150161743164;-6.62236213684082;-2.7246015071868896;-6.989871978759766
1445513774373;17.823028564453125;-165.18003845214844;43.44137954711914;-6.629544734954834;-2.699462413787842;-6.982689380645752
1445513774407;17.842681884765625;-165.17970275878906;43.44478225708008;-6.627150535583496;-2.721010208129883;-6.965929985046387
1445513774440;17.844940185546875;-165.17962646484375;43.44405746459961;-6.617573261260986;-2.713827610015869;-6.975506782531738
1445513774473;17.851898193359375;-165.17654418945312;43.447635650634766;-6.617573261260986;-2.736572504043579;-6.953958988189697
1445513774505;17.86529541015625;-165.1735382080078;43.450531005859375;-6.607996463775635;-2.7281928062438965;-6.983886241912842
1445513774538;17.87164306640625;-165.1727752685547;43.45090103149414;-6.6163763999938965;-2.740163803100586;-6.971915245056152
1445513774571;17.87408447265625;-165.16981506347656;43.44508361816406;-6.615179061889648;-2.742558002471924;-6.97430944442749
1445513774604;17.885589599609375;-165.16819763183594;43.444480895996094;-6.604405403137207;-2.7114334106445312;-6.987477779388428
1445513774638;17.8885498046875;-165.1720733642578;43.443973541259766;-6.631938934326172;-2.7114334106445312;-7.023390769958496
1445513774670;17.901611328125;-165.1694793701172;43.452293395996094;-6.658275127410889;-2.7329812049865723;-6.967126846313477
1445513774704;17.930999755859375;-165.1647491455078;43.47337341308594;-6.610390663146973;-2.7030537128448486;-6.988674640655518
1445513774735;17.922271728515625;-165.16612243652344;43.47163772583008;-6.617573261260986;-2.7066450119018555;-6.997054576873779
1445513774770;17.913970947265625;-165.1641845703125;43.47831726074219;-6.630741596221924;-2.760514497756958;-6.987477779388428
1445513774803;17.90899658203125;-165.1613006591797;43.481239318847656;-6.606799602508545;-2.756923198699951;-7.001842975616455
1445513774835;17.89501953125;-165.1594696044922;43.48517608642578;-6.613982200622559;-2.740163803100586;-6.97430944442749
1445513774868;17.87823486328125;-165.1538848876953;43.48788070678711;-6.588842868804932;-2.7305870056152344;-7.006631374359131
1445513774901;17.86895751953125;-165.15286254882812;43.488548278808594;-6.628347396850586;-2.715024709701538;-6.963535785675049
1445513774933;17.836212158203125;-165.15640258789062;43.482879638671875;-6.6594719886779785;-2.7126305103302;-6.946776390075684
1445513774967;17.808624267578125;-165.16310119628906;43.47826385498047;-6.600813865661621;-2.7114334106445312;-6.962338447570801
1445513775001;17.78826904296875;-165.16604614257812;43.475860595703125;-6.62236213684082;-2.693476915359497;-6.9707183837890625
1445513775036;17.770599365234375;-165.1664276123047;43.47331619262695;-6.613982200622559;-2.716221809387207;-6.995857238769531
1445513775066;17.763031005859375;-165.1630401611328;43.47136306762695;-6.604405403137207;-2.7533318996429443;-6.989871978759766
1445513775104;17.74359130859375;-165.1561279296875;43.46883773803711;-6.607996463775635;-2.7497406005859375;-6.981492042541504
1445513775132;17.716888427734375;-165.15065002441406;43.465641021728516;-6.609193801879883;-2.737769603729248;-6.9707183837890625
1445513775165;17.70166015625;-165.15005493164062;43.463565826416016;-6.625953197479248;-2.742558002471924;-6.980295181274414
1445513775198;17.684814453125;-165.15176391601562;43.463783264160156;-6.610390663146973;-2.7090392112731934;-6.983886241912842
1445513775232;17.671844482421875;-165.15359497070312;43.46202087402344;-6.625953197479248;-2.7234044075012207;-6.98628044128418
1445513775265;17.6673583984375;-165.15655517578125;43.46550369262695;-6.640318393707275;-2.716221809387207;-6.97430944442749
1445513775297;17.66119384765625;-165.15354919433594;43.46321105957031;-6.615179061889648;-2.718616008758545;-7.006631374359131
1445513775331;17.6541748046875;-165.1501922607422;43.4605712890625;-6.602011203765869;-2.7293899059295654;-6.9695210456848145
1445513775363;17.6370849609375;-165.14434814453125;43.45598220825195;-6.609193801879883;-2.7305870056152344;-7.006631374359131
1445513775396;17.628021240234375;-165.1417999267578;43.45256805419922;-6.607996463775635;-2.734178304672241;-6.951564788818359
1445513775430;17.618804931640625;-165.13645935058594;43.44801712036133;-6.596025466918945;-2.715024709701538;-7.023390769958496
1445513775461;17.596466064453125;-165.13348388671875;43.43458938598633;-6.62355899810791;-2.7521347999572754;-6.98628044128418
1445513775495;17.602569580078125;-165.13157653808594;43.43640899658203;-6.588842868804932;-2.7317841053009033;-6.962338447570801
1445513775528;17.6072998046875;-165.13485717773438;43.434906005859375;-6.615179061889648;-2.716221809387207;-7.009025573730469
1445513775560;17.602783203125;-165.13392639160156;43.4279670715332;-6.641515731811523;-2.742558002471924;-6.983886241912842
1445513775594;17.624237060546875;-165.1300811767578;43.4373893737793;-6.567295074462891;-2.699462413787842;-6.933608055114746
1445513775627;17.639129638671875;-165.1244354248047;43.44245910644531;-6.606799602508545;-2.736572504043579;-6.989871978759766
1445513775660;17.63763427734375;-165.11947631835938;43.4376106262207;-6.605602264404297;-2.7533318996429443;-6.976703643798828
1445513775693;17.65252685546875;-165.1175079345703;43.4378547668457;-6.607996463775635;-2.7509377002716064;-7.0138139724731445
1445513775727;17.657684326171875;-165.11972045898438;43.43635177612305;-6.628347396850586;-2.737769603729248;-6.983886241912842
1445513775760;17.679534912109375;-165.12124633789062;43.44043731689453;-6.636727333068848;-2.73537540435791;-6.98508358001709
1445513775792;17.678619384765625;-165.12094116210938;43.430999755859375;-6.607996463775635;-2.7246015071868896;-6.9707183837890625
1445513775825;17.67987060546875;-165.12306213378906;43.427581787109375;-6.621164798736572;-2.7293899059295654;-7.001842975616455
1445513775858;17.67950439453125;-165.12904357910156;43.41965866088867;-6.600813865661621;-2.7042508125305176;-6.987477779388428
1445513775890;17.6767578125;-165.1339569091797;43.411407470703125;-6.611588001251221;-2.718616008758545;-6.9707183837890625
1445513775924;17.689849853515625;-165.1320343017578;43.41530227661133;-6.602011203765869;-2.7269957065582275;-7.000645637512207
1445513775957;17.7120361328125;-165.1275634765625;43.421409606933594;-6.5912370681762695;-2.7437551021575928;-6.98628044128418
1445513775991;17.71929931640625;-165.12254333496094;43.42416763305664;-6.606799602508545;-2.742558002471924;-6.987477779388428
1445513776024;17.714691162109375;-165.11888122558594;43.42185974121094;-6.613982200622559;-2.761711597442627;-6.975506782531738
1445513776056;17.715301513671875;-165.11166381835938;43.421791076660156;-6.621164798736572;-2.765302896499634;-6.98628044128418
1445513776089;17.709625244140625;-165.11244201660156;43.419456481933594;-6.613982200622559;-2.7329812049865723;-6.963535785675049
1445513776122;17.700836181640625;-165.11361694335938;43.41703796386719;-6.619967937469482;-2.718616008758545;-7.005434036254883
1445513776154;17.69232177734375;-165.115966796875;43.413841247558594;-6.606799602508545;-2.7246015071868896;-6.955155849456787
1445513776188;17.689727783203125;-165.12039184570312;43.41580581665039;-6.617573261260986;-2.718616008758545;-6.997054576873779
1445513776221;17.68389892578125;-165.12350463867188;43.41568374633789;-6.602011203765869;-2.742558002471924;-6.987477779388428
1445513776258;17.69244384765625;-165.12550354003906;43.42332077026367;-6.613982200622559;-2.737769603729248;-6.979097843170166
1445513776287;17.68719482421875;-165.12548828125;43.421749114990234;-6.598419666290283;-2.7317841053009033;-6.989871978759766
1445513776320;17.673492431640625;-165.1232147216797;43.4166259765625;-6.5948286056518555;-2.740163803100586;-6.971915245056152
1445513776353;17.6728515625;-165.12257385253906;43.41718673706055;-6.5948286056518555;-2.741360902786255;-7.000645637512207
1445513776385;17.668548583984375;-165.12612915039062;43.41515350341797;-6.592434406280518;-2.740163803100586;-6.98628044128418
1445513776422;17.665771484375;-165.1265106201172;43.41456604003906;-6.648698329925537;-2.734178304672241;-7.004237174987793
1445513776453;17.687255859375;-165.12713623046875;43.42672348022461;-6.5912370681762695;-2.715024709701538;-6.964732646942139
1445513776485;17.71484375;-165.13063049316406;43.44245910644531;-6.602011203765869;-2.721010208129883;-7.005434036254883
1445513776521;17.734710693359375;-165.1390838623047;43.45266342163086;-6.610390663146973;-2.7461493015289307;-6.977900981903076
1445513776551;17.7518310546875;-165.1375274658203;43.461639404296875;-6.603208065032959;-2.7473464012145996;-7.005434036254883
1445513776586;17.767669677734375;-165.14532470703125;43.471336364746094;-6.627150535583496;-2.7473464012145996;-6.9922661781311035
1445513776618;17.7701416015625;-165.15049743652344;43.470298767089844;-6.621164798736572;-2.7293899059295654;-6.989871978759766
1445513776650;17.773681640625;-165.1532745361328;43.47093963623047;-6.624756336212158;-2.7246015071868896;-6.989871978759766
1445513776683;17.76800537109375;-165.1586456298828;43.465599060058594;-6.646304130554199;-2.7293899059295654;-6.9922661781311035
1445513776716;17.77056884765625;-165.15914916992188;43.4659423828125;-6.621164798736572;-2.7090392112731934;-6.983886241912842
1445513776749;17.773895263671875;-165.1627960205078;43.4661865234375;-6.611588001251221;-2.698265314102173;-6.975506782531738
1445513776782;17.789337158203125;-165.16587829589844;43.473140716552734;-6.6391215324401855;-2.721010208129883;-6.961141586303711
1445513776814;17.793060302734375;-165.16525268554688;43.47472381591797;-6.613982200622559;-2.7317841053009033;-6.995857238769531
1445513776848;17.79718017578125;-165.16134643554688;43.476104736328125;-6.625953197479248;-2.7461493015289307;-6.981492042541504
1445513776882;17.79254150390625;-165.15834045410156;43.47270202636719;-6.619967937469482;-2.7485435009002686;-6.983886241912842
1445513776915;17.79205322265625;-165.15809631347656;43.472171783447266;-6.596025466918945;-2.7269957065582275;-6.968324184417725
1445513776947;17.78375244140625;-165.16436767578125;43.469600677490234;-6.624756336212158;-2.7114334106445312;-6.944382190704346
1445513776980;17.776763916015625;-165.1680908203125;43.46878433227539;-6.62236213684082;-2.721010208129883;-6.998251438140869
1445513777013;17.76898193359375;-165.17593383789062;43.470314025878906;-6.613982200622559;-2.7222073078155518;-6.958747386932373
1445513777046;17.7713623046875;-165.17556762695312;43.47303009033203;-6.6163763999938965;-2.7234044075012207;-6.957550048828125
1445513777080;17.76702880859375;-165.17257690429688;43.472251892089844;-6.605602264404297;-2.736572504043579;-6.9731125831604
1445513777113;17.764312744140625;-165.1653289794922;43.47113037109375;-6.609193801879883;-2.719813108444214;-6.98628044128418
1445513777145;17.764373779296875;-165.1653594970703;43.471622467041016;-6.599617004394531;-2.740163803100586;-6.9491705894470215
1445513777178;17.74468994140625;-165.16810607910156;43.46038055419922;-6.600813865661621;-2.7473464012145996;-7.000645637512207
1445513777211;17.744293212890625;-165.16290283203125;43.45903015136719;-6.605602264404297;-2.7329812049865723;-6.993463039398193
1445513777244;17.74163818359375;-165.1630401611328;43.45864486694336;-6.6163763999938965;-2.715024709701538;-6.994660377502441
1445513777276;17.72308349609375;-165.16424560546875;43.453086853027344;-6.627150535583496;-2.7509377002716064;-6.975506782531738
1445513777313;17.73565673828125;-165.1600799560547;43.462459564208984;-6.59004020690918;-2.719813108444214;-6.977900981903076
1445513777343;17.742034912109375;-165.158203125;43.472198486328125;-6.585251808166504;-2.7281928062438965;-6.957550048828125
1445513777376;17.735595703125;-165.1582489013672;43.46968460083008;-6.604405403137207;-2.7281928062438965;-6.982689380645752
1445513777413;17.743133544921875;-165.15541076660156;43.47341537475586;-6.585251808166504;-2.736572504043579;-7.000645637512207
1445513777442;17.757049560546875;-165.15380859375;43.47703170776367;-6.631938934326172;-2.738966703414917;-6.944382190704346
1445513777475;17.76318359375;-165.15237426757812;43.478851318359375;-6.642712593078613;-2.719813108444214;-6.9922661781311035
1445513777508;17.760528564453125;-165.14962768554688;43.472564697265625;-6.613982200622559;-2.7114334106445312;-6.979097843170166
1445513777541;17.759033203125;-165.15185546875;43.467620849609375;-6.6355299949646;-2.7054479122161865;-6.92881965637207
1445513777574;17.756988525390625;-165.16091918945312;43.458290100097656;-6.636727333068848;-2.6898856163024902;-6.957550048828125
1445513777607;17.76068115234375;-165.16407775878906;43.45338821411133;-6.605602264404297;-2.7006595134735107;-6.943184852600098
1445513777641;17.764251708984375;-165.16429138183594;43.452239990234375;-6.619967937469482;-2.7317841053009033;-6.975506782531738
1445513777673;17.764129638671875;-165.15492248535156;43.44685745239258;-6.625953197479248;-2.741360902786255;-6.968324184417725
1445513777706;17.766693115234375;-165.1517791748047;43.445640563964844;-6.604405403137207;-2.7509377002716064;-6.9695210456848145
1445513777739;17.767730712890625;-165.14710998535156;43.44109344482422;-6.62236213684082;-2.740163803100586;-6.98628044128418
1445513777772;17.76861572265625;-165.1459503173828;43.43901824951172;-6.600813865661621;-2.7461493015289307;-6.9491705894470215
1445513777807;17.7669677734375;-165.14361572265625;43.43125915527344;-6.605602264404297;-2.7090392112731934;-7.000645637512207
1445513777838;17.7625732421875;-165.14479064941406;43.42512512207031;-6.606799602508545;-2.7246015071868896;-7.01860237121582
1445513777871;17.76708984375;-165.14727783203125;43.42601013183594;-6.610390663146973;-2.7006595134735107;-6.944382190704346
1445513777904;17.771514892578125;-165.14837646484375;43.42668151855469;-6.618770599365234;-2.7329812049865723;-6.9910688400268555
1445513777937;17.7755126953125;-165.1514434814453;43.42855453491211;-6.63433313369751;-2.7102363109588623;-6.987477779388428
1445513777972;17.774200439453125;-165.15231323242188;43.426300048828125;-6.613982200622559;-2.7293899059295654;-6.998251438140869
1445513778007;17.77197265625;-165.1512908935547;43.42549133300781;-6.631938934326172;-2.736572504043579;-6.989871978759766
1445513778035;17.769561767578125;-165.1513214111328;43.42686080932617;-6.602011203765869;-2.7114334106445312;-6.995857238769531
1445513778070;17.747802734375;-165.1529541015625;43.420631408691406;-6.603208065032959;-2.7317841053009033;-6.952761650085449
1445513778102;17.742431640625;-165.15017700195312;43.41859436035156;-6.602011203765869;-2.7449522018432617;-6.988674640655518
1445513778135;17.7467041015625;-165.15200805664062;43.42217254638672;-6.604405403137207;-2.7090392112731934;-6.94079065322876
1445513778167;17.746826171875;-165.154296875;43.42262268066406;-6.653486728668213;-2.7234044075012207;-7.010222434997559
1445513778201;17.75604248046875;-165.15573120117188;43.4281005859375;-6.618770599365234;-2.715024709701538;-6.915651798248291
1445513778234;17.774261474609375;-165.15457153320312;43.43934631347656;-6.57806921005249;-2.715024709701538;-6.987477779388428
1445513778267;17.762542724609375;-165.1554718017578;43.43352508544922;-6.611588001251221;-2.718616008758545;-6.958747386932373
1445513778305;17.75506591796875;-165.15577697753906;43.43009567260742;-6.611588001251221;-2.7449522018432617;-7.004237174987793
1445513778333;17.759368896484375;-165.15615844726562;43.43265151977539;-6.604405403137207;-2.740163803100586;-6.98508358001709
1445513778368;17.772735595703125;-165.15548706054688;43.44015121459961;-6.628347396850586;-2.7329812049865723;-6.982689380645752
1445513778400;17.76611328125;-165.1558837890625;43.43646240234375;-6.6127848625183105;-2.718616008758545;-7.011419773101807
1445513778436;17.747589111328125;-165.16043090820312;43.427555084228516;-6.603208065032959;-2.697068214416504;-6.993463039398193
1445513778466;17.736083984375;-165.16685485839844;43.426761627197266;-6.641515731811523;-2.7030537128448486;-6.959944248199463
1445513778498;17.7274169921875;-165.16868591308594;43.42561721801758;-6.62355899810791;-2.7126305103302;-6.953958988189697
1445513778547;17.70184326171875;-165.17333984375;43.41933059692383;-6.607996463775635;-2.713827610015869;-6.981492042541504
1445513778564;17.696014404296875;-165.17205810546875;43.41987991333008;-6.619967937469482;-2.716221809387207;-6.982689380645752
1445513778596;17.677703857421875;-165.1683807373047;43.417240142822266;-6.597222805023193;-2.7269957065582275;-7.01979923248291
1445513778630;17.661895751953125;-165.16578674316406;43.41189956665039;-6.593631267547607;-2.7257986068725586;-6.980295181274414
1445513778664;17.646453857421875;-165.1594696044922;43.41072463989258;-6.602011203765869;-2.7473464012145996;-7.015010833740234
1445513778696;17.626678466796875;-165.15464782714844;43.40714645385742;-6.598419666290283;-2.716221809387207;-7.024587631225586
1445513778729;17.601104736328125;-165.1549835205078;43.39752960205078;-6.628347396850586;-2.7126305103302;-6.9910688400268555
1445513778762;17.593475341796875;-165.15634155273438;43.39635467529297;-6.629544734954834;-2.7234044075012207;-6.961141586303711
1445513778795;17.58038330078125;-165.15762329101562;43.399662017822266;-6.63433313369751;-2.713827610015869;-6.981492042541504
1445513778828;17.57672119140625;-165.15576171875;43.400630950927734;-6.62236213684082;-2.7246015071868896;-6.950367450714111
1445513778861;17.55828857421875;-165.15213012695312;43.3959846496582;-6.613982200622559;-2.7269957065582275;-7.024587631225586
1445513778895;17.54888916015625;-165.15176391601562;43.39415740966797;-6.613982200622559;-2.719813108444214;-7.004237174987793
1445513778927;17.53515625;-165.14552307128906;43.39179229736328;-6.598419666290283;-2.75812029838562;-6.988674640655518
1445513778960;17.531036376953125;-165.14285278320312;43.39229965209961;-6.625953197479248;-2.737769603729248;-6.989871978759766
1445513778994;17.5257568359375;-165.14205932617188;43.395179748535156;-6.596025466918945;-2.7102363109588623;-6.988674640655518
1445513779027;17.51312255859375;-165.13653564453125;43.392818450927734;-6.599617004394531;-2.7473464012145996;-6.9731125831604
1445513779059;17.521026611328125;-165.13699340820312;43.39841842651367;-6.599617004394531;-2.716221809387207;-6.98628044128418
1445513779092;17.522918701171875;-165.1411590576172;43.40023422241211;-6.658275127410889;-2.716221809387207;-6.9910688400268555
1445513779125;17.5252685546875;-165.14132690429688;43.400917053222656;-6.628347396850586;-2.7102363109588623;-6.9731125831604
1445513779158;17.54937744140625;-165.13882446289062;43.41162872314453;-6.57926607131958;-2.7030537128448486;-6.976703643798828
1445513779191;17.5643310546875;-165.13656616210938;43.41257095336914;-6.596025466918945;-2.7281928062438965;-6.989871978759766
1445513779224;17.56610107421875;-165.13714599609375;43.41033172607422;-6.581660270690918;-2.7437551021575928;-6.953958988189697
1445513779257;17.593170166015625;-165.13143920898438;43.418758392333984;-6.609193801879883;-2.7281928062438965;-7.003039836883545
1445513779290;17.607421875;-165.134033203125;43.424713134765625;-6.618770599365234;-2.717418909072876;-6.968324184417725
1445513779323;17.605804443359375;-165.1329803466797;43.42319869995117;-6.621164798736572;-2.7305870056152344;-6.9922661781311035
1445513779357;17.604644775390625;-165.13253784179688;43.4220085144043;-6.62355899810791;-2.7234044075012207;-6.995857238769531
1445513779390;17.58642578125;-165.13555908203125;43.411956787109375;-6.606799602508545;-2.740163803100586;-7.005434036254883
1445513779423;17.581634521484375;-165.14102172851562;43.40998840332031;-6.5948286056518555;-2.6898856163024902;-6.989871978759766
1445513779456;17.5738525390625;-165.14321899414062;43.40434646606445;-6.600813865661621;-2.7078421115875244;-6.976703643798828
1445513779488;17.57855224609375;-165.1425018310547;43.40494918823242;-6.618770599365234;-2.741360902786255;-7.000645637512207
1445513779521;17.597076416015625;-165.13955688476562;43.40961837768555;-6.610390663146973;-2.73537540435791;-6.975506782531738
1445513779557;17.600341796875;-165.134033203125;43.405426025390625;-6.598419666290283;-2.7437551021575928;-6.98508358001709
1445513779589;17.6065673828125;-165.1328582763672;43.40531539916992;-6.604405403137207;-2.742558002471924;-6.9922661781311035
1445513779620;17.616302490234375;-165.1311798095703;43.403446197509766;-6.597222805023193;-2.7461493015289307;-7.011419773101807
1445513779653;17.61895751953125;-165.1302947998047;43.40228271484375;-6.600813865661621;-2.7509377002716064;-6.9695210456848145
1445513779685;17.622955322265625;-165.13616943359375;43.399566650390625;-6.605602264404297;-2.719813108444214;-6.989871978759766
1445513779719;17.6175537109375;-165.14492797851562;43.393898010253906;-6.597222805023193;-2.7222073078155518;-6.98628044128418
1445513779752;17.613525390625;-165.1463165283203;43.3902473449707;-6.613982200622559;-2.7234044075012207;-6.997054576873779
1445513779784;17.60992431640625;-165.1502227783203;43.38460922241211;-6.5912370681762695;-2.7030537128448486;-6.988674640655518
1445513779818;17.607208251953125;-165.151611328125;43.38303756713867;-6.5948286056518555;-2.7461493015289307;-6.987477779388428
1445513779850;17.60699462890625;-165.1564178466797;43.384117126464844;-6.609193801879883;-2.73537540435791;-7.004237174987793
1445513779884;17.6129150390625;-165.1566162109375;43.387245178222656;-6.613982200622559;-2.721010208129883;-6.993463039398193
1445513779916;17.609344482421875;-165.16036987304688;43.387203216552734;-6.575675010681152;-2.7090392112731934;-6.989871978759766
1445513779950;17.5950927734375;-165.16574096679688;43.384403228759766;-6.600813865661621;-2.7437551021575928;-7.048529624938965
1445513779984;17.601837158203125;-165.16676330566406;43.39276123046875;-6.592434406280518;-2.721010208129883;-6.962338447570801
1445513780016;17.609771728515625;-165.16973876953125;43.399017333984375;-6.607996463775635;-2.73537540435791;-6.999448776245117
1445513780052;17.6090087890625;-165.1730499267578;43.40654754638672;-6.624756336212158;-2.737769603729248;-7.040150165557861
1445513780083;17.63604736328125;-165.1758270263672;43.431121826171875;-6.59004020690918;-2.713827610015869;-6.964732646942139
1445513780115;17.638885498046875;-165.17822265625;43.43699645996094;-6.609193801879883;-2.7269957065582275;-7.006631374359131
1445513780152;17.60552978515625;-165.18116760253906;43.42598342895508;-6.624756336212158;-2.7269957065582275;-6.965929985046387
1445513780181;17.5994873046875;-165.1817626953125;43.42483901977539;-6.624756336212158;-2.7246015071868896;-7.000645637512207
1445513780214;17.595794677734375;-165.18824768066406;43.425559997558594;-6.5948286056518555;-2.734178304672241;-6.958747386932373
1445513780247;17.59735107421875;-165.19264221191406;43.42722702026367;-6.599617004394531;-2.7329812049865723;-7.01979923248291
1445513780281;17.5975341796875;-165.1956329345703;43.42686080932617;-6.6163763999938965;-2.7281928062438965;-7.010222434997559
1445513780313;17.594970703125;-165.20672607421875;43.42015075683594;-6.628347396850586;-2.7066450119018555;-6.968324184417725
1445513780346;17.595062255859375;-165.2107391357422;43.42015075683594;-6.625953197479248;-2.699462413787842;-6.9731125831604
1445513780379;17.59527587890625;-165.21539306640625;43.421478271484375;-6.597222805023193;-2.7006595134735107;-7.009025573730469
1445513780413;17.588409423828125;-165.21852111816406;43.418827056884766;-6.6163763999938965;-2.7066450119018555;-7.023390769958496
1445513780445;17.579498291015625;-165.22007751464844;43.414794921875;-6.606799602508545;-2.7114334106445312;-6.993463039398193
1445513780478;17.57366943359375;-165.2165069580078;43.41151809692383;-6.610390663146973;-2.740163803100586;-7.023390769958496
1445513780511;17.575958251953125;-165.21435546875;43.4107666015625;-6.610390663146973;-2.717418909072876;-7.006631374359131
1445513780544;17.58270263671875;-165.2112274169922;43.40777587890625;-6.581660270690918;-2.741360902786255;-6.976703643798828
1445513780576;17.587127685546875;-165.20806884765625;43.40608215332031;-6.607996463775635;-2.7281928062438965;-7.01860237121582
1445513780611;17.599151611328125;-165.20724487304688;43.40452575683594;-6.618770599365234;-2.721010208129883;-6.981492042541504
1445513780642;17.606903076171875;-165.21075439453125;43.40311813354492;-6.645106792449951;-2.697068214416504;-6.950367450714111
1445513780676;17.624542236328125;-165.21517944335938;43.40386962890625;-6.657077789306641;-2.715024709701538;-6.9922661781311035
1445513780709;17.644195556640625;-165.21714782714844;43.405235290527344;-6.62355899810791;-2.719813108444214;-6.993463039398193
1445513780742;17.645263671875;-165.2180938720703;43.39448547363281;-6.613982200622559;-2.7317841053009033;-6.995857238769531
1445513780776;17.632415771484375;-165.21617126464844;43.379798889160156;-6.575675010681152;-2.716221809387207;-6.989871978759766
1445513780808;17.62701416015625;-165.21408081054688;43.37337875366211;-6.574477672576904;-2.719813108444214;-6.975506782531738
1445513780842;17.611724853515625;-165.21104431152344;43.361167907714844;-6.585251808166504;-2.7533318996429443;-7.023390769958496
1445513780874;17.596435546875;-165.2118682861328;43.35430908203125;-6.607996463775635;-2.7234044075012207;-7.01979923248291
1445513780907;17.581207275390625;-165.21038818359375;43.34796905517578;-6.605602264404297;-2.737769603729248;-7.015010833740234
1445513780939;17.570709228515625;-165.2088623046875;43.34469223022461;-6.59004020690918;-2.75812029838562;-6.98508358001709
1445513780973;17.562744140625;-165.20704650878906;43.3478889465332;-6.598419666290283;-2.721010208129883;-7.046135425567627
1445513781006;17.535552978515625;-165.20758056640625;43.34148025512695;-6.658275127410889;-2.7509377002716064;-7.046135425567627
1445513781039;17.53033447265625;-165.2058868408203;43.34254837036133;-6.619967937469482;-2.7305870056152344;-6.997054576873779
1445513781072;17.516937255859375;-165.2000732421875;43.3459358215332;-6.531382083892822;-2.6898856163024902;-7.03057336807251
1445513781105;17.497894287109375;-165.20265197753906;43.33879089355469;-6.552929878234863;-2.677914619445801;-6.988674640655518
1445513781138;17.515289306640625;-165.19862365722656;43.35734176635742;-6.625953197479248;-2.73537540435791;-6.995857238769531
1445513781171;17.5230712890625;-165.19337463378906;43.37343215942383;-6.610390663146973;-2.7257986068725586;-6.9707183837890625
1445513781205;17.520050048828125;-165.1893310546875;43.377708435058594;-6.605602264404297;-2.740163803100586;-6.9707183837890625
1445513781239;17.5087890625;-165.1812744140625;43.382911682128906;-6.5912370681762695;-2.7509377002716064;-6.989871978759766
1445513781270;17.475067138671875;-165.18226623535156;43.37520980834961;-6.615179061889648;-2.716221809387207;-6.995857238769531
1445513781304;17.456939697265625;-165.18515014648438;43.37041473388672;-6.621164798736572;-2.7246015071868896;-7.023390769958496
1445513781336;17.43988037109375;-165.18438720703125;43.368080139160156;-6.604405403137207;-2.7042508125305176;-6.963535785675049
1445513781369;17.4420166015625;-165.1854248046875;43.37068557739258;-6.593631267547607;-2.699462413787842;-7.03057336807251
1445513781401;17.44940185546875;-165.18751525878906;43.37565994262695;-6.557718276977539;-2.7126305103302;-7.005434036254883
1445513781436;17.464324951171875;-165.18467712402344;43.38157653808594;-6.564900875091553;-2.740163803100586;-6.993463039398193
1445513781467;17.508453369140625;-165.1754608154297;43.39748764038086;-6.611588001251221;-2.716221809387207;-6.98628044128418
1445513781501;17.578369140625;-165.1711883544922;43.42792510986328;-6.670246124267578;-2.718616008758545;-6.943184852600098
1445513781533;17.60369873046875;-165.16668701171875;43.436981201171875;-6.636727333068848;-2.7329812049865723;-6.9491705894470215
1445513781567;17.6341552734375;-165.15281677246094;43.438716888427734;-6.62236213684082;-2.7234044075012207;-6.951564788818359
1445513781600;17.63800048828125;-165.13201904296875;43.422691345214844;-6.6163763999938965;-2.7700912952423096;-6.998251438140869
1445513781632;17.65350341796875;-165.12356567382812;43.420753479003906;-6.605602264404297;-2.7700912952423096;-6.957550048828125
1445513781666;17.689849853515625;-165.1168670654297;43.41984939575195;-6.57926607131958;-2.761711597442627;-7.0353617668151855
1445513781699;17.7093505859375;-165.12255859375;43.40867614746094;-6.582857608795166;-2.7473464012145996;-6.98508358001709
1445513781731;17.731689453125;-165.12881469726562;43.40840530395508;-6.592434406280518;-2.7473464012145996;-7.016208171844482
1445513781764;17.786285400390625;-165.13995361328125;43.414825439453125;-6.633135795593262;-2.7257986068725586;-6.956353187561035
1445513781798;17.8173828125;-165.14901733398438;43.42135238647461;-6.647500991821289;-2.7042508125305176;-6.982689380645752
1445513781832;17.87445068359375;-165.1703338623047;43.42793655395508;-6.646304130554199;-2.716221809387207;-6.9910688400268555
1445513781872;17.928802490234375;-165.2098388671875;43.42504119873047;-6.607996463775635;-2.717418909072876;-7.024587631225586
1445513781896;17.93206787109375;-165.21559143066406;43.416927337646484;-6.582857608795166;-2.7234044075012207;-6.995857238769531
1445513781929;17.93341064453125;-165.2210693359375;43.39823913574219;-6.576871871948242;-2.692279815673828;-6.975506782531738
1445513781966;17.92205810546875;-165.23593139648438;43.376766204833984;-6.651092529296875;-2.671929121017456;-6.998251438140869
1445513781996;17.914764404296875;-165.2404022216797;43.366233825683594;-6.648698329925537;-2.695871114730835;-7.025784969329834
1445513782029;17.93756103515625;-165.23692321777344;43.367557525634766;-6.599617004394531;-2.6850972175598145;-6.994660377502441
1445513782061;17.93798828125;-165.23175048828125;43.36359786987305;-6.592434406280518;-2.7102363109588623;-7.0126166343688965
1445513782095;17.9283447265625;-165.22535705566406;43.35226058959961;-6.5912370681762695;-2.7700912952423096;-7.024587631225586
1445513782128;17.917266845703125;-165.2142791748047;43.341548919677734;-6.580463409423828;-2.7485435009002686;-6.999448776245117
1445513782161;17.90972900390625;-165.21163940429688;43.33576965332031;-6.581660270690918;-2.7676970958709717;-6.951564788818359
1445513782194;17.877899169921875;-165.21029663085938;43.31890106201172;-6.607996463775635;-2.736572504043579;-6.995857238769531
1445513782227;17.85614013671875;-165.20838928222656;43.307918548583984;-6.5948286056518555;-2.73537540435791;-7.007828235626221
1445513782260;17.832366943359375;-165.20623779296875;43.292755126953125;-6.621164798736572;-2.692279815673828;-6.980295181274414
1445513782293;17.822113037109375;-165.20660400390625;43.28668975830078;-6.641515731811523;-2.699462413787842;-6.962338447570801
1445513782325;17.80975341796875;-165.20033264160156;43.27827453613281;-6.613982200622559;-2.698265314102173;-6.989871978759766
1445513782360;17.77685546875;-165.1964111328125;43.259056091308594;-6.602011203765869;-2.721010208129883;-7.024587631225586
1445513782392;17.76312255859375;-165.1962890625;43.252403259277344;-6.603208065032959;-2.7042508125305176;-7.004237174987793
1445513782424;17.73028564453125;-165.19102478027344;43.236297607421875;-6.605602264404297;-2.7461493015289307;-7.022193431854248
1445513782458;17.70233154296875;-165.1737823486328;43.22344207763672;-6.574477672576904;-2.7545289993286133;-7.003039836883545
1445513782491;17.681060791015625;-165.16708374023438;43.21479415893555;-6.567295074462891;-2.75812029838562;-6.983886241912842
1445513782524;17.65899658203125;-165.1591796875;43.20579147338867;-6.566098213195801;-2.719813108444214;-6.9922661781311035
1445513782558;17.589752197265625;-165.152587890625;43.17879867553711;-6.593631267547607;-2.716221809387207;-7.01979923248291
1445513782590;17.555389404296875;-165.14822387695312;43.16822814941406;-6.606799602508545;-2.7473464012145996;-6.982689380645752
1445513782623;17.526153564453125;-165.14971923828125;43.15934753417969;-6.588842868804932;-2.7317841053009033;-6.9910688400268555
1445513782656;17.517425537109375;-165.14739990234375;43.1562614440918;-6.575675010681152;-2.741360902786255;-7.001842975616455
1445513782688;17.502593994140625;-165.1548614501953;43.15190124511719;-6.575675010681152;-2.718616008758545;-6.982689380645752
1445513782722;17.4886474609375;-165.1621551513672;43.147010803222656;-6.580463409423828;-2.7234044075012207;-7.0341644287109375
1445513782755;17.480743408203125;-165.16542053222656;43.14960861206055;-6.586448669433594;-2.7449522018432617;-7.000645637512207
1445513782787;17.481903076171875;-165.1663360595703;43.154266357421875;-6.584054470062256;-2.73537540435791;-6.979097843170166
1445513782823;17.46661376953125;-165.17340087890625;43.154457092285156;-6.610390663146973;-2.7281928062438965;-7.025784969329834
1445513782854;17.4486083984375;-165.17689514160156;43.15082550048828;-6.609193801879883;-2.737769603729248;-6.988674640655518
1445513782887;17.422393798828125;-165.182373046875;43.152503967285156;-6.57806921005249;-2.7257986068725586;-6.967126846313477
1445513782920;17.378662109375;-165.19129943847656;43.145660400390625;-6.618770599365234;-2.736572504043579;-7.011419773101807
1445513782954;17.362945556640625;-165.19265747070312;43.14501953125;-6.593631267547607;-2.7042508125305176;-6.983886241912842
1445513782986;17.32574462890625;-165.1978302001953;43.146820068359375;-6.550535678863525;-2.7114334106445312;-7.026981830596924
1445513783019;17.3065185546875;-165.20034790039062;43.142982482910156;-6.556521415710449;-2.7006595134735107;-7.020996570587158
1445513783052;17.28253173828125;-165.20372009277344;43.142967224121094;-6.574477672576904;-2.716221809387207;-7.017405033111572
1445513783085;17.293212890625;-165.2076416015625;43.160072326660156;-6.5912370681762695;-2.7473464012145996;-7.011419773101807
1445513783118;17.301971435546875;-165.20773315429688;43.17054748535156;-6.585251808166504;-2.7521347999572754;-7.003039836883545
1445513783151;17.31878662109375;-165.20423889160156;43.18986511230469;-6.609193801879883;-2.7509377002716064;-6.976703643798828
1445513783184;17.32354736328125;-165.2051239013672;43.19687271118164;-6.621164798736572;-2.715024709701538;-6.963535785675049
1445513783217;17.314178466796875;-165.21400451660156;43.20109558105469;-6.6163763999938965;-2.699462413787842;-6.968324184417725
1445513783250;17.28076171875;-165.23007202148438;43.19226837158203;-6.585251808166504;-2.6815059185028076;-7.009025573730469
1445513783283;17.262176513671875;-165.24020385742188;43.18694305419922;-6.587646007537842;-2.6815059185028076;-7.0126166343688965
1445513783316;17.238922119140625;-165.2514190673828;43.1812858581543;-6.576871871948242;-2.699462413787842;-7.003039836883545
1445513783349;17.22027587890625;-165.25563049316406;43.17982482910156;-6.587646007537842;-2.7257986068725586;-7.026981830596924
1445513783382;17.216796875;-165.25396728515625;43.18250274658203;-6.581660270690918;-2.7557260990142822;-6.989871978759766
1445513783414;17.19921875;-165.25088500976562;43.181217193603516;-6.563704013824463;-2.73537540435791;-7.009025573730469
1445513783448;17.1953125;-165.25;43.18486404418945;-6.603208065032959;-2.7269957065582275;-7.011419773101807
1445513783481;17.19683837890625;-165.25172424316406;43.18832015991211;-6.628347396850586;-2.7222073078155518;-7.017405033111572
1445513783514;17.194427490234375;-165.2578887939453;43.19192886352539;-6.599617004394531;-2.6862943172454834;-6.999448776245117
1445513783546;17.18792724609375;-165.26039123535156;43.190574645996094;-6.607996463775635;-2.6850972175598145;-6.994660377502441
1445513783582;17.185821533203125;-165.27023315429688;43.19579315185547;-6.611588001251221;-2.7066450119018555;-6.993463039398193
1445513783613;17.180877685546875;-165.2714080810547;43.195560455322266;-6.611588001251221;-2.699462413787842;-7.003039836883545
1445513783646;17.1702880859375;-165.2743682861328;43.196529388427734;-6.5948286056518555;-2.7293899059295654;-6.9910688400268555
1445513783679;17.144195556640625;-165.26705932617188;43.1983757019043;-6.5948286056518555;-2.716221809387207;-6.980295181274414
1445513783712;17.131683349609375;-165.26605224609375;43.19639587402344;-6.5732808113098145;-2.7257986068725586;-7.001842975616455
1445513783744;17.101715087890625;-165.25967407226562;43.18934631347656;-6.602011203765869;-2.75812029838562;-7.049726963043213
1445513783778;17.0941162109375;-165.25927734375;43.18989181518555;-6.563704013824463;-2.715024709701538;-6.983886241912842
1445513783811;17.066650390625;-165.26719665527344;43.18441390991211;-6.6127848625183105;-2.7090392112731934;-7.01860237121582
1445513783844;17.05511474609375;-165.2671356201172;43.18638229370117;-6.629544734954834;-2.7102363109588623;-6.995857238769531
1445513783877;17.06671142578125;-165.26824951171875;43.19685745239258;-6.567295074462891;-2.674323320388794;-6.993463039398193
1445513783910;17.058746337890625;-165.27239990234375;43.200408935546875;-6.584054470062256;-2.694674015045166;-6.993463039398193
1445513783943;17.0439453125;-165.27435302734375;43.19793701171875;-6.603208065032959;-2.717418909072876;-6.968324184417725
1445513783976;17.029083251953125;-165.27105712890625;43.19983673095703;-6.566098213195801;-2.7114334106445312;-7.010222434997559
1445513784009;17.008941650390625;-165.2717742919922;43.20191192626953;-6.610390663146973;-2.7461493015289307;-7.016208171844482
1445513784042;16.999755859375;-165.2719268798828;43.20357894897461;-6.621164798736572;-2.7305870056152344;-7.010222434997559
1445513784075;16.97760009765625;-165.26747131347656;43.20270538330078;-6.598419666290283;-2.7234044075012207;-6.989871978759766
1445513784108;16.972137451171875;-165.263916015625;43.20326614379883;-6.610390663146973;-2.716221809387207;-6.946776390075684
1445513784141;16.959808349609375;-165.26463317871094;43.20051956176758;-6.617573261260986;-2.7066450119018555;-7.004237174987793
1445513784173;16.946075439453125;-165.26470947265625;43.194400787353516;-6.59004020690918;-2.7006595134735107;-6.993463039398193
1445513784207;16.930328369140625;-165.26473999023438;43.18610763549805;-6.580463409423828;-2.7042508125305176;-7.024587631225586
1445513784240;16.927886962890625;-165.26019287109375;43.18455123901367;-6.575675010681152;-2.713827610015869;-7.01860237121582
1445513784272;16.924896240234375;-165.25979614257812;43.181697845458984;-6.587646007537842;-2.7102363109588623;-7.044938564300537
1445513784306;16.93450927734375;-165.25567626953125;43.18035888671875;-6.586448669433594;-2.716221809387207;-7.015010833740234
1445513784339;16.96221923828125;-165.2515869140625;43.186790466308594;-6.609193801879883;-2.73537540435791;-7.010222434997559
1445513784373;16.976593017578125;-165.25135803222656;43.19021987915039;-6.609193801879883;-2.7018566131591797;-6.98628044128418
1445513784405;17.009307861328125;-165.24574279785156;43.199127197265625;-6.584054470062256;-2.715024709701538;-6.968324184417725
1445513784437;17.02545166015625;-165.2434539794922;43.202938079833984;-6.604405403137207;-2.7222073078155518;-6.977900981903076
1445513784471;17.04083251953125;-165.241943359375;43.206298828125;-6.627150535583496;-2.7246015071868896;-6.979097843170166
1445513784507;17.06005859375;-165.24270629882812;43.19961929321289;-6.581660270690918;-2.7030537128448486;-7.016208171844482
1445513784536;17.06005859375;-165.24270629882812;43.19961929321289;-6.581660270690918;-2.7030537128448486;-7.016208171844482
1445513784570;17.07421875;-165.24107360839844;43.1906852722168;-6.580463409423828;-2.695871114730835;-7.0341644287109375
1445513784603;17.11431884765625;-165.2281036376953;43.1893196105957;-6.584054470062256;-2.718616008758545;-7.054515361785889
1445513784635;17.125;-165.22206115722656;43.187923431396484;-6.613982200622559;-2.740163803100586;-7.016208171844482
1445513784669;17.144927978515625;-165.2128143310547;43.18747329711914;-6.581660270690918;-2.7317841053009033;-7.003039836883545
1445513784704;17.160491943359375;-165.2107696533203;43.18857955932617;-6.574477672576904;-2.7222073078155518;-7.032967567443848
1445513784736;17.185791015625;-165.2006378173828;43.1857795715332;-6.593631267547607;-2.7305870056152344;-6.982689380645752
1445513784767;17.2049560546875;-165.20127868652344;43.188446044921875;-6.581660270690918;-2.699462413787842;-6.9731125831604
1445513784801;17.22589111328125;-165.2023468017578;43.179290771484375;-6.6163763999938965;-2.7281928062438965;-7.009025573730469
1445513784835;17.260284423828125;-165.2007293701172;43.1893196105957;-6.552929878234863;-2.673126220703125;-6.981492042541504
1445513784867;17.272796630859375;-165.20062255859375;43.190738677978516;-6.567295074462891;-2.6791117191314697;-7.025784969329834
1445513784900;17.29705810546875;-165.1984100341797;43.192543029785156;-6.576871871948242;-2.719813108444214;-7.020996570587158
1445513784933;17.3250732421875;-165.1954345703125;43.196983337402344;-6.596025466918945;-2.740163803100586;-7.006631374359131
1445513784966;17.33270263671875;-165.19708251953125;43.19621658325195;-6.581660270690918;-2.7329812049865723;-7.0341644287109375
1445513784999;17.355316162109375;-165.19680786132812;43.19911193847656;-6.605602264404297;-2.737769603729248;-6.997054576873779
1445513785033;17.370574951171875;-165.19430541992188;43.20277404785156;-6.598419666290283;-2.7281928062438965;-6.980295181274414
1445513785066;17.375152587890625;-165.1927032470703;43.198551177978516;-6.566098213195801;-2.742558002471924;-7.016208171844482
1445513785098;17.359100341796875;-165.20065307617188;43.189388275146484;-6.602011203765869;-2.7030537128448486;-7.011419773101807
1445513785131;17.351287841796875;-165.2025604248047;43.1855354309082;-6.592434406280518;-2.7018566131591797;-7.03057336807251
1445513785166;17.335662841796875;-165.20867919921875;43.17874526977539;-6.568492412567139;-2.694674015045166;-7.024587631225586
1445513785196;17.331878662109375;-165.20672607421875;43.177337646484375;-6.604405403137207;-2.7090392112731934;-7.011419773101807
1445513785230;17.324737548828125;-165.2025604248047;43.17522048950195;-6.54574728012085;-2.740163803100586;-7.004237174987793
1445513785263;17.326446533203125;-165.19546508789062;43.17687225341797;-6.580463409423828;-2.7293899059295654;-7.023390769958496
1445513785296;17.32672119140625;-165.1940460205078;43.17942810058594;-6.5948286056518555;-2.7533318996429443;-6.998251438140869
1445513785329;17.312591552734375;-165.18988037109375;43.179195404052734;-6.586448669433594;-2.7246015071868896;-6.994660377502441
1445513785361;17.301513671875;-165.19081115722656;43.1776237487793;-6.581660270690918;-2.7293899059295654;-6.987477779388428
1445513785395;17.289306640625;-165.19273376464844;43.180328369140625;-6.5912370681762695;-2.716221809387207;-7.0138139724731445
1445513785428;17.274444580078125;-165.19764709472656;43.18031692504883;-6.602011203765869;-2.7222073078155518;-7.010222434997559
1445513785461;17.263427734375;-165.20123291015625;43.18062973022461;-6.596025466918945;-2.7257986068725586;-7.005434036254883
1445513785495;17.2349853515625;-165.20880126953125;43.17858123779297;-6.580463409423828;-2.713827610015869;-7.0317702293396
1445513785527;17.21954345703125;-165.20957946777344;43.183021545410156;-6.557718276977539;-2.73537540435791;-7.015010833740234
1445513785560;17.2093505859375;-165.2102508544922;43.18647766113281;-6.5481414794921875;-2.7234044075012207;-7.041347026824951
1445513785593;17.176422119140625;-165.21348571777344;43.185054779052734;-6.588842868804932;-2.719813108444214;-7.003039836883545
1445513785626;17.167572021484375;-165.21783447265625;43.18828201293945;-6.576871871948242;-2.7114334106445312;-6.989871978759766
1445513785659;17.148773193359375;-165.22686767578125;43.19362258911133;-6.570886611938477;-2.717418909072876;-7.025784969329834
1445513785692;17.11651611328125;-165.22592163085938;43.19882583618164;-6.5696892738342285;-2.7293899059295654;-7.011419773101807
1445513785725;17.110565185546875;-165.2290802001953;43.203224182128906;-6.570886611938477;-2.7449522018432617;-7.026981830596924
1445513785757;17.080535888671875;-165.24102783203125;43.20195388793945;-6.602011203765869;-2.7305870056152344;-7.025784969329834
1445513785791;17.074493408203125;-165.24649047851562;43.205875396728516;-6.605602264404297;-2.7222073078155518;-7.0138139724731445
1445513785824;17.04986572265625;-165.27413940429688;43.20743179321289;-6.576871871948242;-2.653972625732422;-7.048529624938965
1445513785857;17.02410888671875;-165.28656005859375;43.2002067565918;-6.576871871948242;-2.6659436225891113;-7.024587631225586
1445513785890;16.993377685546875;-165.28965759277344;43.19587707519531;-6.531382083892822;-2.7257986068725586;-7.048529624938965
1445513785923;17.00299072265625;-165.27980041503906;43.2119140625;-6.561309814453125;-2.7952303886413574;-6.993463039398193
1445513785956;17.02203369140625;-165.2734375;43.22673416137695;-6.596025466918945;-2.80361008644104;-7.016208171844482
1445513785989;17.055694580078125;-165.27171325683594;43.25215530395508;-6.597222805023193;-2.756923198699951;-6.9910688400268555
1445513786022;17.061981201171875;-165.2740936279297;43.25870132446289;-6.6127848625183105;-2.741360902786255;-6.982689380645752
1445513786055;17.067138671875;-165.2802734375;43.26731872558594;-6.6379241943359375;-2.698265314102173;-6.998251438140869
1445513786088;17.0797119140625;-165.29275512695312;43.28015899658203;-6.602011203765869;-2.649184226989746;-6.994660377502441
1445513786121;17.079315185546875;-165.3002471923828;43.28273010253906;-6.585251808166504;-2.6671407222747803;-7.005434036254883
1445513786154;17.078460693359375;-165.30763244628906;43.284873962402344;-6.592434406280518;-2.7006595134735107;-6.9922661781311035
1445513786186;17.07025146484375;-165.30856323242188;43.28445053100586;-6.598419666290283;-2.7102363109588623;-7.047332763671875
1445513786220;17.070953369140625;-165.30819702148438;43.286705017089844;-6.604405403137207;-2.7269957065582275;-7.01860237121582
1445513786253;17.04498291015625;-165.30455017089844;43.27580261230469;-6.556521415710449;-2.7281928062438965;-7.046135425567627
1445513786286;17.033966064453125;-165.29888916015625;43.269996643066406;-6.54574728012085;-2.736572504043579;-7.01979923248291
1445513786319;17.023681640625;-165.2982635498047;43.265254974365234;-6.558915615081787;-2.699462413787842;-6.982689380645752
1445513786352;17.01666259765625;-165.29928588867188;43.26326370239258;-6.587646007537842;-2.698265314102173;-7.029376029968262
1445513786385;17.020263671875;-165.300537109375;43.2658576965332;-6.5948286056518555;-2.697068214416504;-6.988674640655518
1445513786418;17.03533935546875;-165.2996368408203;43.274654388427734;-6.59004020690918;-2.721010208129883;-6.993463039398193
1445513786451;17.049957275390625;-165.2966766357422;43.282920837402344;-6.57926607131958;-2.7305870056152344;-7.020996570587158
1445513786484;17.055450439453125;-165.29544067382812;43.28596496582031;-6.582857608795166;-2.718616008758545;-6.995857238769531
1445513786517;17.0625;-165.28880310058594;43.28942108154297;-6.600813865661621;-2.7317841053009033;-6.988674640655518
1445513786550;17.065399169921875;-165.28770446777344;43.2902946472168;-6.611588001251221;-2.7018566131591797;-6.997054576873779
1445513786582;17.072235107421875;-165.2841796875;43.29137420654297;-6.585251808166504;-2.7018566131591797;-7.01979923248291
1445513786617;17.075897216796875;-165.28622436523438;43.292152404785156;-6.59004020690918;-2.6850972175598145;-7.024587631225586
1445513786648;17.0738525390625;-165.2873077392578;43.28466796875;-6.57806921005249;-2.715024709701538;-7.0126166343688965
1445513786682;17.07440185546875;-165.27809143066406;43.27979278564453;-6.586448669433594;-2.713827610015869;-7.015010833740234
1445513786715;17.0777587890625;-165.27748107910156;43.27983093261719;-6.560112476348877;-2.7257986068725586;-7.036558628082275
1445513786748;17.070098876953125;-165.27383422851562;43.27229309082031;-6.621164798736572;-2.7509377002716064;-7.036558628082275
1445513786781;17.092681884765625;-165.26556396484375;43.281307220458984;-6.575675010681152;-2.698265314102173;-6.956353187561035
1445513786816;17.108856201171875;-165.2625274658203;43.2870979309082;-6.563704013824463;-2.7090392112731934;-6.988674640655518
1445513786849;17.105682373046875;-165.2664031982422;43.28285217285156;-6.598419666290283;-2.7054479122161865;-6.998251438140869
1445513786880;17.111572265625;-165.26486206054688;43.2845458984375;-6.5732808113098145;-2.715024709701538;-6.993463039398193
1445513786913;17.136383056640625;-165.26109313964844;43.29238510131836;-6.588842868804932;-2.742558002471924;-7.03057336807251
1445513786946;17.147705078125;-165.25796508789062;43.296714782714844;-6.615179061889648;-2.7449522018432617;-6.995857238769531
1445513786979;17.1654052734375;-165.2519989013672;43.3004035949707;-6.568492412567139;-2.741360902786255;-7.009025573730469
1445513787012;17.1702880859375;-165.25169372558594;43.29619598388672;-6.6127848625183105;-2.7090392112731934;-7.006631374359131
1445513787044;17.173553466796875;-165.25328063964844;43.294559478759766;-6.621164798736572;-2.694674015045166;-6.993463039398193
1445513787078;17.170562744140625;-165.2598114013672;43.28623962402344;-6.597222805023193;-2.6815059185028076;-6.989871978759766
1445513787110;17.170623779296875;-165.25987243652344;43.28286361694336;-6.597222805023193;-2.675520420074463;-6.994660377502441
1445513787144;17.176544189453125;-165.256103515625;43.277549743652344;-6.57806921005249;-2.7222073078155518;-7.028179168701172
1445513787177;17.1822509765625;-165.25404357910156;43.274600982666016;-6.572083473205566;-2.717418909072876;-7.007828235626221
1445513787210;17.2003173828125;-165.24668884277344;43.27109146118164;-6.593631267547607;-2.7497406005859375;-7.015010833740234
1445513787242;17.21337890625;-165.2427215576172;43.271484375;-6.570886611938477;-2.7497406005859375;-6.998251438140869
1445513787276;17.246368408203125;-165.23358154296875;43.27016067504883;-6.592434406280518;-2.7317841053009033;-7.006631374359131
1445513787309;17.254852294921875;-165.23374938964844;43.263099670410156;-6.5732808113098145;-2.7042508125305176;-7.010222434997559
1445513787342;17.264739990234375;-165.23345947265625;43.26368713378906;-6.5948286056518555;-2.715024709701538;-6.979097843170166
1445513787375;17.27191162109375;-165.23910522460938;43.26032638549805;-6.592434406280518;-2.699462413787842;-7.009025573730469
1445513787408;17.27191162109375;-165.239501953125;43.25692367553711;-6.605602264404297;-2.721010208129883;-6.999448776245117
1445513787441;17.289276123046875;-165.240234375;43.26070785522461;-6.600813865661621;-2.7329812049865723;-6.999448776245117
1445513787473;17.292388916015625;-165.2353515625;43.25682830810547;-6.607996463775635;-2.734178304672241;-7.01979923248291
1445513787507;17.28875732421875;-165.23150634765625;43.25130844116211;-6.585251808166504;-2.721010208129883;-7.032967567443848
1445513787541;17.2891845703125;-165.22471618652344;43.244014739990234;-6.576871871948242;-2.734178304672241;-7.006631374359131
1445513787573;17.289031982421875;-165.22378540039062;43.23674774169922;-6.576871871948242;-2.7078421115875244;-7.01860237121582
1445513787606;17.285369873046875;-165.22425842285156;43.232948303222656;-6.607996463775635;-2.7102363109588623;-6.987477779388428
1445513787638;17.299560546875;-165.22280883789062;43.23980712890625;-6.582857608795166;-2.7090392112731934;-7.001842975616455
1445513787672;17.299591064453125;-165.22885131835938;43.239986419677734;-6.606799602508545;-2.677914619445801;-6.982689380645752
1445513787705;17.28521728515625;-165.23707580566406;43.23197937011719;-6.630741596221924;-2.7234044075012207;-7.050923824310303
1445513787738;17.306182861328125;-165.23483276367188;43.243316650390625;-6.606799602508545;-2.692279815673828;-6.993463039398193
1445513787771;17.3114013671875;-165.23304748535156;43.245845794677734;-6.560112476348877;-2.699462413787842;-6.995857238769531
1445513787804;17.285888671875;-165.2264862060547;43.23054504394531;-6.570886611938477;-2.7234044075012207;-7.0138139724731445
1445513787836;17.270782470703125;-165.22389221191406;43.22174835205078;-6.567295074462891;-2.764105796813965;-7.023390769958496
1445513787870;17.25823974609375;-165.21873474121094;43.2137565612793;-6.596025466918945;-2.756923198699951;-7.0138139724731445
1445513787903;17.258026123046875;-165.2125244140625;43.21177673339844;-6.57926607131958;-2.7293899059295654;-6.975506782531738
1445513787936;17.258819580078125;-165.21095275878906;43.21109390258789;-6.582857608795166;-2.741360902786255;-7.026981830596924
1445513787969;17.254608154296875;-165.2108917236328;43.208045959472656;-6.59004020690918;-2.7054479122161865;-6.994660377502441
1445513788001;17.23858642578125;-165.21298217773438;43.20307540893555;-6.6127848625183105;-2.692279815673828;-7.020996570587158
1445513788035;17.23516845703125;-165.2145233154297;43.20371627807617;-6.597222805023193;-2.691082715988159;-7.004237174987793
1445513788068;17.222076416015625;-165.21754455566406;43.204097747802734;-6.592434406280518;-2.698265314102173;-6.983886241912842
1445513788101;17.225982666015625;-165.21327209472656;43.20822525024414;-6.610390663146973;-2.7449522018432617;-7.023390769958496
1445513788134;17.2198486328125;-165.20999145507812;43.208961486816406;-6.592434406280518;-2.7509377002716064;-6.981492042541504
1445513788167;17.21466064453125;-165.2073974609375;43.207923889160156;-6.582857608795166;-2.7317841053009033;-6.998251438140869
1445513788200;17.198577880859375;-165.1991424560547;43.201942443847656;-6.582857608795166;-2.738966703414917;-7.0138139724731445
1445513788233;17.1947021484375;-165.1854705810547;43.201324462890625;-6.561309814453125;-2.736572504043579;-7.007828235626221
1445513788265;17.191802978515625;-165.18304443359375;43.20046615600586;-6.580463409423828;-2.7257986068725586;-6.993463039398193
1445513788299;17.202911376953125;-165.17823791503906;43.20507049560547;-6.604405403137207;-2.736572504043579;-7.023390769958496
1445513788332;17.212860107421875;-165.17837524414062;43.20710372924805;-6.5912370681762695;-2.7305870056152344;-7.029376029968262
1445513788365;17.209228515625;-165.1789093017578;43.20311737060547;-6.592434406280518;-2.7102363109588623;-6.9910688400268555
1445513788398;17.2159423828125;-165.1751708984375;43.204288482666016;-6.603208065032959;-2.7114334106445312;-7.020996570587158
1445513788431;17.209564208984375;-165.17437744140625;43.19995880126953;-6.596025466918945;-2.7234044075012207;-7.016208171844482
1445513788465;17.182861328125;-165.16551208496094;43.187652587890625;-6.585251808166504;-2.740163803100586;-7.001842975616455
1445513788497;17.1759033203125;-165.1574249267578;43.188880920410156;-6.561309814453125;-2.740163803100586;-7.03057336807251
1445513788530;17.16162109375;-165.1550750732422;43.1837043762207;-6.556521415710449;-2.7533318996429443;-7.007828235626221
1445513788563;17.136566162109375;-165.1540985107422;43.175209045410156;-6.560112476348877;-2.7485435009002686;-7.005434036254883
1445513788596;17.1328125;-165.1572723388672;43.17599868774414;-6.62355899810791;-2.7509377002716064;-7.048529624938965
1445513788629;17.140411376953125;-165.1687774658203;43.18359375;-6.603208065032959;-2.7281928062438965;-7.0317702293396
1445513788662;17.154296875;-165.16793823242188;43.191368103027344;-6.587646007537842;-2.7329812049865723;-7.0126166343688965
1445513788695;17.17242431640625;-165.1772918701172;43.20246124267578;-6.566098213195801;-2.716221809387207;-6.994660377502441
1445513788727;17.17852783203125;-165.18716430664062;43.20728302001953;-6.580463409423828;-2.7234044075012207;-7.025784969329834
1445513788762;17.181182861328125;-165.1895294189453;43.20945358276367;-6.582857608795166;-2.7497406005859375;-6.9910688400268555
1445513788794;17.1800537109375;-165.19239807128906;43.21116256713867;-6.561309814453125;-2.756923198699951;-7.015010833740234
1445513788827;17.18511962890625;-165.19041442871094;43.21803283691406;-6.574477672576904;-2.741360902786255;-7.0138139724731445
1445513788859;17.186370849609375;-165.19158935546875;43.221256256103516;-6.568492412567139;-2.734178304672241;-7.03057336807251
1445513788893;17.175628662109375;-165.19522094726562;43.22244644165039;-6.586448669433594;-2.719813108444214;-7.006631374359131
1445513788926;17.168792724609375;-165.20022583007812;43.22473907470703;-6.593631267547607;-2.719813108444214;-6.995857238769531
1445513788959;17.164794921875;-165.2050018310547;43.235191345214844;-6.596025466918945;-2.719813108444214;-6.976703643798828
1445513788991;17.154815673828125;-165.21119689941406;43.241050720214844;-6.592434406280518;-2.713827610015869;-7.024587631225586
1445513789026;17.147125244140625;-165.2133026123047;43.242103576660156;-6.566098213195801;-2.717418909072876;-7.025784969329834
1445513789058;17.130279541015625;-165.20973205566406;43.24182891845703;-6.576871871948242;-2.7222073078155518;-7.024587631225586
1445513789091;17.122039794921875;-165.210693359375;43.241363525390625;-6.562506675720215;-2.7461493015289307;-7.024587631225586
1445513789124;17.114990234375;-165.20989990234375;43.238128662109375;-6.5696892738342285;-2.7293899059295654;-7.005434036254883
1445513789156;17.115875244140625;-165.2152862548828;43.23939895629883;-6.563704013824463;-2.715024709701538;-6.999448776245117
1445513789190;17.121307373046875;-165.21881103515625;43.24270248413086;-6.5732808113098145;-2.7114334106445312;-7.005434036254883
1445513789223;17.1383056640625;-165.2268524169922;43.24753952026367;-6.574477672576904;-2.718616008758545;-7.005434036254883
1445513789255;17.153839111328125;-165.22886657714844;43.254398345947266;-6.610390663146973;-2.7042508125305176;-7.005434036254883
1445513789289;17.18902587890625;-165.22706604003906;43.27203369140625;-6.563704013824463;-2.7281928062438965;-7.028179168701172
1445513789321;17.19964599609375;-165.2254180908203;43.278385162353516;-6.574477672576904;-2.7545289993286133;-7.0353617668151855
1445513789355;17.215667724609375;-165.223876953125;43.28556823730469;-6.604405403137207;-2.75812029838562;-6.999448776245117
1445513789388;17.222625732421875;-165.23117065429688;43.284996032714844;-6.618770599365234;-2.718616008758545;-7.0138139724731445
1445513789421;17.2091064453125;-165.23301696777344;43.274627685546875;-6.570886611938477;-2.718616008758545;-7.017405033111572
1445513789453;17.20196533203125;-165.24623107910156;43.26572036743164;-6.584054470062256;-2.671929121017456;-7.040150165557861
1445513789486;17.2030029296875;-165.2537841796875;43.26210021972656;-6.67982292175293;-2.7916390895843506;-7.009025573730469
1445513789521;17.186920166015625;-165.25836181640625;43.25318145751953;-6.6379241943359375;-2.7257986068725586;-7.054515361785889
1445513789553;17.131988525390625;-165.26580810546875;43.22072219848633;-6.562506675720215;-2.6850972175598145;-7.011419773101807
1445513789585;17.1221923828125;-165.2728271484375;43.21439743041992;-6.540958881378174;-2.695871114730835;-7.005434036254883
1445513789619;17.116455078125;-165.2790985107422;43.20418167114258;-6.5948286056518555;-2.742558002471924;-6.998251438140869
1445513789652;17.163848876953125;-165.26087951660156;43.219383239746094;-6.621164798736572;-2.764105796813965;-7.0126166343688965
1445513789684;17.19659423828125;-165.2538299560547;43.23160934448242;-6.658275127410889;-2.782062292098999;-7.01979923248291
1445513789718;17.193328857421875;-165.26071166992188;43.21957778930664;-6.528987884521484;-2.669534921646118;-6.965929985046387
1445513789752;17.1341552734375;-165.29014587402344;43.1794548034668;-6.567295074462891;-2.6623523235321045;-7.0593037605285645
1445513789784;17.127410888671875;-165.2936248779297;43.172203063964844;-6.605602264404297;-2.691082715988159;-7.043741226196289
1445513789817;17.17431640625;-165.27601623535156;43.18959045410156;-6.593631267547607;-2.736572504043579;-7.041347026824951
1445513789850;17.23626708984375;-165.2594757080078;43.19089126586914;-6.476315498352051;-2.6563668251037598;-7.015010833740234
1445513789882;17.252899169921875;-165.25938415527344;43.171382904052734;-6.525396823883057;-2.673126220703125;-7.079654216766357
1445513789916;17.314361572265625;-165.24330139160156;43.145633697509766;-6.560112476348877;-2.7246015071868896;-7.020996570587158
1445513789948;17.322967529296875;-165.23899841308594;43.14356994628906;-6.575675010681152;-2.6791117191314697;-7.020996570587158
1445513789982;17.344512939453125;-165.2361602783203;43.13716506958008;-6.557718276977539;-2.713827610015869;-6.9922661781311035
1445513790015;17.34564208984375;-165.23495483398438;43.13182067871094;-6.5696892738342285;-2.715024709701538;-7.054515361785889
1445513790049;17.325347900390625;-165.21560668945312;43.10536193847656;-6.539762020111084;-2.761711597442627;-7.06409215927124
1445513790083;17.3140869140625;-165.21380615234375;43.08689498901367;-6.460753440856934;-2.6372132301330566;-7.0341644287109375
1445513790114;17.32281494140625;-165.2170867919922;43.08705520629883;-6.5050458908081055;-2.6408045291900635;-7.024587631225586
1445513790146;17.37249755859375;-165.21473693847656;43.10592269897461;-6.54574728012085;-2.7437551021575928;-7.024587631225586
1445513790183;17.47149658203125;-165.19639587402344;43.15283203125;-6.604405403137207;-2.8227639198303223;-7.0317702293396
1445513790213;17.535552978515625;-165.18235778808594;43.18593215942383;-6.627150535583496;-2.8598740100860596;-7.006631374359131
1445513790245;17.636016845703125;-165.15667724609375;43.2386589050293;-6.615179061889648;-2.8155810832977295;-6.983886241912842
1445513790279;17.648406982421875;-165.15545654296875;43.24532699584961;-6.558915615081787;-2.7736825942993164;-7.010222434997559
1445513790312;17.591583251953125;-165.1708984375;43.21467208862305;-6.593631267547607;-2.7222073078155518;-7.079654216766357
1445513790345;17.5643310546875;-165.18063354492188;43.20207595825195;-6.567295074462891;-2.717418909072876;-7.041347026824951
1445513790377;17.5841064453125;-165.18829345703125;43.21751403808594;-6.470330238342285;-2.6180596351623535;-7.0593037605285645
1445513790411;17.5811767578125;-165.2074432373047;43.22259521484375;-6.585251808166504;-2.631227731704712;-7.004237174987793
1445513790444;17.585418701171875;-165.21676635742188;43.23114776611328;-6.581660270690918;-2.655169725418091;-7.029376029968262
1445513790477;17.64752197265625;-165.2525634765625;43.2831916809082;-6.673837184906006;-2.650381326675415;-7.009025573730469
1445513790509;17.686859130859375;-165.25755310058594;43.310115814208984;-6.673837184906006;-2.692279815673828;-6.980295181274414
1445513790543;17.725494384765625;-165.24949645996094;43.34012985229492;-6.621164798736572;-2.7533318996429443;-7.037755966186523
1445513790576;17.73052978515625;-165.23880004882812;43.34770965576172;-6.575675010681152;-2.73537540435791;-6.9910688400268555
1445513790609;17.69879150390625;-165.22927856445312;43.34492492675781;-6.598419666290283;-2.7269957065582275;-7.050923824310303
1445513790642;17.62408447265625;-165.22862243652344;43.32474899291992;-6.524199485778809;-2.716221809387207;-7.006631374359131
1445513790675;17.58465576171875;-165.2277374267578;43.31294631958008;-6.540958881378174;-2.721010208129883;-7.020996570587158
1445513790707;17.523101806640625;-165.2330780029297;43.29853439331055;-6.576871871948242;-2.713827610015869;-6.998251438140869
1445513790741;17.50506591796875;-165.2418670654297;43.29819107055664;-6.597222805023193;-2.6815059185028076;-7.007828235626221
1445513790774;17.4873046875;-165.2505340576172;43.30320358276367;-6.57806921005249;-2.7042508125305176;-7.017405033111572
1445513790807;17.496795654296875;-165.2497100830078;43.31892776489258;-6.610390663146973;-2.7269957065582275;-6.983886241912842
