sep=;
timestamp;gyro-alpha;gyro-beta;gyro-gamma;accel-x;accel-y;accel-z
1445424226964;25.417572021484375;-113.30668640136719;-1.1188534498214722;0.7325439453125;-14.102935791015625;-4.3208160400390625
1445424226991;25.577423095703125;-111.01205444335938;-1.0150738954544067;2.0074005126953125;-11.474761962890625;-3.477447509765625
1445424227024;26.220977783203125;-110.81031036376953;-0.6935364007949829;2.9096221923828125;-5.1985015869140625;2.720367431640625
1445424227057;28.3978271484375;-110.48159790039062;0.08867894113063812;2.2623748779296875;-8.022811889648438;2.3477020263671875
1445424227090;28.947998046875;-107.00558471679688;0.26716041564941406;-2.601715087890625;-11.082489013671875;1.8573760986328125
1445424227123;29.924530029296875;-105.3709945678711;0.9986566305160522;-1.6014404296875;-10.180282592773438;1.7200775146484375
1445424227156;32.126922607421875;-102.14295959472656;2.127525806427002;0.8502197265625;-9.493820190429688;-0.2020263671875
1445424227189;33.872833251953125;-99.1578369140625;2.472766637802124;0.301055908203125;-10.337188720703125;0.30792236328125
1445424227223;35.42816162109375;-97.91755676269531;2.8798418045043945;0.242218017578125;-10.297958374023438;0.621734619140625
1445424227256;38.120452880859375;-96.17220306396484;3.637917995452881;-0.601165771484375;-9.493820190429688;0.7786407470703125
1445424227288;38.917083740234375;-95.56124877929688;3.8638665676116943;-0.85614013671875;-9.572265625;0.7786407470703125
1445424227324;40.1573486328125;-94.08866119384766;4.2022528648376465;-0.542327880859375;-9.533035278320312;0.5236663818359375
1445424227353;41.58026123046875;-92.29559326171875;4.319924831390381;-0.208892822265625;-9.552658081054688;0.30792236328125
1445424227388;42.47357177734375;-91.33734893798828;4.227545261383057;-0.0716094970703125;-9.631103515625;0.2294769287109375
1445424227420;44.1466064453125;-89.41690063476562;3.772198438644409;0.04608154296875;-9.846847534179688;0.0921783447265625
1445424227453;46.514801025390625;-87.61783599853516;3.1442761421203613;0.28143310546875;-10.19989013671875;-0.3197021484375
1445424227487;47.920196533203125;-86.78583526611328;2.8127870559692383;0.0853118896484375;-10.121444702148438;-0.3197021484375
1445424227519;50.7890625;-85.31138610839844;2.2355434894561768;-1.15032958984375;-9.768402099609375;0.07257080078125
1445424227553;52.14215087890625;-84.66307067871094;2.0559422969818115;-2.7586212158203125;-10.08221435546875;1.0336151123046875
1445424227585;53.82659912109375;-83.55494689941406;2.091615676879883;-2.7978515625;-10.160659790039062;1.072845458984375
1445424227617;55.670654296875;-83.00386810302734;1.9276944398880005;-0.777679443359375;-12.53387451171875;-0.6727447509765625
1445424227656;56.83441162109375;-82.96591186523438;1.8448761701583862;-0.718841552734375;-12.612335205078125;-0.7119598388671875
1445424227684;59.91156005859375;-83.20734405517578;1.982195258140564;-0.0519866943359375;-13.455703735351562;-0.88848876953125
1445424227720;62.520263671875;-85.24581146240234;3.2747013568878174;0.2029876708984375;-11.867019653320312;-0.6138916015625
1445424227754;63.7218017578125;-87.31289672851562;3.7492728233337402;4.7336578369140625;-10.8863525390625;-0.1039581298828125
1445424227783;67.07327270507812;-93.78217315673828;3.175947904586792;7.1853179931640625;-12.808456420898438;0.8374786376953125
1445424227817;70.15411376953125;-100.91967010498047;2.8555469512939453;3.262664794921875;-14.652114868164062;1.8966064453125
1445424227856;71.10614013671875;-103.59237670898438;3.38246750831604;2.5173492431640625;-14.554046630859375;0.4648284912109375
1445424227882;70.46633911132812;-108.76525115966797;4.018418312072754;0.536407470703125;-10.219512939453125;-0.6727447509765625
1445424227915;70.49871826171875;-113.2764892578125;4.192481517791748;0.654083251953125;-6.7087249755859375;-1.712249755859375
1445424227948;70.63070678710938;-115.01171112060547;4.09399938583374;0.2618255615234375;-6.4537506103515625;-1.692626953125
1445424227981;70.53585815429688;-117.83731842041016;3.282360553741455;0.6344757080078125;-5.041595458984375;-1.1630706787109375
1445424228014;70.51052856445312;-118.89656829833984;2.5414655208587646;1.24249267578125;-4.649322509765625;-1.9868316650390625
1445424228047;72.146728515625;-119.3331298828125;1.4123512506484985;1.0071258544921875;-5.551544189453125;-2.8105926513671875
1445424228081;75.00418090820312;-117.31431579589844;0.8812282085418701;-0.85614013671875;-7.669769287109375;-4.2031402587890625
1445424228113;76.4150390625;-116.06317901611328;0.8154274821281433;-1.3856964111328125;-8.101272583007812;-4.791534423828125
1445424228146;79.84524536132812;-113.55716705322266;1.4417951107025146;-1.6798858642578125;-8.003204345703125;-6.223297119140625
1445424228179;82.12832641601562;-110.86601257324219;2.5899384021759033;-2.5624847412109375;-11.27862548828125;-8.263092041015625
1445424228213;82.54449462890625;-109.79383087158203;3.369551658630371;-1.5426025390625;-13.357635498046875;-7.7727508544921875
1445424228246;83.8936767578125;-109.6365966796875;4.776972770690918;1.8308868408203125;-9.278060913085938;-8.733810424804688
1445424228278;84.18600463867188;-111.05663299560547;4.4558491706848145;5.027862548828125;-7.1598358154296875;-4.3208160400390625
1445424228311;84.4078369140625;-111.19442749023438;4.024407863616943;5.7339324951171875;-10.278350830078125;-2.5556182861328125
1445424228344;86.2425537109375;-107.36448669433594;3.210641384124756;4.145263671875;-18.672836303710938;-2.575225830078125
1445424228377;87.873779296875;-105.23804473876953;3.550842523574829;2.2623748779296875;-6.7675628662109375;2.2888641357421875
1445424228410;90.59933471679688;-104.4634017944336;5.304756164550781;2.125091552734375;-3.099884033203125;4.662078857421875
1445424228443;93.9312744140625;-102.16181182861328;5.989042282104492;0.4971771240234375;-11.51397705078125;0.19024658203125
1445424228477;95.36334228515625;-100.55281829833984;6.178956508636475;-1.5818328857421875;-12.553482055664062;1.1120758056640625
1445424228509;101.095703125;-97.62865447998047;8.376140594482422;0.28143310546875;-9.297683715820312;0.955169677734375
1445424228542;105.55027770996094;-95.1267318725586;8.966473579406738;-0.640380859375;-7.68939208984375;0.9159393310546875
1445424228576;107.78778076171875;-94.1275634765625;8.907153129577637;-1.111114501953125;-10.160659790039062;1.1709136962890625
1445424228611;113.46774291992188;-91.91492462158203;8.844000816345215;-1.0522613525390625;-10.101821899414062;0.7394256591796875
1445424228641;118.54470825195312;-89.6703872680664;8.77611255645752;-1.8956451416015625;-9.827239990234375;0.3471527099609375
1445424228673;120.90023803710938;-88.58308410644531;8.597506523132324;-1.7191162109375;-9.886077880859375;-0.0843353271484375
1445424228710;125.07757568359375;-86.51616668701172;7.979114055633545;-1.8367919921875;-9.572265625;-0.123565673828125
1445424228740;128.2252655029297;-84.63333892822266;6.815600872039795;-1.6798858642578125;-9.709564208984375;-0.6138916015625
1445424228773;129.65257263183594;-83.76801300048828;6.139044284820557;-1.8367919921875;-9.474197387695312;-0.5550537109375
1445424228806;132.42039489746094;-82.1574478149414;4.85634183883667;-1.974090576171875;-10.101821899414062;-0.0451202392578125
1445424228840;133.6519012451172;-81.53007507324219;4.3238749504089355;-2.0133209228515625;-10.14105224609375;0.2294769287109375
1445424228873;136.0989990234375;-80.72651672363281;3.127927541732788;-1.7779541015625;-10.7686767578125;-0.005889892578125
1445424228907;138.9981689453125;-80.595458984375;1.9288135766983032;-1.9544830322265625;-11.945480346679688;-1.18267822265625
1445424228939;140.45716857910156;-80.71500396728516;1.644284725189209;-1.405303955078125;-11.925857543945312;-1.084625244140625
1445424228972;143.14993286132812;-81.54915618896484;1.5062404870986938;-0.85614013671875;-12.02392578125;-0.82965087890625
1445424229004;145.3482208251953;-84.16312408447266;1.6427165269851685;2.929229736328125;-10.7686767578125;-0.82965087890625
1445424229037;146.4105682373047;-86.17494201660156;1.5253887176513672;4.4786834716796875;-11.023651123046875;-0.4766082763671875
1445424229069;149.5369873046875;-91.67898559570312;1.1959385871887207;4.498291015625;-13.769515991210938;0.621734619140625
1445424229103;152.49420166015625;-97.44622802734375;2.202765464782715;1.9093475341796875;-14.534439086914062;-1.5945587158203125
1445424229136;152.16094970703125;-99.54863739013672;3.1140825748443604;1.41900634765625;-13.2791748046875;-1.1630706787109375
1445424229169;150.07704162597656;-104.3651351928711;4.10889196395874;1.5170745849609375;-9.00347900390625;-1.2219085693359375
1445424229203;149.82763671875;-106.83650970458984;4.121545791625977;1.6543731689453125;-7.9835968017578125;-1.2807464599609375
1445424229235;150.1536407470703;-111.18622589111328;3.606229782104492;1.3405609130859375;-7.5913238525390625;-1.712249755859375
1445424229268;150.3483428955078;-114.9269790649414;2.733553171157837;1.3405609130859375;-6.1987762451171875;-1.143463134765625
1445424229301;150.2025146484375;-116.38482666015625;1.9764723777770996;1.791656494140625;-4.845458984375;-0.9865570068359375
1445424229334;151.18429565429688;-118.07582092285156;0.4694603681564331;1.18365478515625;-5.41424560546875;-2.5556182861328125
1445424229366;153.5746612548828;-117.28255462646484;-0.4702160060405731;-0.7580718994140625;-6.5714263916015625;-4.026611328125
1445424229401;154.71929931640625;-116.42488098144531;-0.7027739882469177;-0.85614013671875;-6.414520263671875;-4.5757904052734375
1445424229432;157.08590698242188;-114.15019226074219;-0.6240696907043457;-0.6992340087890625;-6.72833251953125;-5.7133636474609375
1445424229466;157.98971557617188;-112.68327331542969;-0.4930671751499176;-1.856414794921875;-9.96453857421875;-6.8901519775390625
1445424229500;158.8373565673828;-109.58772277832031;0.4676409661769867;-1.1895599365234375;-12.455429077148438;-6.8313140869140625
1445424229532;158.92529296875;-108.05692291259766;1.5586851835250854;1.3209381103515625;-12.53387451171875;-8.537673950195312
1445424229565;158.2455291748047;-108.6283187866211;1.4589427709579468;3.1645965576171875;-6.179168701171875;-5.536834716796875
1445424229598;156.70440673828125;-110.51284790039062;0.2129145860671997;4.1648712158203125;-6.8852386474609375;-3.1244049072265625
1445424229631;157.21116638183594;-109.04634094238281;-0.7079424262046814;4.4002227783203125;-11.690505981445312;-2.9478759765625
1445424229664;158.42457580566406;-107.07360076904297;-0.743467390537262;3.69415283203125;-18.927810668945312;-5.4583892822265625
1445424229697;161.52182006835938;-103.04425811767578;-0.10178352147340775;2.0858612060546875;-11.612045288085938;-1.5357208251953125
1445424229730;166.54141235351562;-101.997314453125;1.8243776559829712;2.0858612060546875;-3.0606536865234375;5.7015838623046875
1445424229763;169.3130340576172;-99.94965362548828;2.0854341983795166;0.34027099609375;-12.435806274414062;0.562896728515625
1445424229796;173.625;-95.8010025024414;1.9096306562423706;-2.34674072265625;-14.12255859375;1.0532379150390625
1445424229828;180.23046875;-92.34011840820312;3.3089511394500732;0.1245269775390625;-9.238845825195312;1.1709136962890625
1445424229862;182.518310546875;-90.47933197021484;3.298116683959961;0.536407470703125;-8.160110473632812;0.3471527099609375
1445424229895;186.8629150390625;-87.84970092773438;2.9054741859436035;-1.228790283203125;-11.121719360351562;0.4059906005859375
1445424229928;189.663330078125;-86.85546112060547;2.952197313308716;-0.6207733154296875;-9.807632446289062;0.386383056640625
1445424229961;194.89654541015625;-85.14257049560547;2.8501572608947754;-0.8757476806640625;-9.45458984375;0.7394256591796875
1445424229994;199.069580078125;-83.83496856689453;2.563288450241089;-0.8757476806640625;-9.68994140625;0.4059906005859375
1445424230032;201.0106201171875;-83.21341705322266;2.372319459915161;-0.8169097900390625;-9.297683715820312;0.1510162353515625
1445424230060;204.1256103515625;-81.83965301513672;1.4998440742492676;-2.2682952880859375;-9.493820190429688;-0.182403564453125
1445424230093;206.08154296875;-80.40615844726562;0.10249899327754974;-1.6602783203125;-9.317291259765625;-0.574676513671875
1445424230126;206.62811279296875;-79.63551330566406;-0.6895771622657776;-1.6014404296875;-9.513427734375;-0.3197021484375
1445424230159;207.6712646484375;-77.90711975097656;-2.4029700756073;-0.405029296875;-10.19989013671875;-0.064727783203125
1445424230192;209.1949462890625;-76.51071166992188;-4.460359573364258;0.0656890869140625;-10.670608520507812;0.0921783447265625
1445424230225;210.21990966796875;-76.20791625976562;-5.366745471954346;0.5756378173828125;-10.788284301757812;0.24908447265625
1445424230258;212.450439453125;-75.99464416503906;-6.634099006652832;0.7521514892578125;-11.51397705078125;0.19024658203125
1445424230291;214.858154296875;-75.89913940429688;-7.427099227905273;-1.228790283203125;-13.632217407226562;-0.1431732177734375
1445424230324;216.10415649414062;-75.89277648925781;-7.588708400726318;-1.5426025390625;-13.298797607421875;-0.574676513671875
1445424230357;218.26895141601562;-76.80436706542969;-7.13371467590332;-2.91552734375;-12.02392578125;-0.0451202392578125
1445424230390;219.172607421875;-78.16451263427734;-6.401257514953613;-0.0716094970703125;-10.239120483398438;-0.7904205322265625
1445424230423;219.53509521484375;-82.50144958496094;-5.0658416748046875;1.556304931640625;-10.749069213867188;-0.810028076171875
1445424230458;220.51046752929688;-89.34722137451172;-3.5858333110809326;1.105194091796875;-15.6131591796875;0.30792236328125
1445424230488;219.75418090820312;-92.55111694335938;-2.1863327026367188;0.0068511962890625;-15.220901489257812;1.26898193359375
1445424230523;215.2994384765625;-98.1020736694336;0.9139811992645264;-0.1304473876953125;-13.514541625976562;1.3670501708984375
1445424230555;209.34439086914062;-104.12686157226562;2.2092344760894775;-0.1892852783203125;-10.278350830078125;-0.6727447509765625
1445424230590;206.18017578125;-107.25145721435547;2.27990984916687;0.5756378173828125;-8.179718017578125;-1.084625244140625
1445424230624;200.875244140625;-113.42842102050781;2.2509853839874268;1.18365478515625;-7.3951873779296875;-0.6727447509765625
1445424230654;198.47271728515625;-115.99357604980469;1.8480079174041748;1.5955352783203125;-5.9830322265625;-0.4766082763671875
1445424230687;194.8988037109375;-119.95349884033203;0.31048399209976196;1.18365478515625;-5.7084503173828125;-1.00616455078125
1445424230720;193.27801513671875;-122.23262023925781;-0.7858420610427856;0.8306121826171875;-5.9045867919921875;-2.3594818115234375
1445424230754;192.77685546875;-122.82020568847656;-1.481977105140686;0.7913818359375;-5.41424560546875;-2.1829681396484375
1445424230786;191.7099609375;-123.12609100341797;-3.3213119506835938;0.359893798828125;-5.0023651123046875;-2.32025146484375
1445424230818;191.5540771484375;-121.47138977050781;-3.8080129623413086;0.4971771240234375;-4.610107421875;-3.3597564697265625
1445424230853;191.79998779296875;-119.88054656982422;-3.525327682495117;1.0855865478515625;-5.6888275146484375;-5.2034149169921875
1445424230885;192.41058349609375;-115.33094024658203;-2.4887828826904297;-0.1304473876953125;-7.9639739990234375;-6.9686126708984375
1445424230918;192.63555908203125;-110.05139923095703;-1.8259047269821167;-2.34674072265625;-16.06427001953125;-8.576904296875
1445424230951;192.71771240234375;-108.62640380859375;-1.43572199344635;-0.7972869873046875;-17.08416748046875;-9.361434936523438
1445424230985;191.1142578125;-108.83834838867188;-1.6289608478546143;3.890289306640625;-10.396026611328125;-6.87054443359375
1445424231017;191.3585205078125;-108.6168212890625;-1.8017873764038086;2.301605224609375;-12.945755004882812;-0.241241455078125
1445424231051;192.55615234375;-106.9747314453125;-1.6754002571105957;2.183929443359375;-15.88775634765625;-1.2415313720703125
1445424231083;195.79095458984375;-105.63407897949219;-0.6059396266937256;2.0270233154296875;-5.1200408935546875;2.6811370849609375
1445424231116;197.139892578125;-104.28555297851562;-0.44735029339790344;-0.267730712890625;-9.729171752929688;1.9358367919921875
1445424231151;200.06451416015625;-100.20286560058594;-0.559229850769043;-0.58154296875;-10.454864501953125;1.4258880615234375
1445424231182;203.66644287109375;-96.50550842285156;-0.861803412437439;1.30133056640625;-8.76812744140625;0.3471527099609375
1445424231215;204.694580078125;-94.87389373779297;-1.2254353761672974;0.1441497802734375;-10.31756591796875;1.072845458984375
1445424231248;207.6925048828125;-92.13661193847656;-0.8110685348510742;0.34027099609375;-10.121444702148438;0.5236663818359375
1445424231280;210.88632202148438;-90.33804321289062;-0.41862091422080994;-0.522705078125;-9.533035278320312;0.58251953125
1445424231314;212.13385009765625;-89.77742004394531;-0.4780522286891937;-0.9345855712890625;-9.513427734375;0.7982635498046875
1445424231347;214.174560546875;-88.52301025390625;-0.8150720596313477;0.0853118896484375;-9.199615478515625;0.6609649658203125
1445424231380;214.83551025390625;-87.65261840820312;-1.1524431705474854;0.1833648681640625;-9.631103515625;0.641357421875
1445424231413;216.2838134765625;-85.84268951416016;-2.359833002090454;0.1833648681640625;-9.984146118164062;0.3471527099609375
1445424231446;218.11770629882812;-84.08653259277344;-3.7962353229522705;0.4579620361328125;-10.513702392578125;-0.182403564453125
1445424231479;219.2406005859375;-83.23944091796875;-4.5053606033325195;-0.9345855712890625;-10.278350830078125;-0.0451202392578125
1445424231512;222.07916259765625;-81.97525787353516;-5.572788715362549;-2.366363525390625;-10.062606811523438;0.4844512939453125
1445424231545;224.20394897460938;-81.39330291748047;-5.978969097137451;-2.17022705078125;-10.729446411132812;0.36676025390625
1445424231583;225.5538330078125;-81.38609313964844;-6.459186553955078;-0.6207733154296875;-11.886642456054688;-0.9080963134765625
1445424231611;226.37664794921875;-81.61754608154297;-6.583012104034424;-0.5619354248046875;-11.710113525390625;-0.77081298828125
1445424231644;228.54248046875;-83.02192687988281;-6.153992176055908;1.2032623291015625;-11.867019653320312;-0.82965087890625
1445424231677;229.59576416015625;-84.46208953857422;-5.672353267669678;2.2819976806640625;-11.651275634765625;-0.3197021484375
1445424231710;232.12158203125;-88.8550033569336;-4.6129469871521;5.832000732421875;-12.200454711914062;-0.0254974365234375
1445424231743;236.606201171875;-94.68634033203125;-3.2453460693359375;5.086700439453125;-13.2791748046875;0.621734619140625
1445424231776;238.65234375;-97.24555969238281;-2.2019290924072266;3.2234344482421875;-13.61260986328125;-0.6138916015625
1445424231809;237.78671264648438;-101.54885864257812;-0.2849856913089752;1.3993988037109375;-12.180831909179688;-0.6727447509765625
1445424231842;237.13388061523438;-104.13691711425781;0.1157103106379509;1.8308868408203125;-8.3758544921875;-1.2219085693359375
1445424231875;237.00653076171875;-108.87147521972656;-0.17442794144153595;2.0858612060546875;-7.610931396484375;-1.5357208251953125
1445424231908;237.3448486328125;-112.98721313476562;-1.0446465015411377;1.8897247314453125;-6.924468994140625;-2.3594818115234375
1445424231942;237.71612548828125;-114.645263671875;-1.6018999814987183;2.49774169921875;-5.4338531494140625;-0.4569854736328125
1445424231973;238.82711791992188;-116.34197998046875;-3.296919107437134;2.183929443359375;-5.6888275146484375;-1.0453948974609375
1445424232007;240.59918212890625;-116.75025177001953;-4.458450794219971;0.5756378173828125;-7.5128631591796875;-3.6343536376953125
1445424232042;241.11083984375;-116.52347564697266;-4.611780166625977;-0.718841552734375;-6.7675628662109375;-4.2423553466796875
1445424232073;242.27001953125;-115.31902313232422;-4.0354695320129395;-0.7580718994140625;-6.0222625732421875;-4.0070037841796875
1445424232106;243.21148681640625;-114.3582763671875;-3.4427993297576904;-0.4246368408203125;-6.983306884765625;-4.5757904052734375
1445424232139;244.36151123046875;-111.50765228271484;-2.1850650310516357;-0.5030975341796875;-8.94464111328125;-5.55645751953125
1445424232173;243.951904296875;-108.70668029785156;-1.2484610080718994;0.928680419921875;-12.730010986328125;-6.9097747802734375
1445424232205;243.65243530273438;-108.29782104492188;-1.0461186170578003;1.47784423828125;-10.513702392578125;-7.302032470703125
1445424232245;242.90185546875;-109.1316909790039;-1.4274249076843262;2.2623748779296875;-7.375579833984375;-2.281036376953125
1445424232274;243.17330932617188;-109.63752746582031;-2.289163112640381;2.7919464111328125;-11.27862548828125;-1.3003692626953125
1445424232303;244.21908569335938;-108.4075698852539;-2.4576802253723145;3.92950439453125;-19.398529052734375;-4.65423583984375
1445424232337;247.43682861328125;-103.92935943603516;-1.6542572975158691;2.988067626953125;-12.847686767578125;-4.026611328125
1445424232370;251.20999145507812;-103.36568450927734;0.2420472502708435;3.615692138671875;-3.5313720703125;4.3678741455078125
1445424232403;254.40057373046875;-103.1495590209961;0.7463353872299194;-0.01275634765625;-11.10211181640625;1.249359130859375
1445424232436;258.1159973144531;-100.58810424804688;0.13237260282039642;-2.856689453125;-12.808456420898438;0.955169677734375
1445424232469;263.5042724609375;-97.9237060546875;1.795501708984375;0.8109893798828125;-9.513427734375;0.994384765625
1445424232502;266.3791198730469;-96.29541778564453;2.5948474407196045;2.0858612060546875;-8.454315185546875;0.327545166015625
1445424232535;271.1813049316406;-92.90235900878906;2.931619644165039;0.7521514892578125;-9.631103515625;1.0924530029296875
1445424232568;273.68280029296875;-91.44381713867188;2.7956655025482178;-0.326568603515625;-10.729446411132812;0.7982635498046875
1445424232602;278.7126770019531;-89.1319580078125;2.8418989181518555;-0.660003662109375;-10.31756591796875;0.5432891845703125
1445424232634;283.0694274902344;-87.29507446289062;3.1640093326568604;-1.3268585205078125;-9.68994140625;0.994384765625
1445424232668;284.80853271484375;-86.35353088378906;3.184603214263916;-0.7384490966796875;-9.925308227539062;0.680572509765625
1445424232700;287.90228271484375;-84.5241928100586;2.9043679237365723;-0.405029296875;-9.984146118164062;0.5432891845703125
1445424232732;290.6284484863281;-82.8662109375;2.282634735107422;-0.777679443359375;-10.101821899414062;0.4256134033203125
1445424232766;291.8778076171875;-82.12648010253906;1.8653247356414795;-0.6207733154296875;-9.90570068359375;0.386383056640625
1445424232799;294.1466064453125;-80.8083724975586;0.7890791893005371;-0.6207733154296875;-9.729171752929688;0.5236663818359375
1445424232832;296.48681640625;-79.6087646484375;-0.5751200914382935;-0.3069610595703125;-10.121444702148438;0.58251953125
1445424232866;297.80328369140625;-79.0419692993164;-1.3338719606399536;0.0068511962890625;-10.807907104492188;0.504058837890625
1445424232899;300.47711181640625;-78.07986450195312;-2.832206964492798;0.1245269775390625;-10.552932739257812;0.327545166015625
1445424232931;301.8218688964844;-77.83568572998047;-3.4246532917022705;0.34027099609375;-10.5921630859375;0.111785888671875
1445424232964;304.5215148925781;-77.56694030761719;-4.407137393951416;-0.287353515625;-10.9451904296875;0.07257080078125
1445424232997;307.1592712402344;-77.31913757324219;-4.9533491134643555;-0.9345855712890625;-11.612045288085938;-0.064727783203125
1445424233030;308.3200378417969;-77.28022766113281;-4.985729694366455;-1.6995086669921875;-11.710113525390625;0.30792236328125
1445424233063;310.3020324707031;-78.32083892822266;-4.021044731140137;-1.8760223388671875;-11.572830200195312;0.641357421875
1445424233096;312.49700927734375;-81.81835174560547;-3.047971487045288;2.2623748779296875;-10.905975341796875;-0.241241455078125
1445424233129;314.30133056640625;-84.81887817382812;-2.850924253463745;3.4587860107421875;-12.906524658203125;0.36676025390625
1445424233162;318.5987243652344;-91.45516204833984;-1.5851253271102905;2.3996734619140625;-13.78912353515625;0.8571014404296875
1445424233195;317.9396667480469;-96.47016906738281;0.8705291748046875;0.0853118896484375;-13.2791748046875;0.7001953125
1445424233228;316.2880859375;-99.22986602783203;1.6245920658111572;-0.1304473876953125;-13.141891479492188;0.3471527099609375
1445424233261;313.6421813964844;-105.2498779296875;1.5590909719467163;0.595245361328125;-10.7098388671875;-1.4180450439453125
1445424233294;311.64373779296875;-110.95136260986328;0.896249532699585;0.928680419921875;-9.023101806640625;-1.2219085693359375
1445424233329;310.79345703125;-113.42164611816406;0.6799100637435913;0.9678955078125;-7.9051361083984375;-0.82965087890625
1445424233360;308.6060485839844;-117.4445571899414;-0.4917369782924652;1.556304931640625;-4.590484619140625;-1.51611328125
1445424233395;308.06854248046875;-118.97212219238281;-1.39437735080719;0.418731689453125;-4.8846893310546875;-1.888763427734375
1445424233425;308.3482666015625;-120.10214233398438;-2.912928581237793;-0.091217041015625;-5.218109130859375;-1.96722412109375
1445424233459;308.8131408691406;-119.54743194580078;-3.991903781890869;-0.34619140625;-4.963134765625;-2.9478759765625
1445424233491;309.0060119628906;-118.83053588867188;-4.289760589599609;-0.0519866943359375;-5.3161773681640625;-5.2034149169921875
1445424233525;308.94940185546875;-116.57465362548828;-4.2840399742126465;-0.267730712890625;-7.826690673828125;-6.792083740234375
1445424233559;307.7987060546875;-113.4885025024414;-3.386798620223999;-1.2483978271484375;-16.633056640625;-8.812255859375
1445424233592;306.9909362792969;-112.3765869140625;-2.761336088180542;1.222869873046875;-10.984420776367188;-8.831878662109375
1445424233624;304.2651062011719;-113.1308822631836;-2.092066764831543;2.811553955078125;-7.4148101806640625;-6.6940155029296875
1445424233657;303.71185302734375;-114.20343017578125;-2.698700428009033;3.321502685546875;-9.807632446289062;-0.751190185546875
1445424233693;305.05023193359375;-112.71197509765625;-2.8945181369781494;3.9098968505859375;-18.123672485351562;-3.908935546875
1445424233725;308.1068115234375;-108.51637268066406;-3.403681755065918;2.73309326171875;-11.612045288085938;-3.28131103515625
1445424233756;309.5870361328125;-108.11750793457031;-3.370931625366211;1.9093475341796875;-3.6882781982421875;3.4852752685546875
1445424233790;314.4090881347656;-106.92330932617188;-3.1171793937683105;0.2618255615234375;-7.12060546875;2.720367431640625
1445424233824;315.8013916015625;-102.93913269042969;-4.355382442474365;-3.9746551513671875;-12.063156127929688;1.3474273681640625
1445424233854;317.10931396484375;-101.37438201904297;-4.2609782218933105;1.3797760009765625;-9.866470336914062;-1.0257720947265625
1445424233895;319.0959167480469;-98.49440002441406;-4.369988441467285;0.869842529296875;-9.101547241210938;-0.123565673828125
1445424233923;319.7519226074219;-96.09963989257812;-4.739407062530518;-0.0519866943359375;-9.788009643554688;0.680572509765625
1445424233954;320.45751953125;-95.03854370117188;-4.738801956176758;-0.1108245849609375;-9.788009643554688;0.0921783447265625
1445424233987;321.10369873046875;-93.2116470336914;-4.72310733795166;-0.0716094970703125;-9.3369140625;0.3471527099609375
1445424234020;321.0964050292969;-92.2449951171875;-4.883034706115723;0.1441497802734375;-9.317291259765625;0.2686920166015625
1445424234053;320.89239501953125;-90.30158233642578;-5.451906204223633;0.477569580078125;-9.180007934570312;0.24908447265625
1445424234086;320.7434997558594;-88.41365814208984;-6.458660125732422;0.6344757080078125;-9.45458984375;-0.005889892578125
1445424234118;321.4638671875;-86.73828125;-7.876516342163086;0.3991241455078125;-9.827239990234375;-0.1039581298828125
1445424234152;321.9146423339844;-85.97090911865234;-8.602359771728516;0.0068511962890625;-9.944915771484375;0.01373291015625
1445424234185;322.38031005859375;-84.84404754638672;-9.656572341918945;-0.150054931640625;-10.180282592773438;-0.241241455078125
1445424234219;322.36334228515625;-84.4316177368164;-10.045771598815918;-0.660003662109375;-11.239395141601562;0.24908447265625
1445424234251;321.3367919921875;-83.72347259521484;-10.85157585144043;-1.2680206298828125;-12.47503662109375;-0.6531219482421875
1445424234284;320.1416320800781;-83.4091796875;-11.090694427490234;-1.228790283203125;-13.61260986328125;-1.3003692626953125
1445424234319;319.61669921875;-83.7197265625;-10.960976600646973;-1.915252685546875;-13.0438232421875;-0.8492584228515625
1445424234350;317.1124267578125;-85.82792663574219;-10.240743637084961;-2.3271331787109375;-13.1614990234375;-0.4766082763671875
1445424234383;312.8865966796875;-90.76329040527344;-9.748668670654297;0.9482879638671875;-11.533599853515625;0.052947998046875
1445424234420;311.37677001953125;-94.39645385742188;-9.379748344421387;-0.6796112060546875;-13.632217407226562;1.5435638427734375
1445424234448;309.26593017578125;-100.69888305664062;-7.5739006996154785;-1.4837646484375;-13.475311279296875;1.32781982421875
1445424234481;301.32861328125;-104.1309814453125;-5.379967212677002;-1.464141845703125;-11.749343872070312;0.9159393310546875
1445424234515;296.7128601074219;-106.15809631347656;-4.6488356590271;-1.169952392578125;-11.062881469726562;0.4256134033203125
1445424234548;288.27740478515625;-109.80403137207031;-3.689223527908325;-0.3854217529296875;-8.76812744140625;0.13140869140625
1445424234581;284.1128234863281;-111.43294525146484;-3.5170440673828125;-0.287353515625;-9.06231689453125;0.24908447265625
1445424234615;275.7103271484375;-114.22926330566406;-3.7468273639678955;-0.4246368408203125;-9.376129150390625;0.504058837890625
1445424234647;267.1307067871094;-116.14389038085938;-4.653566837310791;0.654083251953125;-8.238555908203125;0.4059906005859375
1445424234680;263.50616455078125;-116.76647186279297;-5.138483047485352;1.7720489501953125;-8.277786254882812;0.07257080078125
1445424234712;258.0596923828125;-117.18815612792969;-5.963498592376709;2.0858612060546875;-7.669769287109375;0.1706390380859375
1445424234746;253.86981201171875;-117.13719177246094;-7.040501594543457;1.98779296875;-6.296844482421875;-0.82965087890625
1445424234779;252.43496704101562;-116.99857330322266;-7.490017890930176;1.6935882568359375;-6.37530517578125;-3.4382171630859375
1445424234812;250.33309936523438;-115.88013458251953;-7.886008262634277;1.30133056640625;-7.4148101806640625;-4.9484405517578125
1445424234845;247.86294555664062;-113.68595123291016;-7.469354152679443;-0.6207733154296875;-13.67144775390625;-8.223861694335938
1445424234878;246.35598754882812;-112.77310943603516;-7.176822662353516;-1.09149169921875;-16.142715454101562;-8.36114501953125
1445424234911;242.659912109375;-113.89154052734375;-6.294857025146484;-0.267730712890625;-7.669769287109375;-6.9097747802734375
1445424234944;241.5384521484375;-115.014404296875;-5.819371223449707;2.9096221923828125;-8.591598510742188;-1.2415313720703125
1445424234977;242.16839599609375;-113.71709442138672;-4.810416221618652;3.3607330322265625;-14.534439086914062;-1.829925537109375
1445424235010;243.38900756835938;-109.91856384277344;-4.849161148071289;2.125091552734375;-13.534149169921875;-3.28131103515625
1445424235048;245.8653564453125;-109.99771881103516;-4.323928356170654;2.5958099365234375;-3.6098175048828125;2.269256591796875
1445424235076;246.89639282226562;-108.76033020019531;-4.260117053985596;0.04608154296875;-7.0225372314453125;1.1512908935546875
1445424235109;249.08111572265625;-104.90245819091797;-3.557903528213501;-3.4450836181640625;-12.121994018554688;1.523956298828125
1445424235142;250.47286987304688;-103.41567993164062;-3.0482470989227295;2.5369720458984375;-7.5913238525390625;-2.006439208984375
1445424235175;250.64556884765625;-101.0905532836914;-3.5924904346466064;1.53668212890625;-7.1990509033203125;-0.5942840576171875
1445424235208;251.94338989257812;-98.123291015625;-3.6578855514526367;-1.346466064453125;-9.474197387695312;1.50433349609375
1445424235240;252.2215576171875;-96.56102752685547;-3.6480553150177;-1.1307220458984375;-9.827239990234375;0.7001953125
1445424235274;252.16180419921875;-93.54142761230469;-4.026892185211182;0.7913818359375;-10.062606811523438;0.1706390380859375
1445424235313;252.478515625;-90.6440200805664;-4.623288631439209;1.0855865478515625;-9.042709350585938;0.13140869140625
1445424235340;253.05514526367188;-89.4688949584961;-4.829800605773926;0.7717742919921875;-9.513427734375;0.07257080078125
1445424235373;254.43157958984375;-87.06416320800781;-5.525984764099121;0.7717742919921875;-9.925308227539062;0.5236663818359375
1445424235406;255.25723266601562;-85.87580108642578;-6.191849708557129;1.105194091796875;-10.474472045898438;-0.2216339111328125
1445424235439;257.19781494140625;-83.83507537841797;-7.750321865081787;0.28143310546875;-10.670608520507812;-0.4373779296875
1445424235475;259.0147399902344;-82.35710906982422;-8.669832229614258;-2.05255126953125;-10.905975341796875;-0.633514404296875
1445424235505;259.5036315917969;-81.97407531738281;-8.825902938842773;-2.5821075439453125;-12.886917114257812;-1.2415313720703125
1445424235539;259.4827880859375;-81.81095123291016;-8.773866653442383;-2.1309967041015625;-13.592987060546875;-1.4180450439453125
1445424235570;259.3714599609375;-81.8965835571289;-8.355944633483887;-0.660003662109375;-13.0438232421875;-1.2415313720703125
1445424235604;259.4135437011719;-82.86767578125;-6.980844974517822;-0.3854217529296875;-13.200729370117188;-0.88848876953125
1445424235640;258.9027404785156;-86.36563110351562;-5.145669460296631;4.066802978515625;-11.612045288085938;-0.064727783203125
1445424235670;259.416259765625;-92.49266052246094;-3.569932460784912;3.439178466796875;-14.436370849609375;1.6024017333984375
1445424235702;260.3297119140625;-95.55558776855469;-2.6609275341033936;3.3607330322265625;-15.299346923828125;1.072845458984375
1445424235736;259.4128723144531;-100.76211547851562;0.10674909502267838;2.183929443359375;-14.436370849609375;-0.182403564453125
1445424235770;257.1160888671875;-103.28508758544922;1.048630952835083;0.242218017578125;-9.238845825195312;0.2686920166015625
1445424235802;253.45794677734375;-109.1698226928711;1.4228252172470093;0.3991241455078125;-8.120880126953125;-0.0254974365234375
1445424235836;250.6905517578125;-114.19113159179688;1.1614201068878174;1.4582366943359375;-6.72833251953125;-0.692352294921875
1445424235869;249.35556030273438;-116.38467407226562;0.9683364033699036;2.9684600830078125;-5.0808258056640625;0.4844512939453125
1445424235901;246.60955810546875;-119.86002349853516;-0.3914377689361572;3.0076904296875;-4.1197662353515625;0.935546875
1445424235934;246.02349853515625;-121.12679290771484;-2.0446975231170654;1.41900634765625;-5.100433349609375;-0.633514404296875
1445424235968;246.53692626953125;-120.79560089111328;-2.441462516784668;0.7521514892578125;-5.610382080078125;-1.9083709716796875
1445424236000;247.45053100585938;-118.4188232421875;-2.5862467288970947;0.2029876708984375;-6.1007080078125;-4.8896026611328125
1445424236034;247.5941162109375;-116.81423950195312;-2.4806370735168457;-1.20916748046875;-9.023101806640625;-7.988494873046875
1445424236066;246.8453369140625;-113.63670349121094;-1.9845701456069946;-1.915252685546875;-12.494644165039062;-8.204238891601562
1445424236100;246.34716796875;-112.12687683105469;-0.32694587111473083;1.0071258544921875;-15.3778076171875;-7.8315887451171875
1445424236131;245.56121826171875;-112.65306091308594;0.23587273061275482;3.262664794921875;-5.492706298828125;-6.3213653564453125
1445424236164;243.9779052734375;-114.78118133544922;0.47115859389305115;4.2041015625;-5.276947021484375;-3.3597564697265625
1445424236198;245.94122314453125;-113.78215789794922;0.9450558423995972;4.184478759765625;-13.769515991210938;0.445220947265625
1445424236232;248.2064208984375;-111.29193878173828;1.392840027809143;1.6347503662109375;-17.6529541015625;-2.5948486328125
1445424236264;250.65042114257812;-108.59658813476562;3.3890273571014404;2.046630859375;-7.3363494873046875;1.3670501708984375
1445424236297;253.9215087890625;-108.80258178710938;5.126573085784912;1.3797760009765625;-3.217559814453125;-0.3785400390625
1445424236332;256.35321044921875;-107.48387908935547;6.124908447265625;-3.111663818359375;-14.92669677734375;2.504608154296875
1445424236363;264.7900695800781;-103.35577392578125;9.051036834716797;-0.9345855712890625;-13.769515991210938;-0.77081298828125
1445424236395;268.886474609375;-99.98690795898438;9.224170684814453;1.615142822265625;-7.669769287109375;0.8571014404296875
1445424236430;272.59967041015625;-97.98501586914062;9.222514152526855;0.869842529296875;-7.9835968017578125;2.0338897705078125
1445424236462;279.9435119628906;-93.1784439086914;8.991129875183105;-1.464141845703125;-10.905975341796875;2.1319580078125
1445424236494;283.520263671875;-90.89772033691406;9.07079792022705;-1.6602783203125;-10.297958374023438;2.0535125732421875
1445424236528;289.46612548828125;-86.68387603759766;8.995744705200195;-0.542327880859375;-9.611495971679688;1.759307861328125
1445424236561;293.9760437011719;-83.71780395507812;8.12481689453125;-1.09149169921875;-9.68994140625;0.81787109375
1445424236594;296.1250915527344;-82.50994110107422;7.575204849243164;-1.6798858642578125;-9.866470336914062;-0.2020263671875
1445424236627;299.2268371582031;-80.45087432861328;6.275847434997559;-1.7583465576171875;-9.670333862304688;-0.182403564453125
1445424236661;302.1019592285156;-78.79903411865234;4.460910320281982;-0.601165771484375;-9.807632446289062;-0.1627960205078125
1445424236693;303.4953918457031;-78.00474548339844;3.3459227085113525;-1.03265380859375;-10.042984008789062;0.30792236328125
1445424236726;306.42156982421875;-76.66986846923828;1.4129694700241089;-0.954193115234375;-9.788009643554688;0.327545166015625
1445424236759;308.81170654296875;-76.04759979248047;0.07773269712924957;-0.895355224609375;-11.141326904296875;-1.0257720947265625
1445424236794;310.113525390625;-75.86311340332031;-0.49704763293266296;-0.97381591796875;-12.376968383789062;-0.94732666015625
1445424236824;313.4360656738281;-75.60172271728516;-1.1357572078704834;-0.85614013671875;-12.35736083984375;-0.182403564453125
1445424236858;315.47564697265625;-75.69010925292969;-1.2238717079162598;0.301055908203125;-12.29852294921875;0.58251953125
1445424236891;320.0804138183594;-77.7795181274414;-1.1389031410217285;2.419281005859375;-11.33746337890625;-0.3785400390625
1445424236923;325.1348876953125;-83.47319793701172;-1.480061650276184;4.1060333251953125;-14.710952758789062;0.994384765625
1445424236960;330.4273376464844;-90.39678192138672;-0.7100598812103271;2.164306640625;-15.456253051757812;0.5236663818359375
1445424236991;332.11187744140625;-93.16494750976562;0.5971136093139648;2.046630859375;-15.10321044921875;-0.005889892578125
1445424237025;332.2936096191406;-98.44888305664062;2.637089490890503;1.9093475341796875;-12.102386474609375;-0.182403564453125
1445424237056;332.74652099609375;-101.42665100097656;2.82485032081604;1.222869873046875;-8.76812744140625;-0.574676513671875
1445424237089;333.8403015136719;-107.51478576660156;2.740549325942993;0.536407470703125;-8.081649780273438;-0.4569854736328125
1445424237123;335.2734069824219;-112.7907485961914;2.9220757484436035;0.301055908203125;-6.473358154296875;-0.4177703857421875
1445424237157;335.5688171386719;-115.16902160644531;2.5560660362243652;0.8502197265625;-3.2567901611328125;-0.5942840576171875
1445424237190;335.8470153808594;-118.4579086303711;0.37871626019477844;0.418731689453125;-3.4921417236328125;-1.1630706787109375
1445424237223;336.03369140625;-119.00008392333984;-1.5515074729919434;-0.718841552734375;-4.7081756591796875;-3.026336669921875
1445424237253;335.947998046875;-118.6047592163086;-2.1464579105377197;-1.2680206298828125;-4.727783203125;-3.51666259765625
1445424237289;335.7574462890625;-116.98380279541016;-2.291637420654297;-1.3660736083984375;-5.845733642578125;-5.360321044921875
1445424237322;335.0685729980469;-114.60826873779297;-1.9457125663757324;-1.09149169921875;-9.984146118164062;-8.223861694335938
1445424237352;334.23431396484375;-113.45416259765625;-1.8267183303833008;-1.405303955078125;-13.396865844726562;-9.7144775390625
1445424237386;333.0596923828125;-113.48673248291016;-1.848803997039795;1.046356201171875;-12.553482055664062;-9.7144775390625
1445424237419;332.6336975097656;-114.5869140625;-2.1899333000183105;2.38006591796875;-8.905410766601562;-8.24346923828125
1445424237452;333.6689758300781;-116.64063262939453;-3.1321444511413574;4.8513336181640625;-8.925033569335938;-4.2423553466796875
1445424237485;337.0259094238281;-116.31449890136719;-3.577500581741333;4.9886322021484375;-16.142715454101562;-3.57550048828125
1445424237520;338.4879150390625;-115.40274047851562;-2.998068332672119;2.5958099365234375;-16.868408203125;-4.3011932373046875
1445424237551;342.11346435546875;-115.38494873046875;-0.39915695786476135;3.1645965576171875;-3.217559814453125;1.700469970703125
1445424237583;344.0928039550781;-114.61307525634766;0.5111008882522583;-1.0522613525390625;-11.062881469726562;0.9747772216796875
1445424237618;347.89862060546875;-111.1339340209961;3.0364651679992676;-1.228790283203125;-13.749893188476562;0.5432891845703125
1445424237649;351.1009521484375;-106.95349884033203;4.7033586502075195;1.5759124755859375;-8.3170166015625;-1.457275390625
1445424237683;353.6658020019531;-105.43950653076172;5.149560928344727;0.359893798828125;-9.788009643554688;0.327545166015625
1445424237716;0.007232666015625;-101.29989624023438;5.8891448974609375;-0.522705078125;-10.25872802734375;0.8374786376953125
1445424237749;5.3966064453125;-97.19161224365234;6.476698398590088;-0.7972869873046875;-9.748779296875;1.5435638427734375
1445424237782;8.268768310546875;-95.28726959228516;6.706928253173828;-0.542327880859375;-10.003753662109375;1.3474273681640625
1445424237814;14.496551513671875;-91.76363372802734;7.093008041381836;-0.150054931640625;-9.788009643554688;1.21014404296875
1445424237847;20.977020263671875;-88.69459533691406;7.256572246551514;-0.954193115234375;-9.925308227539062;1.6808624267578125
1445424237882;23.582763671875;-87.40824127197266;7.133033752441406;-1.20916748046875;-10.14105224609375;1.249359130859375
1445424237914;27.617889404296875;-85.27447509765625;6.727496147155762;-0.9345855712890625;-10.670608520507812;0.1706390380859375
1445424237947;31.882415771484375;-83.27513885498047;5.888998508453369;0.359893798828125;-9.709564208984375;-0.7119598388671875
1445424237979;33.958770751953125;-82.42000579833984;5.146989822387695;0.0656890869140625;-9.846847534179688;-0.82965087890625
1445424238013;37.939727783203125;-81.12191772460938;3.473114252090454;-1.1307220458984375;-10.25872802734375;-1.4180450439453125
1445424238045;39.6116943359375;-80.5098876953125;2.701197862625122;-1.9544830322265625;-10.239120483398438;-1.3395843505859375
1445424238079;42.85089111328125;-79.36380767822266;1.0766959190368652;-1.09149169921875;-10.435256958007812;-1.6141815185546875
1445424238112;46.917724609375;-79.01649475097656;-0.7122943997383118;-0.6992340087890625;-11.690505981445312;-0.77081298828125
1445424238145;49.24945068359375;-79.32445526123047;-1.429479718208313;-0.58154296875;-11.533599853515625;0.386383056640625
1445424238178;54.51470947265625;-80.8878402709961;-1.859512448310852;0.301055908203125;-11.004043579101562;-0.123565673828125
1445424238211;59.482940673828125;-85.61605834960938;-1.242370367050171;4.0471954345703125;-13.90679931640625;0.327545166015625
1445424238244;61.7252197265625;-88.85460662841797;-0.7716571688652039;1.6935882568359375;-15.770065307617188;-0.300079345703125
1445424238278;64.2872314453125;-93.7553482055664;1.5215061902999878;0.2029876708984375;-16.534988403320312;-1.1042327880859375
1445424238309;63.191162109375;-98.79878234863281;4.105541706085205;2.183929443359375;-10.7098388671875;0.4256134033203125
1445424238345;62.152679443359375;-101.61872100830078;4.019940376281738;2.0270233154296875;-9.807632446289062;0.4256134033203125
1445424238376;61.1556396484375;-106.80044555664062;3.3503119945526123;1.0071258544921875;-9.356521606445312;-2.006439208984375
1445424238409;60.68206787109375;-109.39138793945312;3.0107102394104004;0.6737060546875;-7.669769287109375;-1.6337890625
1445424238443;59.389068603515625;-113.78479766845703;1.9225399494171143;1.105194091796875;-6.9048614501953125;-0.3393096923828125
1445424238475;58.511993408203125;-116.7942123413086;-0.3183414041996002;1.24249267578125;-4.963134765625;-0.3393096923828125
1445424238508;58.126556396484375;-117.8031234741211;-1.675323724746704;-0.228515625;-5.5123138427734375;-2.7517547607421875
1445424238541;58.180511474609375;-117.99697875976562;-3.380110502243042;-0.4638671875;-5.4338531494140625;-3.57550048828125
1445424238573;59.666229248046875;-116.25009155273438;-3.715677499771118;0.0068511962890625;-4.7473907470703125;-4.1246795654296875
1445424238607;60.6827392578125;-114.91716766357422;-3.6179251670837402;0.10491943359375;-6.9048614501953125;-5.8898773193359375
1445424238640;62.04144287109375;-111.59431457519531;-3.5007081031799316;-0.1304473876953125;-9.729171752929688;-8.06695556640625
1445424238673;62.5390625;-109.26271057128906;-3.221997022628784;0.301055908203125;-17.43719482421875;-9.675247192382812
1445424238707;63.005889892578125;-110.00096130371094;-2.9835128784179688;3.262664794921875;-7.669769287109375;-7.4589385986328125
1445424238740;62.6129150390625;-112.39794158935547;-3.6862494945526123;5.596649169921875;-6.9048614501953125;-1.2807464599609375
1445424238773;62.215118408203125;-112.89521026611328;-4.2854204177856445;4.94940185546875;-19.53582763671875;-1.51611328125
1445424238807;63.978179931640625;-110.43033599853516;-4.557177543640137;1.36016845703125;-8.160110473632812;0.7786407470703125
1445424238840;66.17169189453125;-107.18484497070312;-3.1917724609375;1.2032623291015625;-2.8645172119140625;3.9363861083984375
1445424238870;68.54928588867188;-106.82696533203125;-1.9928020238876343;-0.405029296875;-10.08221435546875;1.7789306640625
1445424238905;71.67257690429688;-102.2485122680664;-1.7263695001602173;-3.170501708984375;-13.1026611328125;1.190521240234375
1445424238937;74.0205078125;-98.01073455810547;-1.3117517232894897;0.3206634521484375;-9.748779296875;-0.182403564453125
1445424238970;76.2347412109375;-96.48440551757812;-0.9291752576828003;1.98779296875;-8.395462036132812;-0.4962158203125
1445424239004;79.3980712890625;-93.80299377441406;-0.9346230626106262;0.5756378173828125;-9.415359497070312;0.445220947265625
1445424239036;82.769287109375;-91.79471588134766;-0.9716272950172424;-0.4638671875;-9.925308227539062;0.641357421875
1445424239071;84.40237426757812;-90.97201538085938;-0.9594388008117676;-0.836517333984375;-9.278060913085938;0.36676025390625
1445424239102;86.6199951171875;-89.36847686767578;-1.0884305238723755;-0.9934234619140625;-9.3369140625;0.30792236328125
1445424239135;88.061279296875;-87.38551330566406;-1.5527653694152832;-0.3854217529296875;-9.552658081054688;-0.064727783203125
1445424239167;88.70953369140625;-86.35396575927734;-1.9803791046142578;-0.1108245849609375;-9.631103515625;-0.0451202392578125
1445424239202;90.52801513671875;-84.46528625488281;-3.4496009349823;0.359893798828125;-9.90570068359375;-0.2020263671875
1445424239234;92.92465209960938;-82.8433609008789;-5.285116195678711;-0.326568603515625;-10.160659790039062;-0.1627960205078125
1445424239266;94.19723510742188;-82.09103393554688;-6.141847133636475;-1.3268585205078125;-10.376419067382812;0.2883148193359375
1445424239301;96.40313720703125;-81.03602600097656;-7.2688212394714355;-1.7191162109375;-10.690231323242188;0.2686920166015625
1445424239332;97.08706665039062;-80.74979400634766;-7.697471618652344;-2.0721588134765625;-11.78857421875;-0.0254974365234375
1445424239366;98.07986450195312;-80.6981201171875;-8.288219451904297;-2.2682952880859375;-12.788848876953125;-0.82965087890625
1445424239399;98.77804565429688;-80.80184936523438;-8.015609741210938;-1.287628173828125;-12.180831909179688;-0.4177703857421875
1445424239431;99.09457397460938;-81.15768432617188;-7.523849010467529;-0.58154296875;-13.61260986328125;-0.77081298828125
1445424239465;99.35858154296875;-83.62640380859375;-6.087946891784668;1.8897247314453125;-11.827789306640625;-0.515838623046875
1445424239498;99.78216552734375;-85.90444946289062;-5.623091697692871;4.066802978515625;-12.220062255859375;-0.3589324951171875
1445424239531;100.66433715820312;-92.38737487792969;-4.670204162597656;2.870391845703125;-13.926422119140625;0.1510162353515625
1445424239564;98.86123657226562;-98.25809478759766;-2.3474225997924805;-0.3069610595703125;-13.965652465820312;-0.005889892578125
1445424239596;95.99163818359375;-100.26844024658203;-1.043124794960022;-0.58154296875;-11.78857421875;0.4059906005859375
1445424239630;88.64813232421875;-105.05667877197266;-0.31825947761535645;-0.5619354248046875;-10.337188720703125;0.0921783447265625
1445424239664;82.78836059570312;-109.79706573486328;-0.16581161320209503;0.3795013427734375;-8.454315185546875;-0.9080963134765625
1445424239696;80.130126953125;-111.86011505126953;-0.04339049011468887;1.615142822265625;-7.1990509033203125;-0.3785400390625
1445424239729;74.29086303710938;-115.25586700439453;-0.37890923023223877;1.6543731689453125;-6.983306884765625;0.111785888671875
1445424239762;69.13720703125;-117.68965911865234;-1.5961551666259766;2.301605224609375;-5.9634246826171875;0.6021270751953125
1445424239795;67.92208862304688;-118.22705078125;-2.103821039199829;1.6347503662109375;-6.66949462890625;-1.8691558837890625
1445424239828;67.3712158203125;-118.01741790771484;-2.610262393951416;1.12481689453125;-6.49298095703125;-2.4967803955078125
1445424239861;67.3897705078125;-117.53868865966797;-2.865283727645874;0.7913818359375;-5.845733642578125;-3.6931915283203125
1445424239894;68.02606201171875;-115.94257354736328;-3.3874571323394775;0.418731689453125;-6.355682373046875;-4.71307373046875
1445424239928;68.3876953125;-113.03428649902344;-3.4836418628692627;-1.3072357177734375;-12.220062255859375;-7.811981201171875
1445424239960;67.80502319335938;-110.0367202758789;-2.8791253566741943;-0.4834747314453125;-16.750732421875;-9.047622680664062
1445424239993;68.10159301757812;-109.9021987915039;-2.2393455505371094;0.7913818359375;-10.9451904296875;-9.32220458984375
1445424240025;66.87417602539062;-111.82176208496094;-1.6781460046768188;2.49774169921875;-6.43414306640625;-2.08489990234375
1445424240059;66.47872924804688;-111.28521728515625;-1.848593831062317;3.4195709228515625;-19.045486450195312;0.30792236328125
1445424240092;67.97369384765625;-108.72746276855469;-1.8110871315002441;3.0665283203125;-16.358474731445312;-4.0070037841796875
1445424240124;69.34829711914062;-107.6561279296875;-1.2871617078781128;2.4781341552734375;-3.6490478515625;2.3673248291015625
1445424240158;70.57525634765625;-108.09815216064453;-0.9663126468658447;-0.01275634765625;-8.76812744140625;1.9750518798828125
1445424240190;73.9833984375;-105.14618682861328;-1.1869993209838867;-3.42547607421875;-12.494644165039062;1.56317138671875
1445424240224;77.23275756835938;-101.82819366455078;-0.21458284556865692;-0.660003662109375;-10.31756591796875;0.7786407470703125
1445424240257;79.23138427734375;-100.34280395507812;0.43492674827575684;2.870391845703125;-6.689117431640625;1.131683349609375
1445424240290;80.47244262695312;-98.52535247802734;0.4530528783798218;0.8502197265625;-8.454315185546875;2.2888641357421875
1445424240323;82.8013916015625;-93.30673217773438;-0.7083650231361389;-0.2481231689453125;-10.8275146484375;0.504058837890625
1445424240356;83.3670654296875;-91.94237518310547;-0.9108338356018066;0.1245269775390625;-10.31756591796875;-0.6727447509765625
1445424240389;84.7911376953125;-89.80699157714844;-1.2461637258529663;-0.954193115234375;-9.846847534179688;-0.6531219482421875
1445424240422;85.51846313476562;-89.00284576416016;-1.3468067646026611;-0.895355224609375;-9.944915771484375;-0.6138916015625
1445424240459;86.5728759765625;-87.5511703491211;-1.7383842468261719;-0.405029296875;-10.160659790039062;-0.4373779296875
1445424240490;87.49826049804688;-86.0379409790039;-2.8582258224487305;0.8894500732421875;-9.68994140625;0.052947998046875
1445424240521;88.0740966796875;-85.24800872802734;-3.5773367881774902;0.4579620361328125;-9.90570068359375;0.0333404541015625
1445424240555;89.68148803710938;-83.8460464477539;-4.813089370727539;-0.1304473876953125;-10.19989013671875;-0.005889892578125
1445424240591;90.8453369140625;-82.8701400756836;-5.5832085609436035;-2.0133209228515625;-10.729446411132812;0.9747772216796875
1445424240620;91.213134765625;-82.56671905517578;-5.90301513671875;-0.895355224609375;-12.337738037109375;-0.1431732177734375
1445424240652;91.63522338867188;-82.26914978027344;-6.494980812072754;-1.4445343017578125;-12.631942749023438;-0.88848876953125
1445424240686;92.09548950195312;-82.19466400146484;-6.4326252937316895;-1.4249267578125;-11.78857421875;-1.496490478515625
1445424240726;92.497314453125;-83.72952270507812;-5.488284111022949;-1.111114501953125;-11.710113525390625;-1.437652587890625
1445424240756;92.27020263671875;-85.19728088378906;-4.760103702545166;-0.6207733154296875;-10.8275146484375;-1.378814697265625
1445424240785;92.01971435546875;-87.27220916748047;-4.112990379333496;2.5761871337890625;-10.788284301757812;-0.4766082763671875
1445424240818;91.38555908203125;-93.52222442626953;-3.0740745067596436;2.8311614990234375;-12.35736083984375;0.621734619140625
1445424240851;87.80267333984375;-99.1962661743164;-0.8987857103347778;-0.091217041015625;-15.279739379882812;-0.241241455078125
1445424240884;84.56082153320312;-101.7715072631836;0.3775670528411865;0.0853118896484375;-11.984695434570312;-0.868865966796875
1445424240918;77.30270385742188;-107.48262786865234;1.6260439157485962;0.6344757080078125;-10.19989013671875;-0.94732666015625
1445424240950;71.5474853515625;-112.39579010009766;2.2392942905426025;1.5170745849609375;-6.924468994140625;-0.82965087890625
1445424240984;69.12530517578125;-114.63162994384766;2.2977328300476074;1.164031982421875;-6.2183990478515625;-0.4373779296875
1445424241016;64.96697998046875;-118.4720230102539;1.8549970388412476;1.6543731689453125;-4.355133056640625;0.36676025390625
1445424241049;62.095794677734375;-120.70237731933594;0.2328554391860962;1.5759124755859375;-4.296295166015625;-0.810028076171875
1445424241082;61.3878173828125;-121.25556182861328;-0.6314671635627747;1.1444244384765625;-4.727783203125;-1.7906951904296875
1445424241115;60.93597412109375;-120.58293914794922;-1.5433261394500732;0.3206634521484375;-5.29656982421875;-3.9481658935546875
1445424241148;61.107421875;-119.35968017578125;-1.5454543828964233;-0.287353515625;-8.218948364257812;-6.046783447265625
1445424241181;61.26123046875;-116.05006408691406;-1.2287547588348389;-0.8757476806640625;-11.259017944335938;-7.184356689453125
1445424241214;60.15325927734375;-113.54595184326172;-0.6725926995277405;-1.3660736083984375;-16.946868896484375;-8.655349731445312
1445424241247;59.6142578125;-113.20213317871094;-0.10064459592103958;1.811279296875;-8.650436401367188;-8.714187622070312
1445424241279;59.077850341796875;-114.86910247802734;0.2368306666612625;3.1057586669921875;-6.8264007568359375;-5.3799285888671875
1445424241313;58.746917724609375;-115.27002716064453;-0.7270094752311707;3.4195709228515625;-13.396865844726562;-0.4766082763671875
1445424241347;59.34185791015625;-113.01715850830078;-0.8699484467506409;1.732818603515625;-14.80902099609375;-3.085174560546875
1445424241378;62.405120849609375;-108.15574645996094;0.23901121318340302;2.2623748779296875;-6.7675628662109375;0.9159393310546875
1445424241412;65.6895751953125;-106.40350341796875;1.9036762714385986;1.791656494140625;-5.5907745361328125;1.9358367919921875
1445424241445;66.8135986328125;-104.22758483886719;1.7720147371292114;-0.4834747314453125;-10.219512939453125;0.7982635498046875
1445424241478;70.24630737304688;-100.21080780029297;1.9798954725265503;-1.20916748046875;-10.749069213867188;0.621734619140625
1445424241511;73.9775390625;-96.85566711425781;2.50951886177063;0.7521514892578125;-7.5324859619140625;0.4059906005859375
1445424241544;74.97821044921875;-95.05895233154297;2.3863415718078613;-0.1108245849609375;-7.885528564453125;0.7982635498046875
1445424241577;77.23760986328125;-91.81767272949219;2.1548876762390137;-1.09149169921875;-10.042984008789062;0.6609649658203125
1445424241610;78.31167602539062;-90.35875701904297;2.050062656402588;-0.405029296875;-9.493820190429688;-0.1431732177734375
1445424241643;79.89572143554688;-87.82203674316406;1.7562261819839478;-0.4638671875;-9.199615478515625;0.24908447265625
1445424241676;81.73126220703125;-85.55340576171875;1.1272298097610474;-0.1892852783203125;-9.631103515625;0.327545166015625
1445424241711;82.5906982421875;-84.55235290527344;0.5529448390007019;0.242218017578125;-10.08221435546875;0.4648284912109375
1445424241742;84.73367309570312;-82.62178802490234;-1.0794779062271118;0.3795013427734375;-10.611770629882812;-0.064727783203125
1445424241775;87.59432983398438;-80.7186050415039;-2.8059778213500977;-1.15032958984375;-10.984420776367188;-0.182403564453125
1445424241808;89.11270141601562;-79.9914779663086;-3.442991256713867;-1.8956451416015625;-10.8863525390625;-0.2216339111328125
1445424241841;91.30230712890625;-79.3019027709961;-4.062750816345215;-2.6409454345703125;-11.043258666992188;-0.3393096923828125
1445424241874;93.6844482421875;-79.77452850341797;-4.1738505363464355;-1.8760223388671875;-12.494644165039062;-1.496490478515625
1445424241907;95.12310791015625;-80.3819351196289;-3.8285844326019287;-0.954193115234375;-11.847412109375;-1.4180450439453125
1445424241940;98.22479248046875;-83.04772186279297;-2.985826253890991;0.869842529296875;-10.6510009765625;-1.0257720947265625
1445424241972;99.13214111328125;-85.41080474853516;-2.5051381587982178;4.2825469970703125;-14.98553466796875;1.50433349609375
1445424242006;99.66400146484375;-91.24729919433594;-1.2484848499298096;3.1842041015625;-16.319244384765625;0.052947998046875
1445424242043;99.70721435546875;-96.8526840209961;0.7703148722648621;2.6546478271484375;-16.280014038085938;-1.5945587158203125
1445424242073;98.11004638671875;-99.3840560913086;2.0324432849884033;2.5761871337890625;-10.866744995117188;-0.8492584228515625
1445424242106;94.67727661132812;-104.59618377685547;3.167785167694092;1.6347503662109375;-8.82696533203125;-0.4177703857421875
1445424242140;92.3154296875;-109.57140350341797;3.27203369140625;0.34027099609375;-7.434417724609375;-0.1627960205078125
1445424242174;91.335205078125;-111.87744140625;3.167450189590454;1.47784423828125;-5.41424560546875;0.2883148193359375
1445424242205;88.860107421875;-116.27186584472656;2.258274793624878;2.2623748779296875;-4.33551025390625;0.6021270751953125
1445424242237;86.78985595703125;-118.96969604492188;0.3498274087905884;1.30133056640625;-4.1197662353515625;-0.3197021484375
1445424242270;86.55450439453125;-119.51693725585938;-0.47331702709198;0.6344757080078125;-4.2570648193359375;-1.574951171875
1445424242302;86.99365234375;-119.29368591308594;-1.3058384656906128;-0.4834747314453125;-5.47308349609375;-4.144287109375
1445424242336;87.31439208984375;-118.34251403808594;-1.2692281007766724;-1.111114501953125;-8.866195678710938;-7.4589385986328125
1445424242369;87.90298461914062;-115.5081558227539;-0.8015369176864624;-1.169952392578125;-11.043258666992188;-8.616119384765625
1445424242402;87.688232421875;-113.4498519897461;-0.18596075475215912;0.0656890869140625;-14.593276977539062;-8.714187622070312
1445424242436;87.65484619140625;-113.26576232910156;0.06862976402044296;3.0665283203125;-8.042434692382812;-8.439605712890625
1445424242467;87.60443115234375;-114.24522399902344;-0.0805518627166748;4.2825469970703125;-6.061492919921875;-5.536834716796875
1445424242501;87.4576416015625;-114.10071563720703;-0.9594132304191589;4.2041015625;-8.983871459960938;-0.4177703857421875
1445424242535;88.07192993164062;-112.22085571289062;-1.0127102136611938;3.615692138671875;-21.967864990234375;-3.0459442138671875
1445424242568;90.63458251953125;-107.56352996826172;-0.1938018500804901;2.183929443359375;-13.926422119140625;-0.88848876953125
1445424242600;93.42922973632812;-106.7851333618164;1.9452940225601196;3.1842041015625;-3.962860107421875;2.955718994140625
1445424242634;94.97137451171875;-105.13909912109375;2.3154239654541016;0.4383392333984375;-7.86590576171875;1.6220245361328125
1445424242666;99.521728515625;-100.7998046875;3.5897905826568604;-2.17022705078125;-12.553482055664062;1.32781982421875
1445424242699;101.79693603515625;-98.79920959472656;3.9743661880493164;1.105194091796875;-7.4148101806640625;0.504058837890625
1445424242732;104.7132568359375;-95.43966674804688;3.6312808990478516;0.3795013427734375;-7.9639739990234375;1.249359130859375
1445424242765;108.80972290039062;-92.27051544189453;3.345288038253784;-1.0718841552734375;-9.944915771484375;0.562896728515625
1445424242797;110.86920166015625;-90.80438232421875;3.411953926086426;-1.3856964111328125;-9.984146118164062;-0.064727783203125
1445424242831;113.8385009765625;-88.236328125;3.081596612930298;-1.5818328857421875;-9.650726318359375;-0.3981475830078125
1445424242864;116.16668701171875;-86.15870666503906;2.4827959537506104;-0.718841552734375;-9.238845825195312;-0.123565673828125
1445424242897;117.12638854980469;-85.08413696289062;1.9871981143951416;0.1833648681640625;-9.591873168945312;-0.3981475830078125
1445424242930;119.07546997070312;-83.09239959716797;0.5557197332382202;0.1441497802734375;-9.96453857421875;-0.123565673828125
1445424242963;121.48870849609375;-81.3368911743164;-1.136797308921814;-0.5619354248046875;-9.944915771484375;-0.3981475830078125
1445424242995;122.5777587890625;-80.68240356445312;-1.8535622358322144;-2.150604248046875;-10.239120483398438;0.13140869140625
1445424243029;124.58738708496094;-79.7419662475586;-2.6661293506622314;-1.797576904296875;-10.670608520507812;0.58251953125
1445424243062;126.39395141601562;-79.23212432861328;-3.6744658946990967;-1.1895599365234375;-11.965087890625;-0.88848876953125
1445424243095;127.62612915039062;-79.29345703125;-4.089435577392578;-1.09149169921875;-11.082489013671875;-0.9080963134765625
1445424243128;130.60830688476562;-79.9051742553711;-4.401273250579834;-1.4249267578125;-10.278350830078125;-0.692352294921875
1445424243161;131.99771118164062;-80.83643341064453;-4.238186359405518;0.7325439453125;-10.9451904296875;0.0921783447265625
1445424243194;133.69107055664062;-83.99522399902344;-3.1269376277923584;3.0861358642578125;-12.553482055664062;0.30792236328125
1445424243227;134.85562133789062;-88.36339569091797;-1.2911055088043213;3.380340576171875;-16.907638549804688;0.24908447265625
1445424243259;136.14279174804688;-90.65696716308594;-0.1187770888209343;2.73309326171875;-16.672286987304688;-0.6531219482421875
1445424243293;135.62384033203125;-94.8902587890625;3.7431535720825195;3.2430419921875;-15.652389526367188;-0.515838623046875
1445424243326;129.5166778564453;-99.04629516601562;6.669426441192627;3.7137603759765625;-10.278350830078125;0.2098541259765625
1445424243362;127.67630004882812;-101.2982177734375;7.5730299949646;3.498016357421875;-9.00347900390625;0.6021270751953125
1445424243392;125.45602416992188;-105.51390838623047;8.622865676879883;1.6935882568359375;-7.57171630859375;-0.2804718017578125
1445424243425;124.75102233886719;-107.75076293945312;8.85167121887207;2.0858612060546875;-5.9830322265625;-0.751190185546875
1445424243458;123.41424560546875;-111.6445083618164;7.912425994873047;2.125091552734375;-5.53192138671875;-0.4177703857421875
1445424243490;122.94241333007812;-114.24356079101562;5.422450065612793;1.4582366943359375;-4.9435272216796875;-0.2804718017578125
1445424243524;123.04025268554688;-114.97515106201172;3.910153865814209;0.04608154296875;-5.8653564453125;-2.08489990234375
1445424243557;123.92092895507812;-115.0133056640625;1.6702247858047485;-0.522705078125;-6.2772369384765625;-3.3009185791015625
1445424243590;125.19622802734375;-113.56365966796875;0.887382984161377;-1.6210479736328125;-6.689117431640625;-5.0465087890625
1445424243624;125.75814819335938;-112.45598602294922;0.8936673998832703;-1.6210479736328125;-7.042144775390625;-5.7133636474609375
1445424243657;126.49366760253906;-109.83716583251953;1.4625211954116821;-1.405303955078125;-10.474472045898438;-6.6548004150390625
1445424243690;126.511962890625;-107.4625015258789;2.31756854057312;0.1441497802734375;-16.417312622070312;-7.8315887451171875
1445424243725;126.10067749023438;-107.54627990722656;2.4728264808654785;2.5958099365234375;-7.4148101806640625;-6.9489898681640625
1445424243756;125.52536010742188;-109.39824676513672;2.0271363258361816;4.753265380859375;-6.5910491943359375;-3.1047821044921875
1445424243788;126.395751953125;-109.49960327148438;1.6307177543640137;7.5775909423828125;-16.946868896484375;2.46539306640625
1445424243825;129.17872619628906;-106.34410095214844;0.7189816236495972;0.928680419921875;-12.553482055664062;-0.88848876953125
1445424243854;131.13951110839844;-103.47398376464844;1.8773282766342163;-0.032379150390625;-6.5125885009765625;2.504608154296875
1445424243886;133.90879821777344;-102.55683898925781;2.9491846561431885;0.4971771240234375;-7.297119140625;2.46539306640625
1445424243920;137.99942016601562;-98.18228912353516;3.287572145462036;-1.0522613525390625;-11.141326904296875;2.0338897705078125
1445424243953;142.0712890625;-93.93657684326172;4.068120956420898;-1.1895599365234375;-11.259017944335938;0.4648284912109375
1445424243992;145.0518798828125;-92.04058837890625;4.567830562591553;2.49774169921875;-8.611221313476562;1.2297515869140625
1445424244019;149.8536834716797;-88.66748046875;4.528589725494385;1.0855865478515625;-9.199615478515625;2.0731201171875
1445424244052;154.4051513671875;-86.00836181640625;4.493953227996826;-1.5426025390625;-10.847137451171875;2.0338897705078125
1445424244086;156.4580535888672;-84.87281799316406;4.500924110412598;-0.3657989501953125;-9.984146118164062;1.249359130859375
1445424244118;160.12164306640625;-82.7594985961914;4.206969738006592;-0.3657989501953125;-9.984146118164062;1.4062652587890625
1445424244151;163.70748901367188;-80.90209197998047;3.2005224227905273;-0.267730712890625;-10.572540283203125;0.7394256591796875
1445424244184;165.3643798828125;-80.22555541992188;2.390557289123535;-0.1304473876953125;-10.552932739257812;0.327545166015625
1445424244217;168.3970184326172;-78.95549011230469;0.49871253967285156;-0.7580718994140625;-9.415359497070312;0.0921783447265625
1445424244250;169.86947631835938;-78.33149719238281;-0.5099725127220154;-1.974090576171875;-9.68994140625;-0.005889892578125
1445424244282;172.7608642578125;-77.28583526611328;-2.4183855056762695;-1.5426025390625;-9.68994140625;-0.123565673828125
1445424244316;175.16619873046875;-76.64000701904297;-3.4840126037597656;-1.915252685546875;-9.788009643554688;0.5236663818359375
1445424244350;176.1629180908203;-76.59293365478516;-3.887434244155884;-1.111114501953125;-11.39630126953125;-0.751190185546875
1445424244382;178.15330505371094;-76.89669036865234;-4.392171382904053;-1.03265380859375;-11.945480346679688;-0.868865966796875
1445424244415;180.38092041015625;-77.15777587890625;-4.1722540855407715;-1.09149169921875;-11.90625;0.1706390380859375
1445424244451;181.5333251953125;-77.6639633178711;-3.7746403217315674;1.1444244384765625;-11.78857421875;-0.4962158203125
1445424244481;183.3275146484375;-80.59424591064453;-2.531869411468506;3.6745452880859375;-11.768951416015625;-0.633514404296875
1445424244515;185.38824462890625;-86.6381607055664;-1.7845871448516846;4.5571441650390625;-14.769790649414062;-0.005889892578125
1445424244547;187.114501953125;-90.0249252319336;-1.2656694650650024;2.9488525390625;-15.88775634765625;0.7786407470703125
1445424244580;187.96466064453125;-95.45821380615234;1.0738896131515503;2.2231597900390625;-14.593276977539062;0.641357421875
1445424244613;183.75921630859375;-100.9914779663086;2.239924192428589;1.24249267578125;-10.866744995117188;-0.005889892578125
1445424244646;182.4298095703125;-104.24342346191406;2.237713575363159;1.2817230224609375;-9.572265625;-0.82965087890625
1445424244678;180.67755126953125;-110.27332305908203;2.209069013595581;1.8897247314453125;-7.35595703125;-1.4768829345703125
1445424244716;179.06698608398438;-115.07083129882812;1.6604477167129517;1.3993988037109375;-5.8261260986328125;-0.88848876953125
1445424244745;178.4266815185547;-117.07109069824219;0.7575457692146301;1.3797760009765625;-4.8846893310546875;-0.5550537109375
1445424244778;178.01048278808594;-119.81967163085938;-1.8618552684783936;1.0267486572265625;-4.6885528564453125;-1.5945587158203125
1445424244810;178.18824768066406;-120.21465301513672;-2.8832342624664307;0.359893798828125;-5.8849639892578125;-3.85009765625
1445424244844;178.57205200195312;-119.26854705810547;-3.8090620040893555;0.04608154296875;-5.9045867919921875;-4.5169525146484375
1445424244877;178.64137268066406;-117.036376953125;-3.912720203399658;-0.0716094970703125;-6.061492919921875;-5.3799285888671875
1445424244912;178.47323608398438;-115.62295532226562;-3.875694513320923;0.1245269775390625;-7.23828125;-6.164459228515625
1445424244943;177.11460876464844;-112.41729736328125;-3.646974563598633;-0.228515625;-12.35736083984375;-8.655349731445312
1445424244976;175.84869384765625;-111.23767852783203;-3.571263313293457;1.3797760009765625;-13.083053588867188;-9.518341064453125
1445424245013;172.21282958984375;-111.6379623413086;-4.009066581726074;2.164306640625;-7.57171630859375;-5.301483154296875
1445424245042;168.00900268554688;-112.54969787597656;-6.3260416984558105;2.419281005859375;-7.0029296875;-2.9478759765625
1445424245075;166.63723754882812;-112.34713745117188;-7.429214954376221;1.673980712890625;-10.788284301757812;-1.8495330810546875
1445424245108;167.4339599609375;-109.10797882080078;-7.422896862030029;2.164306640625;-14.573654174804688;-3.1832427978515625
1445424245140;171.87045288085938;-106.7452392578125;-5.964678764343262;0.8502197265625;-10.631378173828125;-2.2418060302734375
1445424245174;174.17323303222656;-106.2073974609375;-5.216343402862549;-0.4442596435546875;-7.9051361083984375;2.70074462890625
1445424245207;177.3545379638672;-103.04484558105469;-4.627060890197754;-1.3268585205078125;-9.101547241210938;2.7988128662109375
1445424245240;179.84681701660156;-99.62915802001953;-4.627591609954834;0.28143310546875;-9.944915771484375;0.19024658203125
1445424245273;180.4986572265625;-98.20154571533203;-4.947671890258789;-0.7384490966796875;-9.90570068359375;0.58251953125
1445424245307;180.1929931640625;-95.36577606201172;-5.337101459503174;-0.542327880859375;-9.493820190429688;0.2686920166015625
1445424245339;180.34027099609375;-94.27897644042969;-5.363885402679443;0.7521514892578125;-9.278060913085938;-0.1039581298828125
1445424245372;181.38507080078125;-92.6228256225586;-5.660066604614258;0.7913818359375;-9.45458984375;0.13140869140625
1445424245407;181.991455078125;-90.93058013916016;-6.565793991088867;-0.2481231689453125;-9.709564208984375;0.2686920166015625
1445424245438;182.01226806640625;-90.02824401855469;-6.883297920227051;0.5167999267578125;-9.297683715820312;0.0333404541015625
1445424245479;181.62518310546875;-88.07815551757812;-7.289967060089111;1.2817230224609375;-9.493820190429688;0.30792236328125
1445424245504;181.1412353515625;-85.99415588378906;-8.147735595703125;1.3993988037109375;-9.670333862304688;0.24908447265625
1445424245537;181.22265625;-85.0607681274414;-8.840178489685059;1.24249267578125;-10.494094848632812;-0.0451202392578125
1445424245569;182.38555908203125;-83.46350860595703;-10.486246109008789;0.4383392333984375;-10.572540283203125;0.01373291015625
1445424245603;183.9857177734375;-82.45771026611328;-11.740617752075195;-0.34619140625;-10.8863525390625;-0.692352294921875
1445424245636;184.6051025390625;-82.24922943115234;-12.104251861572266;-1.1895599365234375;-10.8275146484375;-0.0254974365234375
1445424245669;185.07891845703125;-82.04931640625;-12.57005500793457;-2.1898345947265625;-12.612335205078125;-0.868865966796875
1445424245702;184.5828857421875;-81.92240142822266;-12.48530101776123;-0.7972869873046875;-12.259292602539062;-0.692352294921875
1445424245736;184.178466796875;-82.07459259033203;-12.2394437789917;-0.85614013671875;-12.337738037109375;-0.2608642578125
1445424245768;182.9337158203125;-83.90426635742188;-11.112338066101074;0.3991241455078125;-12.121994018554688;0.01373291015625
1445424245800;181.1962890625;-87.91694641113281;-9.712693214416504;3.2038116455078125;-11.141326904296875;0.0333404541015625
1445424245834;180.8841552734375;-90.98983001708984;-8.83742904663086;2.929229736328125;-12.259292602539062;0.2686920166015625
1445424245866;179.51426696777344;-97.05192565917969;-6.22797155380249;1.41900634765625;-14.220611572265625;0.7786407470703125
1445424245900;176.34979248046875;-99.1458740234375;-4.854867458343506;-0.1892852783203125;-12.239669799804688;1.0924530029296875
1445424245933;168.0873260498047;-103.6741714477539;-3.124066114425659;-0.6207733154296875;-11.435531616210938;0.641357421875
1445424245966;160.7814483642578;-108.96500396728516;-1.87321937084198;-0.0519866943359375;-10.337188720703125;-0.1627960205078125
1445424245999;156.6957244873047;-111.22704315185547;-1.4236220121383667;1.0267486572265625;-8.042434692382812;0.01373291015625
1445424246032;148.55645751953125;-115.29574584960938;-1.2986164093017578;1.41900634765625;-7.610931396484375;0.2294769287109375
1445424246065;141.60220336914062;-118.26583862304688;-2.4209465980529785;2.10546875;-6.414520263671875;0.1706390380859375
1445424246098;139.1163330078125;-119.29962158203125;-3.086174488067627;2.2035369873046875;-5.9241943359375;-0.5550537109375
1445424246131;135.8277587890625;-120.2451400756836;-4.299138069152832;1.811279296875;-5.551544189453125;-1.2219085693359375
1445424246164;133.3196258544922;-119.39407348632812;-5.645106315612793;1.105194091796875;-5.1200408935546875;-2.4379425048828125
1445424246197;132.57749938964844;-118.39900970458984;-6.161616325378418;0.928680419921875;-5.3358001708984375;-3.771636962890625
1445424246230;131.66726684570312;-115.303466796875;-6.485360622406006;0.654083251953125;-8.728897094726562;-6.9097747802734375
1445424246263;131.01840209960938;-113.62765502929688;-6.175891876220703;-0.2481231689453125;-17.37835693359375;-8.674972534179688
1445424246296;129.71206665039062;-112.23638153076172;-4.865972518920898;-0.1696624755859375;-15.260116577148438;-9.341812133789062
1445424246330;127.04437255859375;-114.01747131347656;-4.752560615539551;3.439178466796875;-7.179443359375;-0.9865570068359375
1445424246364;125.98141479492188;-114.0340805053711;-5.11383056640625;3.6549224853515625;-19.77117919921875;-3.0655670166015625
1445424246395;126.6484375;-109.43375396728516;-5.395859241485596;2.635040283203125;-16.103500366210938;-4.850372314453125
1445424246428;127.06883239746094;-106.4247055053711;-4.850543975830078;2.4585113525390625;-3.1194915771484375;3.7598724365234375
1445424246461;128.3395233154297;-106.29874420166016;-4.260024547576904;1.556304931640625;-4.531646728515625;3.014556884765625
1445424246494;129.8933563232422;-102.90534973144531;-4.524383068084717;-4.44537353515625;-12.573104858398438;1.4062652587890625
1445424246527;130.33126831054688;-101.1839370727539;-4.501489639282227;0.7325439453125;-9.023101806640625;0.386383056640625
1445424246560;131.64944458007812;-98.40204620361328;-4.128675937652588;2.7723236083984375;-7.669769287109375;-0.241241455078125
1445424246592;131.29100036621094;-95.44869232177734;-4.5869598388671875;0.16375732421875;-9.611495971679688;1.0924530029296875
1445424246626;131.1853485107422;-93.99703979492188;-4.59992790222168;0.242218017578125;-9.68994140625;-0.182403564453125
1445424246659;131.30380249023438;-91.26110076904297;-4.586236000061035;0.1441497802734375;-9.376129150390625;-0.4766082763671875
1445424246692;130.97572326660156;-88.98524475097656;-4.940881729125977;-0.640380859375;-9.591873168945312;0.1510162353515625
1445424246725;130.91937255859375;-87.84518432617188;-5.087150573730469;0.16375732421875;-9.434967041015625;0.4256134033203125
1445424246758;130.5366668701172;-85.51517486572266;-5.5265302658081055;0.5756378173828125;-9.611495971679688;0.58251953125
1445424246791;131.20306396484375;-83.20951843261719;-6.831806182861328;2.2819976806640625;-10.788284301757812;0.1510162353515625
1445424246827;132.14569091796875;-82.16900634765625;-7.748677730560303;-0.660003662109375;-10.807907104492188;-0.0254974365234375
1445424246858;134.64190673828125;-80.67040252685547;-9.307522773742676;-2.1898345947265625;-10.552932739257812;-0.123565673828125
1445424246890;135.4908447265625;-80.22119140625;-9.62090015411377;-1.9936981201171875;-11.572830200195312;-0.2020263671875
1445424246926;136.1424560546875;-79.89737701416016;-9.911599159240723;-1.5818328857421875;-13.004592895507812;-1.18267822265625
1445424246956;137.0644989013672;-80.12337493896484;-9.663069725036621;-0.9345855712890625;-12.730010986328125;-1.2415313720703125
1445424246989;138.1112060546875;-81.70169067382812;-8.70582103729248;-0.091217041015625;-13.122268676757812;-1.1630706787109375
1445424247023;137.93272399902344;-83.1160659790039;-7.7374773025512695;0.301055908203125;-11.827789306640625;-0.574676513671875
1445424247056;136.6278076171875;-88.22972106933594;-5.817457675933838;2.8507843017578125;-12.141616821289062;0.896331787109375
1445424247089;136.16549682617188;-91.74825286865234;-4.927272319793701;1.8701171875;-15.5543212890625;1.4062652587890625
1445424247123;133.04580688476562;-97.065673828125;-2.407111883163452;2.2035369873046875;-15.828903198242188;-0.3197021484375
1445424247154;124.89236450195312;-101.87930297851562;0.055234041064977646;1.497467041015625;-12.906524658203125;0.562896728515625
1445424247187;121.53164672851562;-104.7083740234375;0.6172441840171814;0.301055908203125;-8.866195678710938;0.58251953125
1445424247220;116.1177978515625;-109.85723114013672;1.0231432914733887;0.3795013427734375;-7.944366455078125;0.24908447265625
1445424247253;113.715087890625;-112.45567321777344;1.0477923154830933;1.5955352783203125;-6.3360748291015625;-0.5550537109375
1445424247286;108.35723876953125;-116.86780548095703;0.3032994270324707;2.635040283203125;-4.413970947265625;1.56317138671875
1445424247319;104.25885009765625;-119.2132568359375;-1.3985859155654907;2.5369720458984375;-4.472808837890625;1.014007568359375
1445424247352;103.90911865234375;-119.55567932128906;-1.8563944101333618;1.438629150390625;-5.53192138671875;-1.574951171875
1445424247385;104.47671508789062;-118.70216369628906;-1.700620174407959;1.2032623291015625;-5.7672882080078125;-2.9478759765625
1445424247418;106.0174560546875;-115.65867614746094;-1.6087669134140015;-0.4442596435546875;-8.748504638671875;-7.4981689453125
1445424247458;106.418701171875;-113.9468765258789;-1.5292423963546753;-1.464141845703125;-14.573654174804688;-7.870819091796875
1445424247484;106.22476196289062;-111.18500518798828;-0.6405843496322632;-1.111114501953125;-14.69134521484375;-7.4393310546875
1445424247525;105.93704223632812;-111.08531951904297;0.5723247528076172;1.3405609130859375;-6.983306884765625;-6.6351776123046875
1445424247549;105.0352783203125;-112.00985717773438;0.4422711133956909;3.3999481201171875;-9.140777587890625;-0.7119598388671875
1445424247583;104.01370239257812;-111.50221252441406;-0.43762126564979553;3.69415283203125;-15.063995361328125;-0.0254974365234375
1445424247615;105.41015625;-106.7074203491211;-0.8944530487060547;2.3408355712890625;-14.98553466796875;-4.2619781494140625
1445424247649;105.68878173828125;-105.17586517333984;-0.2779470980167389;1.53668212890625;-6.473358154296875;0.9159393310546875
1445424247682;107.3046875;-104.36565399169922;1.47220778465271;0.536407470703125;-5.7672882080078125;2.504608154296875
1445424247715;108.39309692382812;-100.0770492553711;1.5180436372756958;-2.3271331787109375;-12.47503662109375;1.44549560546875
1445424247747;110.34014892578125;-98.26150512695312;1.8025537729263306;0.8894500732421875;-10.278350830078125;0.562896728515625
1445424247781;114.62057495117188;-94.91327667236328;2.4653663635253906;2.2623748779296875;-8.120880126953125;0.6021270751953125
1445424247814;117.67691040039062;-91.37615203857422;2.737546443939209;-0.4834747314453125;-9.984146118164062;1.249359130859375
1445424247847;119.41169738769531;-89.98627471923828;2.9575865268707275;-0.287353515625;-10.101821899414062;0.4648284912109375
1445424247879;123.12910461425781;-87.77323150634766;3.225287675857544;-0.228515625;-9.650726318359375;0.9747772216796875
1445424247913;124.850341796875;-86.7203598022461;3.2715816497802734;0.026458740234375;-9.160385131835938;1.0336151123046875
1445424247946;128.5771026611328;-84.65556335449219;3.2081284523010254;0.16375732421875;-9.3369140625;0.9159393310546875
1445424247979;132.56459045410156;-82.64195251464844;2.4692115783691406;0.10491943359375;-9.474197387695312;0.24908447265625
1445424248014;134.5757293701172;-81.68412780761719;1.9398094415664673;-0.7972869873046875;-10.08221435546875;0.0921783447265625
1445424248045;138.51512145996094;-79.88761901855469;0.7895333170890808;-1.7583465576171875;-10.25872802734375;0.1510162353515625
1445424248078;142.63296508789062;-78.61372375488281;-0.20327028632164001;-1.4249267578125;-10.670608520507812;0.504058837890625
1445424248111;144.46551513671875;-78.31365203857422;-0.49030935764312744;-0.7972869873046875;-11.376693725585938;0.2686920166015625
1445424248143;148.38856506347656;-78.17269134521484;-1.2814573049545288;-1.15032958984375;-12.082763671875;-0.7119598388671875
1445424248177;152.59274291992188;-78.51753234863281;-1.3678292036056519;-1.20916748046875;-12.553482055664062;-0.6531219482421875
1445424248210;154.69786071777344;-78.92700958251953;-1.176663875579834;-0.6796112060546875;-12.082763671875;-0.9669342041015625
1445424248243;158.6128387451172;-81.07594299316406;-0.554676353931427;1.2621002197265625;-11.082489013671875;-1.0257720947265625
1445424248276;160.32945251464844;-83.21186828613281;-0.4482826888561249;3.9687347412109375;-12.220062255859375;0.2686920166015625
1445424248309;163.3315887451172;-89.61917877197266;-0.462615430355072;3.7922210693359375;-14.573654174804688;1.26898193359375
1445424248342;165.03851318359375;-95.58737182617188;1.6288583278656006;1.1444244384765625;-16.69189453125;-1.457275390625
1445424248375;163.92189025878906;-97.97602844238281;2.9201242923736572;1.046356201171875;-11.592437744140625;-0.7119598388671875
1445424248408;161.5341339111328;-103.70866394042969;3.6045451164245605;0.8502197265625;-9.023101806640625;-1.0257720947265625
1445424248441;160.7607879638672;-109.19071960449219;3.2375071048736572;0.8894500732421875;-7.12060546875;-1.378814697265625
1445424248476;160.4134979248047;-111.60748291015625;3.0940964221954346;0.04608154296875;-6.473358154296875;-1.261138916015625
1445424248507;159.1175994873047;-115.61882019042969;2.3333652019500732;1.2032623291015625;-3.98248291015625;-0.1627960205078125
1445424248541;158.4387969970703;-117.08618927001953;1.4659911394119263;0.4383392333984375;-4.4924163818359375;-1.5945587158203125
1445424248573;158.65553283691406;-118.2345199584961;-0.09853748232126236;-0.01275634765625;-4.982757568359375;-2.7517547607421875
1445424248607;159.93125915527344;-116.79972076416016;-0.46363914012908936;-0.5030975341796875;-5.5123138427734375;-4.399261474609375
1445424248639;160.83811950683594;-115.58206176757812;-0.12193690240383148;-0.8169097900390625;-8.513153076171875;-6.439056396484375
1445424248672;162.8505401611328;-112.7684555053711;0.8853755593299866;-1.522979736328125;-11.553207397460938;-7.6550750732421875
1445424248707;163.57366943359375;-110.21967315673828;1.424033284187317;-0.228515625;-14.69134521484375;-9.14569091796875
1445424248739;163.2516632080078;-110.08526611328125;1.375986933708191;2.38006591796875;-8.160110473632812;-7.5766143798828125
1445424248773;162.55078125;-111.87928009033203;0.5712549090385437;3.4784088134765625;-7.610931396484375;-5.4583892822265625
1445424248807;162.9358367919922;-111.78246307373047;-0.6309933066368103;4.2825469970703125;-11.082489013671875;-1.8691558837890625
1445424248840;163.58998107910156;-110.71678924560547;-1.0940979719161987;3.046905517578125;-18.241348266601562;-3.202850341796875
1445424248870;166.38623046875;-107.51103210449219;-0.8250671625137329;1.24249267578125;-12.514266967773438;-0.9865570068359375
1445424248903;169.4922332763672;-106.88674926757812;1.9547340869903564;0.928680419921875;-2.78607177734375;1.014007568359375
1445424248937;170.06190490722656;-105.74700164794922;2.789973258972168;-0.3069610595703125;-6.179168701171875;-1.2219085693359375
1445424248969;171.269775390625;-102.77277374267578;3.5648386478424072;-1.4837646484375;-13.298797607421875;-0.82965087890625
1445424249002;174.74298095703125;-100.5941390991211;4.901246070861816;1.3209381103515625;-7.3363494873046875;-1.9279937744140625
1445424249035;175.89443969726562;-99.62767791748047;5.074586868286133;-0.58154296875;-7.1009979248046875;-0.8492584228515625
1445424249068;179.94442749023438;-96.96924591064453;5.415574073791504;-0.326568603515625;-10.5333251953125;0.7198028564453125
1445424249103;182.07745361328125;-95.02337646484375;5.362948417663574;0.6344757080078125;-9.984146118164062;0.0921783447265625
1445424249134;185.66766357421875;-91.77606964111328;5.086879730224609;0.6933135986328125;-9.12115478515625;0.24908447265625
1445424249167;190.0755615234375;-88.74730682373047;3.943732500076294;-0.4638671875;-9.395751953125;0.36676025390625
1445424249203;192.18890380859375;-87.33676147460938;2.9769508838653564;-1.522979736328125;-9.533035278320312;0.759033203125
1445424249232;195.438720703125;-84.88202667236328;1.373892068862915;-0.7972869873046875;-9.140777587890625;0.6609649658203125
1445424249266;198.19573974609375;-82.2332763671875;-0.10408274084329605;0.4579620361328125;-10.003753662109375;-0.3785400390625
1445424249302;200.06500244140625;-81.10977935791016;-1.108781337738037;0.359893798828125;-11.062881469726562;-0.6138916015625
1445424249332;203.7642822265625;-79.7589111328125;-2.9582979679107666;-1.3856964111328125;-11.121719360351562;-1.00616455078125
1445424249365;206.48095703125;-78.93281555175781;-4.289279460906982;-2.3859710693359375;-11.10211181640625;-1.771087646484375
1445424249398;207.4466552734375;-78.65701293945312;-4.877685070037842;-1.6014404296875;-11.082489013671875;-2.02606201171875
1445424249431;209.40313720703125;-78.78602600097656;-5.8586039543151855;-1.9348602294921875;-13.1614990234375;-1.4768829345703125
1445424249464;210.2152099609375;-79.27913665771484;-5.906466484069824;-1.4445343017578125;-12.35736083984375;-0.123565673828125
1445424249497;211.181884765625;-81.77320098876953;-5.152124404907227;0.1441497802734375;-11.572830200195312;-0.8492584228515625
1445424249531;211.73175048828125;-87.8737564086914;-4.057864665985107;1.615142822265625;-11.239395141601562;0.2098541259765625
1445424249563;211.72784423828125;-91.50208282470703;-3.1248810291290283;-1.0522613525390625;-18.319793701171875;-0.0843353271484375
1445424249595;208.97735595703125;-96.54432678222656;0.20431020855903625;0.7129364013671875;-15.907363891601562;0.7394256591796875
1445424249628;201.920654296875;-101.20234680175781;2.851349115371704;3.0665283203125;-9.395751953125;0.876708984375
1445424249663;199.56146240234375;-103.7336654663086;3.2407634258270264;2.9684600830078125;-7.5324859619140625;-0.3589324951171875
1445424249695;198.0565185546875;-109.24702453613281;4.282850742340088;0.7717742919921875;-6.9636993408203125;-1.9868316650390625
1445424249728;197.08856201171875;-113.38675689697266;4.964019298553467;-0.208892822265625;-4.6885528564453125;0.13140869140625
1445424249761;196.81781005859375;-114.8653793334961;4.603869915008545;-0.228515625;-3.9236297607421875;0.0333404541015625
1445424249794;197.29766845703125;-116.26686096191406;3.3881237506866455;-0.0519866943359375;-4.531646728515625;-3.026336669921875
1445424249828;197.46148681640625;-116.01912689208984;2.710693597793579;-1.8171844482421875;-5.41424560546875;-4.026611328125
1445424249860;198.62567138671875;-114.7247085571289;1.9504512548446655;-1.6210479736328125;-6.3164520263671875;-3.51666259765625
1445424249893;201.61077880859375;-111.97529602050781;2.2511610984802246;-1.6602783203125;-10.984420776367188;-3.830474853515625
1445424249927;202.928466796875;-110.23176574707031;2.5654373168945312;-1.6602783203125;-13.965652465820312;-4.6346282958984375
1445424249959;205.182373046875;-107.43961334228516;3.303854465484619;-0.7384490966796875;-12.35736083984375;-3.85009765625
1445424249991;208.44281005859375;-105.75731658935547;3.589935302734375;2.9684600830078125;-10.31756591796875;0.994384765625
1445424250026;211.4884033203125;-104.38338470458984;3.1489601135253906;4.0471954345703125;-10.847137451171875;1.50433349609375
1445424250058;217.65093994140625;-100.48825073242188;0.9699912667274475;4.2041015625;-15.299346923828125;-1.6730194091796875
1445424250091;219.55795288085938;-99.04180908203125;0.039253104478120804;3.4195709228515625;-9.434967041015625;2.504608154296875
1445424250124;225.43927001953125;-96.31816101074219;-0.3718551695346832;3.498016357421875;-10.003753662109375;2.64190673828125
1445424250158;232.54559326171875;-92.63252258300781;-1.1711704730987549;-1.228790283203125;-10.788284301757812;0.935546875
1445424250190;236.42092895507812;-91.6308822631836;-1.3722000122070312;-4.3276824951171875;-10.964813232421875;-0.064727783203125
1445424250224;243.80194091796875;-90.2635726928711;-1.6334322690963745;-4.5434417724609375;-10.8863525390625;0.111785888671875
1445424250257;248.575439453125;-88.8846206665039;-2.2636184692382812;-2.6997833251953125;-9.944915771484375;-0.4177703857421875
1445424250288;250.203369140625;-88.52429962158203;-2.7094171047210693;-0.5619354248046875;-8.983871459960938;-1.261138916015625
1445424250325;253.98355102539062;-88.2608642578125;-3.4592254161834717;-0.1304473876953125;-10.25872802734375;-0.9277191162109375
1445424250356;257.73980712890625;-88.03260803222656;-4.630274772644043;-0.601165771484375;-9.788009643554688;-0.6138916015625
1445424250390;259.22265625;-88.02251434326172;-5.343109130859375;-0.7580718994140625;-8.336624145507812;-0.4766082763671875
1445424250422;261.14697265625;-87.81744384765625;-7.074467182159424;-0.85614013671875;-9.042709350585938;-0.7315826416015625
1445424250453;261.824462890625;-87.47199249267578;-7.865167140960693;-0.0716094970703125;-9.395751953125;-0.88848876953125
1445424250487;263.22979736328125;-86.79647827148438;-9.07406997680664;0.654083251953125;-8.611221313476562;-0.3785400390625
1445424250522;264.8097839355469;-86.39264678955078;-10.516780853271484;1.47784423828125;-9.611495971679688;1.1120758056640625
1445424250553;265.44329833984375;-86.15819549560547;-11.44456672668457;0.2618255615234375;-11.533599853515625;-0.0451202392578125
1445424250586;266.62701416015625;-86.09957885742188;-13.455927848815918;-0.640380859375;-11.90625;-0.9865570068359375
1445424250618;267.4552917480469;-86.27135467529297;-14.909995079040527;-1.6014404296875;-11.631668090820312;-1.947601318359375
1445424250652;267.73681640625;-86.47760772705078;-15.3364896774292;-0.0519866943359375;-11.710113525390625;-1.75146484375
1445424250685;267.50347900390625;-87.20885467529297;-15.985820770263672;0.5560302734375;-11.592437744140625;-0.9669342041015625
1445424250718;267.4092102050781;-88.07349395751953;-16.026269912719727;1.2032623291015625;-10.5333251953125;-0.4373779296875
1445424250752;267.60003662109375;-91.2593002319336;-14.672070503234863;2.2035369873046875;-9.788009643554688;-0.5942840576171875
1445424250784;268.5919189453125;-95.50392150878906;-11.444825172424316;3.2430419921875;-11.200164794921875;-1.457275390625
1445424250817;268.50921630859375;-97.32660675048828;-9.746850967407227;3.321502685546875;-12.945755004882812;-2.37908935546875
1445424250850;267.0148010253906;-100.61275482177734;-6.372734069824219;3.1842041015625;-11.239395141601562;-0.9080963134765625
1445424250882;264.85699462890625;-102.97942352294922;-3.46797513961792;1.3797760009765625;-9.278060913085938;-1.084625244140625
1445424250915;263.5421447753906;-104.13420104980469;-2.272437810897827;-0.091217041015625;-9.925308227539062;-1.810302734375
1445424250949;259.8013000488281;-106.56745147705078;-0.11720442771911621;-0.7384490966796875;-10.042984008789062;-1.3395843505859375
1445424250982;254.07412719726562;-109.0272216796875;1.6661145687103271;0.7717742919921875;-7.7678375244140625;-0.6531219482421875
1445424251015;251.29351806640625;-110.19196319580078;2.1575827598571777;1.850494384765625;-6.8852386474609375;-1.437652587890625
1445424251048;247.18536376953125;-111.89617156982422;2.5246245861053467;1.18365478515625;-6.7871856689453125;-1.7318572998046875
1445424251081;243.66302490234375;-112.8079605102539;2.33168625831604;-0.267730712890625;-6.3949127197265625;-1.947601318359375
1445424251114;241.9324951171875;-112.91143035888672;2.065708875656128;-0.1108245849609375;-6.630279541015625;-3.1047821044921875
1445424251147;239.1817626953125;-112.08594512939453;1.4033803939819336;-0.01275634765625;-7.552093505859375;-4.458099365234375
1445424251180;238.1944580078125;-111.09109497070312;1.2383140325546265;-1.9348602294921875;-12.47503662109375;-6.1252288818359375
1445424251212;235.53933715820312;-108.75482177734375;1.0304133892059326;-2.28790283203125;-14.554046630859375;-6.3017578125
1445424251246;232.69638061523438;-109.47237396240234;0.8282541632652283;0.0853118896484375;-9.356521606445312;-7.0862884521484375
1445424251279;231.101318359375;-110.96419525146484;0.3280711770057678;-0.542327880859375;-6.9636993408203125;-1.3003692626953125
1445424251312;229.02423095703125;-111.7109603881836;-0.7243078947067261;0.301055908203125;-9.434967041015625;-0.3589324951171875
1445424251345;231.25640869140625;-107.75917053222656;-0.6038613319396973;2.8507843017578125;-18.986648559570312;-1.8691558837890625
1445424251380;232.1915283203125;-105.7077407836914;-0.46235933899879456;4.0275726318359375;-8.3758544921875;1.0924530029296875
1445424251410;233.96981811523438;-104.71979522705078;-0.31659793853759766;4.125640869140625;-5.23773193359375;2.386932373046875
1445424251444;236.7469482421875;-102.32244873046875;-1.5339772701263428;-1.9936981201171875;-10.003753662109375;1.876983642578125
1445424251477;238.78094482421875;-100.7179946899414;-1.6637792587280273;-1.20916748046875;-10.31756591796875;1.6808624267578125
1445424251509;240.60928344726562;-97.38372039794922;-1.9729111194610596;1.164031982421875;-9.199615478515625;-0.123565673828125
1445424251543;240.94357299804688;-94.91114044189453;-2.5179948806762695;1.41900634765625;-9.199615478515625;0.445220947265625
1445424251577;242.1048583984375;-93.83018493652344;-2.7048134803771973;1.3993988037109375;-9.317291259765625;1.21014404296875
1445424251609;244.8316650390625;-92.11650848388672;-3.2323989868164062;-0.032379150390625;-10.02337646484375;0.0921783447265625
1445424251642;245.98178100585938;-91.4952621459961;-3.4376983642578125;-1.228790283203125;-9.631103515625;0.386383056640625
1445424251675;247.88095092773438;-89.9842758178711;-3.6239511966705322;-0.6796112060546875;-9.493820190429688;0.386383056640625
1445424251708;249.09747314453125;-88.18165588378906;-4.287031650543213;0.242218017578125;-9.944915771484375;0.641357421875
1445424251741;249.839599609375;-87.26817321777344;-4.830543518066406;1.5759124755859375;-11.082489013671875;-0.4569854736328125
1445424251774;252.13885498046875;-85.6567153930664;-6.528665542602539;0.3206634521484375;-10.5333251953125;-0.4962158203125
1445424251810;255.26144409179688;-84.80654907226562;-7.884883880615234;-2.9547576904296875;-9.650726318359375;-0.005889892578125
1445424251842;256.2965393066406;-84.55712127685547;-8.134846687316895;-2.542877197265625;-10.8275146484375;-0.3981475830078125
1445424251874;257.2593994140625;-84.19393157958984;-8.421878814697266;-1.6406707763671875;-11.729736328125;-0.7904205322265625
1445424251909;258.42138671875;-84.18997192382812;-8.602662086486816;-1.3660736083984375;-11.376693725585938;-1.2807464599609375
1445424251939;259.2228088378906;-84.51482391357422;-8.599586486816406;-1.1895599365234375;-10.7098388671875;-1.2415313720703125
1445424251973;260.3742980957031;-86.294677734375;-7.929384231567383;0.7521514892578125;-11.357070922851562;-0.4177703857421875
1445424252009;260.6744079589844;-89.74143981933594;-6.142183303833008;2.7919464111328125;-12.102386474609375;0.19024658203125
1445424252038;261.1576843261719;-91.93084716796875;-5.019392967224121;2.811553955078125;-13.534149169921875;0.30792236328125
1445424252073;262.5003967285156;-96.61857604980469;-2.388150215148926;3.63531494140625;-15.142440795898438;-0.574676513671875
1445424252107;262.024658203125;-98.7657241821289;-1.0508630275726318;3.890289306640625;-13.691055297851562;-0.6727447509765625
1445424252138;258.78009033203125;-102.57481384277344;1.1078078746795654;2.693878173828125;-11.357070922851562;-0.2020263671875
1445424252170;256.8147277832031;-107.26803588867188;2.3692054748535156;0.5560302734375;-9.219223022460938;0.2294769287109375
1445424252203;255.68966674804688;-109.90687561035156;2.540292978286743;1.222869873046875;-6.72833251953125;-0.5550537109375
1445424252236;252.31283569335938;-113.8094711303711;2.1542439460754395;2.183929443359375;-5.29656982421875;0.07257080078125
1445424252268;250.73837280273438;-115.84469604492188;0.6821539998054504;3.0076904296875;-5.23773193359375;0.4256134033203125
1445424252303;251.1719970703125;-116.45124053955078;-0.2974577844142914;1.164031982421875;-6.1987762451171875;-1.261138916015625
1445424252334;251.69390869140625;-116.63677978515625;-2.2383973598480225;0.3206634521484375;-7.297119140625;-2.4967803955078125
1445424252367;251.556640625;-114.63005828857422;-2.756751298904419;-0.660003662109375;-8.336624145507812;-4.5757904052734375
1445424252401;252.03268432617188;-113.22425079345703;-2.268630266189575;-0.954193115234375;-8.356246948242188;-5.1445770263671875
1445424252434;252.50686645507812;-111.03907012939453;-0.9867908358573914;-0.836517333984375;-10.435256958007812;-4.222747802734375
1445424252467;252.34445190429688;-109.81204223632812;-0.4668981432914734;-0.34619140625;-13.298797607421875;-5.3995513916015625
1445424252500;251.575439453125;-108.50529479980469;0.7634294033050537;0.8502197265625;-11.984695434570312;-7.7727508544921875
1445424252533;250.5584716796875;-109.03276062011719;0.8657868504524231;2.67425537109375;-7.8462982177734375;-4.850372314453125
1445424252565;250.49517822265625;-109.65361022949219;0.18843159079551697;2.752716064453125;-10.552932739257812;-0.123565673828125
1445424252599;252.5626220703125;-108.03434753417969;-0.7712745666503906;2.811553955078125;-14.652114868164062;-0.0451202392578125
1445424252632;255.22177124023438;-103.56954193115234;-0.11164975166320801;2.3996734619140625;-13.61260986328125;-4.08544921875
1445424252665;256.8423156738281;-102.36852264404297;0.8786580562591553;1.5759124755859375;-4.3159027099609375;4.8189849853515625
1445424252698;262.1664123535156;-100.7703857421875;2.069756507873535;2.4585113525390625;-6.9636993408203125;4.6228485107421875
1445424252731;265.71453857421875;-97.65071868896484;1.6543768644332886;-1.856414794921875;-11.200164794921875;1.0924530029296875
1445424252765;268.8575744628906;-96.14261627197266;2.188183546066284;-1.03265380859375;-10.8275146484375;1.818145751953125
1445424252797;273.5736083984375;-92.78045654296875;2.86204195022583;1.36016845703125;-9.395751953125;0.2294769287109375
1445424252830;274.8674011230469;-91.39352416992188;3.036959409713745;-0.8169097900390625;-10.297958374023438;0.36676025390625
1445424252862;278.967041015625;-89.20787811279297;3.4963388442993164;-0.718841552734375;-9.96453857421875;0.327545166015625
1445424252895;283.2010498046875;-87.5948715209961;3.496922254562378;-1.228790283203125;-9.572265625;0.4059906005859375
1445424252929;284.885498046875;-86.9041519165039;3.3949098587036133;-0.895355224609375;-9.611495971679688;0.3471527099609375
1445424252962;288.16552734375;-85.51001739501953;3.2015650272369385;-0.522705078125;-9.709564208984375;0.111785888671875
1445424252995;291.2548828125;-83.97306823730469;2.610640048980713;-0.542327880859375;-9.591873168945312;0.01373291015625
1445424253030;292.6907653808594;-83.23486328125;2.0840342044830322;-1.169952392578125;-10.239120483398438;-0.1039581298828125
1445424253061;295.1914367675781;-81.88163757324219;0.9633188247680664;-1.4837646484375;-10.396026611328125;0.4256134033203125
1445424253094;297.6487731933594;-80.81644439697266;-0.05356235057115555;-1.405303955078125;-10.984420776367188;0.36676025390625
1445424253127;298.8159484863281;-80.58407592773438;-0.42619577050209045;-1.0130462646484375;-11.33746337890625;-0.1431732177734375
1445424253160;301.2320556640625;-80.70970153808594;-1.2835954427719116;-1.4249267578125;-12.121994018554688;-1.4768829345703125
1445424253192;302.5162658691406;-80.95191955566406;-1.57753586769104;-1.3856964111328125;-12.102386474609375;-1.3395843505859375
1445424253225;305.05706787109375;-81.76161193847656;-1.5729237794876099;-1.03265380859375;-12.043548583984375;-0.7904205322265625
1445424253259;307.55401611328125;-83.88157653808594;-0.9818023443222046;2.301605224609375;-11.259017944335938;-0.5942840576171875
1445424253292;309.0164794921875;-85.87848663330078;-1.004487156867981;4.380615234375;-12.259292602539062;0.1706390380859375
1445424253325;312.9635314941406;-91.84036254882812;-1.0715774297714233;2.6546478271484375;-13.61260986328125;1.308197021484375
1445424253359;314.9781188964844;-97.0524673461914;0.6286734938621521;1.3797760009765625;-14.80902099609375;-1.261138916015625
1445424253392;313.7109069824219;-99.12040710449219;1.6237157583236694;1.556304931640625;-10.631378173828125;-0.4766082763671875
1445424253424;311.42279052734375;-103.77012634277344;1.9820328950881958;1.1444244384765625;-8.846572875976562;-0.5942840576171875
1445424253457;310.7460021972656;-108.56468963623047;1.0922937393188477;0.8109893798828125;-7.74822998046875;-1.378814697265625
1445424253492;310.5499267578125;-110.7839584350586;0.7181209325790405;0.5756378173828125;-7.80706787109375;-1.2807464599609375
1445424253523;309.3905944824219;-114.52729797363281;-0.34684765338897705;1.2032623291015625;-6.5125885009765625;-0.3197021484375
1445424253556;308.01568603515625;-116.99877166748047;-2.241722583770752;1.438629150390625;-5.0808258056640625;-1.084625244140625
1445424253590;307.92303466796875;-117.54681396484375;-2.980264186859131;0.7129364013671875;-5.6299896240234375;-2.14373779296875
1445424253623;308.34393310546875;-117.01498413085938;-3.3547558784484863;-0.405029296875;-6.238006591796875;-3.57550048828125
1445424253656;308.8854675292969;-116.32862854003906;-2.9717233180999756;-0.326568603515625;-5.8261260986328125;-4.3208160400390625
1445424253689;310.2922668457031;-114.39351654052734;-1.8017901182174683;-0.228515625;-6.5125885009765625;-4.8307647705078125
1445424253723;310.41131591796875;-111.60415649414062;-1.0896174907684326;-0.895355224609375;-11.023651123046875;-7.2235870361328125
1445424253754;309.94488525390625;-110.35590362548828;-0.7462909817695618;0.3206634521484375;-15.652389526367188;-9.479110717773438
1445424253787;308.4172058105469;-110.11168670654297;-0.18168334662914276;1.53668212890625;-12.29852294921875;-9.851760864257812
1445424253820;306.315673828125;-112.08039093017578;-1.020202398300171;1.850494384765625;-6.0811004638671875;-4.340423583984375
1445424253854;305.9418640136719;-111.69866180419922;-1.470714807510376;0.928680419921875;-11.435531616210938;-1.888763427734375
1445424253891;307.34283447265625;-107.88158416748047;-1.3787777423858643;1.41900634765625;-15.652389526367188;-3.4185943603515625
1445424253919;310.3785705566406;-104.4091567993164;-0.5342002511024475;4.4198455810546875;-5.041595458984375;2.2300262451171875
1445424253952;312.2911682128906;-104.13707733154297;-0.17511266469955444;3.0076904296875;-5.551544189453125;3.328369140625
1445424253985;315.68438720703125;-101.36878204345703;-0.4483637809753418;-2.2094573974609375;-11.808181762695312;1.6220245361328125
1445424254018;317.4248962402344;-99.5143814086914;-0.5516043901443481;-0.326568603515625;-9.415359497070312;1.014007568359375
1445424254051;321.6717834472656;-96.61968231201172;0.02299724891781807;1.0071258544921875;-8.277786254882812;-0.1431732177734375
1445424254085;323.6310729980469;-93.585205078125;-0.2282467484474182;0.04608154296875;-9.434967041015625;0.58251953125
1445424254118;324.5383605957031;-92.18388366699219;-0.3435981571674347;-0.542327880859375;-10.180282592773438;-0.0254974365234375
1445424254150;326.6454162597656;-90.16803741455078;-0.39765679836273193;-0.542327880859375;-9.768402099609375;-0.4177703857421875
1445424254183;327.9578857421875;-88.9137954711914;-0.46752652525901794;-1.111114501953125;-9.140777587890625;-0.182403564453125
1445424254219;328.6126403808594;-88.3398208618164;-0.5341011881828308;-0.3657989501953125;-9.258453369140625;-0.182403564453125
1445424254249;329.8294677734375;-86.953857421875;-1.053633213043213;-0.0519866943359375;-9.395751953125;-0.064727783203125
1445424254282;331.40087890625;-85.2578353881836;-2.376847267150879;0.6344757080078125;-9.788009643554688;-0.3981475830078125
1445424254315;332.36016845703125;-84.21659851074219;-3.2248387336730957;0.5560302734375;-9.258453369140625;-0.3981475830078125
1445424254348;334.1588439941406;-82.1702651977539;-4.902079105377197;-1.9544830322265625;-10.5333251953125;-0.064727783203125
1445424254380;334.73272705078125;-81.53707122802734;-5.419605255126953;-2.1898345947265625;-12.043548583984375;-0.82965087890625
1445424254414;335.3262939453125;-81.05476379394531;-6.064183712005615;-1.9348602294921875;-12.53387451171875;-1.2415313720703125
1445424254447;335.7375793457031;-81.70487976074219;-6.1186909675598145;-2.150604248046875;-13.083053588867188;-1.5945587158203125
1445424254480;336.0164489746094;-82.4084243774414;-5.830959796905518;-0.6796112060546875;-13.004592895507812;-1.2807464599609375
1445424254512;336.46429443359375;-85.14099884033203;-4.571802616119385;1.222869873046875;-12.514266967773438;-1.261138916015625
1445424254546;337.712158203125;-90.15740203857422;-3.450923442840576;4.3021697998046875;-12.435806274414062;0.30792236328125
1445424254579;338.69451904296875;-93.17100524902344;-2.940917491912842;0.8502197265625;-14.024490356445312;-0.3197021484375
1445424254612;338.0689392089844;-98.42181396484375;-1.0716423988342285;0.2618255615234375;-14.710952758789062;-1.3592071533203125
1445424254646;336.03863525390625;-100.81488037109375;0.007586632389575243;0.7129364013671875;-11.867019653320312;-0.6531219482421875
1445424254678;331.3406066894531;-105.82827758789062;1.5073020458221436;0.477569580078125;-9.434967041015625;-0.7904205322265625
1445424254711;326.888427734375;-110.4200439453125;1.9148072004318237;0.4383392333984375;-6.61065673828125;-1.3592071533203125
1445424254744;324.89984130859375;-112.48287963867188;1.7216041088104248;0.9482879638671875;-6.3949127197265625;-0.751190185546875
1445424254777;320.996826171875;-115.40821075439453;0.5055942535400391;1.5170745849609375;-6.2183990478515625;0.24908447265625
1445424254810;318.01959228515625;-117.00498962402344;-1.480688452720642;2.38006591796875;-5.7084503173828125;-0.0843353271484375
1445424254843;317.11920166015625;-117.28406524658203;-2.26654052734375;1.3405609130859375;-6.2183990478515625;-2.4967803955078125
1445424254876;315.80133056640625;-116.51729583740234;-3.014130115509033;1.0659637451171875;-6.473358154296875;-3.45782470703125
1445424254909;314.88079833984375;-114.52230834960938;-3.099900960922241;0.8109893798828125;-7.5324859619140625;-4.8307647705078125
1445424254941;314.5765075683594;-113.38320922851562;-3.0242066383361816;0.5560302734375;-8.82696533203125;-5.55645751953125
1445424254975;313.40594482421875;-111.25910186767578;-2.914959669113159;0.1833648681640625;-10.042984008789062;-6.478271484375
1445424255008;312.04425048828125;-110.59320068359375;-3.1535842418670654;1.928955078125;-11.90625;-8.380767822265625
1445424255043;311.65496826171875;-111.08504486083984;-3.2678585052490234;3.0665283203125;-6.944091796875;-4.5757904052734375
1445424255074;311.66534423828125;-112.78861999511719;-3.560955286026001;3.046905517578125;-8.846572875976562;-1.810302734375
1445424255106;312.27099609375;-112.83393859863281;-3.6929397583007812;2.164306640625;-19.437759399414062;-3.2420806884765625
1445424255139;315.512451171875;-109.0257568359375;-2.9419655799865723;1.18365478515625;-14.789398193359375;-4.1246795654296875
1445424255174;318.33349609375;-106.57849884033203;-1.328268051147461;1.1444244384765625;-3.02142333984375;2.9949493408203125
1445424255206;320.43109130859375;-105.70134735107422;-0.8194200992584229;-0.1108245849609375;-9.650726318359375;1.1709136962890625
1445424255239;323.24462890625;-101.3651351928711;-1.2271407842636108;-1.8760223388671875;-11.78857421875;0.759033203125
1445424255277;327.43096923828125;-97.66651916503906;-1.0464277267456055;1.105194091796875;-9.591873168945312;0.0333404541015625
1445424255305;329.9998474121094;-96.0762939453125;-0.7892482280731201;1.046356201171875;-8.3758544921875;0.7198028564453125
1445424255339;332.6932678222656;-92.87032318115234;-0.8576092720031738;-0.287353515625;-9.572265625;1.2297515869140625
1445424255373;335.8587951660156;-90.34970092773438;-0.8136104345321655;-0.287353515625;-10.042984008789062;0.7198028564453125
1445424255404;337.3359375;-89.15904998779297;-0.7532857060432434;-0.150054931640625;-9.45458984375;0.876708984375
1445424255440;339.44757080078125;-86.8633041381836;-1.023074984550476;0.026458740234375;-9.513427734375;0.9159393310546875
1445424255470;341.6528015136719;-84.74830627441406;-1.6032614707946777;0.9482879638671875;-9.631103515625;0.6021270751953125
1445424255503;342.9281921386719;-83.7705078125;-2.123058557510376;0.8109893798828125;-9.709564208984375;0.5432891845703125
1445424255536;345.46722412109375;-81.9789810180664;-3.542907476425171;0.477569580078125;-9.788009643554688;0.19024658203125
1445424255569;346.58416748046875;-81.06787109375;-4.40204381942749;-0.8169097900390625;-10.670608520507812;0.4648284912109375
1445424255602;348.5350036621094;-79.28291320800781;-6.24940299987793;-1.228790283203125;-11.141326904296875;0.58251953125
1445424255635;350.3902893066406;-78.47185516357422;-7.597306728363037;-0.326568603515625;-10.984420776367188;-0.1431732177734375
1445424255668;351.3235168457031;-78.5035400390625;-8.131457328796387;-2.0721588134765625;-11.651275634765625;-1.2219085693359375
1445424255701;352.65966796875;-78.83944702148438;-8.714693069458008;-2.28790283203125;-12.47503662109375;-1.51611328125
1445424255734;353.90643310546875;-79.59829711914062;-7.954535961151123;-2.2094573974609375;-12.514266967773438;-1.2807464599609375
1445424255766;354.1216735839844;-80.61843872070312;-6.897672653198242;0.3991241455078125;-11.925857543945312;-0.5942840576171875
1445424255800;354.83477783203125;-84.4288330078125;-5.315340518951416;3.2038116455078125;-11.78857421875;-0.9277191162109375
1445424255833;355.3890380859375;-87.3279037475586;-4.895611763000488;0.8502197265625;-14.710952758789062;0.9159393310546875
1445424255866;355.9762268066406;-93.53456115722656;-3.540860414505005;0.654083251953125;-15.279739379882812;0.896331787109375
1445424255899;352.54046630859375;-98.35853576660156;-1.0956568717956543;1.3993988037109375;-14.397140502929688;0.2883148193359375
1445424255932;349.5649719238281;-100.49344635009766;-0.24248823523521423;0.04608154296875;-10.474472045898438;-0.1627960205078125
1445424255965;344.93328857421875;-105.68938446044922;0.6291405558586121;-0.267730712890625;-8.846572875976562;-0.300079345703125
1445424255998;341.2176818847656;-110.52095031738281;1.060085415840149;0.3206634521484375;-7.23828125;-0.2020263671875
1445424256031;339.08843994140625;-112.73846435546875;0.9735690951347351;1.222869873046875;-6.5910491943359375;0.7786407470703125
1445424256064;334.4530029296875;-116.48918914794922;-0.16433458030223846;1.8308868408203125;-6.1399383544921875;0.9159393310546875
1445424256097;331.5022888183594;-118.84707641601562;-1.3664320707321167;0.6344757080078125;-6.2183990478515625;-2.006439208984375
1445424256131;330.58447265625;-119.12174987792969;-1.6461021900177002;0.4971771240234375;-5.728057861328125;-3.085174560546875
1445424256164;329.0194396972656;-118.53950500488281;-2.2307987213134766;0.3991241455078125;-5.7084503173828125;-3.3205413818359375
1445424256196;327.9900817871094;-116.73770904541016;-3.041295289993286;0.5560302734375;-7.9835968017578125;-5.6349029541015625
1445424256229;327.29693603515625;-115.35279083251953;-3.211127758026123;-0.228515625;-11.023651123046875;-7.4981689453125
1445424256262;324.90216064453125;-112.63147735595703;-3.411057472229004;0.0068511962890625;-16.436920166015625;-8.498443603515625
1445424256295;323.0227966308594;-113.7170181274414;-3.1132874488830566;1.164031982421875;-5.8261260986328125;-7.5962371826171875
1445424256328;322.25103759765625;-115.0154800415039;-3.288454532623291;2.2035369873046875;-4.55126953125;-3.9677734375
1445424256361;321.98626708984375;-115.40157318115234;-4.040510654449463;2.8899993896484375;-11.51397705078125;-0.8492584228515625
1445424256393;322.9891052246094;-113.33489990234375;-3.8143441677093506;2.242767333984375;-19.947708129882812;-5.0072784423828125
1445424256426;325.1685485839844;-108.91102600097656;-2.843167304992676;2.7919464111328125;-10.494094848632812;-0.5354461669921875
1445424256460;328.4111328125;-109.04988861083984;-1.6460868120193481;2.5958099365234375;-3.7471160888671875;1.641632080078125
1445424256492;329.839111328125;-108.03826141357422;-1.4886279106140137;-4.73956298828125;-13.887191772460938;1.1512908935546875
1445424256526;332.71282958984375;-104.56880187988281;-0.06280018389225006;-2.6997833251953125;-12.102386474609375;0.5432891845703125
1445424256559;335.6085510253906;-101.89008331298828;0.899601936340332;1.791656494140625;-6.8460235595703125;-1.0453948974609375
1445424256592;336.0897216796875;-100.7642822265625;0.5120182633399963;0.4579620361328125;-7.297119140625;0.2294769287109375
1445424256627;337.97003173828125;-98.44119262695312;0.1914830058813095;-0.5030975341796875;-10.180282592773438;0.641357421875
1445424256658;339.6107482910156;-95.53160858154297;0.15625442564487457;-0.208892822265625;-9.709564208984375;0.2294769287109375
1445424256695;339.96142578125;-94.13186645507812;-0.11955827474594116;0.2618255615234375;-9.219223022460938;-0.3981475830078125
1445424256724;341.2358703613281;-91.71756744384766;-0.8218826651573181;0.16375732421875;-9.219223022460938;-0.300079345703125
1445424256757;341.9901123046875;-90.60570526123047;-1.2100775241851807;-0.0716094970703125;-10.062606811523438;0.01373291015625
1445424256792;343.63739013671875;-88.3712158203125;-2.3058061599731445;0.477569580078125;-10.239120483398438;-0.0843353271484375
1445424256823;346.2677307128906;-86.1275634765625;-3.981837272644043;0.6737060546875;-10.219512939453125;-0.5550537109375
1445424256856;347.376220703125;-85.2632064819336;-4.792529106140137;-2.6997833251953125;-10.847137451171875;0.052947998046875
1445424256890;348.38525390625;-84.28129577636719;-5.362875461578369;-3.3274078369140625;-10.6510009765625;0.1510162353515625
1445424256923;348.94744873046875;-84.05012512207031;-5.645379066467285;-2.0133209228515625;-12.02392578125;-1.084625244140625
1445424256954;349.1989440917969;-84.22135925292969;-5.662744522094727;-2.28790283203125;-12.239669799804688;-1.457275390625
1445424256987;349.8719787597656;-85.04839324951172;-5.187218189239502;-1.5033721923828125;-11.298233032226562;-1.4768829345703125
1445424257020;350.1934814453125;-87.44171142578125;-3.903911590576172;0.9678955078125;-12.494644165039062;-0.88848876953125
1445424257054;350.7076416015625;-89.48674011230469;-3.175480604171753;3.4195709228515625;-11.945480346679688;-0.4962158203125
1445424257087;353.0600280761719;-94.69390106201172;-1.5079513788223267;3.615692138671875;-13.318405151367188;0.58251953125
1445424257121;354.0492858886719;-97.42459869384766;-0.516021192073822;1.732818603515625;-14.789398193359375;-1.7906951904296875
1445424257152;352.56182861328125;-102.28329467773438;1.9087700843811035;2.242767333984375;-14.769790649414062;-0.94732666015625
1445424257186;349.0605163574219;-107.35177612304688;3.1244008541107178;0.10491943359375;-8.905410766601562;-0.515838623046875
1445424257221;347.6327209472656;-109.94971466064453;3.4821383953094482;0.6148681640625;-7.493255615234375;-1.12384033203125
1445424257252;345.0209655761719;-114.70442199707031;3.611273765563965;1.3797760009765625;-7.061767578125;-0.8492584228515625
1445424257285;341.7546691894531;-118.41337585449219;2.726208209991455;2.8311614990234375;-5.041595458984375;0.562896728515625
1445424257318;340.24652099609375;-119.65970611572266;1.8206695318222046;1.8308868408203125;-4.904296875;-0.5550537109375
1445424257350;339.30615234375;-120.83621978759766;0.38113507628440857;0.9678955078125;-5.5907745361328125;-1.9083709716796875
1445424257384;339.4327087402344;-120.3425521850586;-0.43740788102149963;-0.1304473876953125;-6.3949127197265625;-4.105072021484375
1445424257417;339.6220397949219;-119.50609588623047;-0.5707724690437317;-0.208892822265625;-6.5125885009765625;-5.1641845703125
1445424257450;339.8956604003906;-117.07261657714844;-0.31367290019989014;-0.97381591796875;-8.728897094726562;-7.10589599609375
1445424257485;339.6737365722656;-114.37198638916016;0.1993224024772644;-0.640380859375;-13.749893188476562;-7.04705810546875
1445424257516;339.9132385253906;-113.52082061767578;0.5388868451118469;1.3405609130859375;-14.554046630859375;-8.145401000976562
1445424257549;340.3936462402344;-114.13760375976562;0.9214903116226196;3.51763916015625;-7.4148101806640625;-7.360870361328125
1445424257581;340.6820983886719;-115.01322174072266;0.7096039652824402;3.75299072265625;-8.1993408203125;-1.6141815185546875
1445424257614;342.3956298828125;-114.41777801513672;0.13677893579006195;3.1449737548828125;-12.965362548828125;-0.1039581298828125
1445424257648;347.0193786621094;-109.9050064086914;1.3075017929077148;2.2819976806640625;-15.789688110351562;-2.5359954833984375
1445424257682;348.9263000488281;-108.30852508544922;2.355029582977295;2.4585113525390625;-4.0609283447265625;2.8184356689453125
1445424257714;352.815185546875;-106.7704086303711;4.06950044631958;1.6935882568359375;-6.630279541015625;2.52423095703125
1445424257747;357.10107421875;-102.46856689453125;4.918028354644775;-2.1898345947265625;-12.59271240234375;1.4258880615234375
1445424257804;4.042877197265625;-98.17147827148438;6.771698474884033;1.811279296875;-7.7874603271484375;0.8571014404296875
