sep=;
timestamp;gyro-alpha;gyro-beta;gyro-gamma;accel-x;accel-y;accel-z
1445424087962;12.430389404296875;-86.26850128173828;-4.046982765197754;8.911285400390625;-9.140777587890625;-7.125518798828125
1445424087995;18.706390380859375;-85.40479278564453;-4.829002380371094;2.0858612060546875;-16.731124877929688;1.9162139892578125
1445424088028;21.17425537109375;-86.70063781738281;-6.1013593673706055;-9.250625610351562;-22.654342651367188;-3.144012451171875
1445424088061;17.340301513671875;-88.60013580322266;-4.822145938873291;-9.427139282226562;-22.04632568359375;-4.732696533203125
1445424088094;12.356719970703125;-91.20480346679688;-2.64894437789917;-3.9942626953125;-17.574493408203125;1.641632080078125
1445424088127;12.059478759765625;-92.20637512207031;-1.3102879524230957;-0.6992340087890625;-19.339691162109375;3.9952239990234375
1445424088160;13.680419921875;-91.02098083496094;-0.1660715937614441;1.556304931640625;-15.240509033203125;-1.9868316650390625
1445424088192;11.4736328125;-89.28299713134766;-0.5065769553184509;-0.85614013671875;-10.31756591796875;-0.9080963134765625
1445424088226;8.826202392578125;-89.15507507324219;-0.5786228775978088;-2.0721588134765625;-8.218948364257812;-0.182403564453125
1445424088261;3.307098388671875;-88.79776000976562;0.06122145429253578;-1.464141845703125;-6.0026397705078125;0.4256134033203125
1445424088292;1.531280517578125;-88.6263427734375;0.501809298992157;1.36016845703125;-5.29656982421875;-0.1431732177734375
1445424088324;358.94488525390625;-88.18603515625;0.8287820219993591;1.5955352783203125;-4.8062286376953125;0.2883148193359375
1445424088358;356.1971435546875;-87.35354614257812;0.49770358204841614;1.2817230224609375;-4.55126953125;1.4258880615234375
1445424088391;354.5907287597656;-86.71289825439453;0.21297283470630646;0.7913818359375;-3.5117645263671875;1.7985382080078125
1445424088424;352.68585205078125;-84.84857940673828;-0.7490294575691223;1.0855865478515625;-3.2371673583984375;1.700469970703125
1445424088457;351.62579345703125;-82.1621322631836;-2.2818381786346436;2.5761871337890625;-5.8849639892578125;0.9747772216796875
1445424088490;349.8612365722656;-80.74752807617188;-3.1062588691711426;-0.777679443359375;-10.180282592773438;0.5236663818359375
1445424088525;346.737060546875;-78.72545623779297;-4.159256935119629;-3.8765869140625;-10.219512939453125;1.249359130859375
1445424088557;345.7519226074219;-78.62850189208984;-2.9076781272888184;0.4971771240234375;-17.692169189453125;2.2496490478515625
1445424088589;346.5839538574219;-79.15499114990234;-2.2830376625061035;3.1057586669921875;-21.850189208984375;1.3670501708984375
1445424088621;348.3934326171875;-81.06755828857422;-2.386932611465454;4.32177734375;-22.144393920898438;-1.261138916015625
1445424088656;349.6427001953125;-84.52092742919922;-3.6160829067230225;1.2032623291015625;-15.515090942382812;-0.8492584228515625
1445424088687;350.6927490234375;-87.23513793945312;-4.2174153327941895;1.5759124755859375;-14.044097900390625;-0.3589324951171875
1445424088721;353.2095031738281;-93.49603271484375;-5.47967529296875;2.7723236083984375;-12.35736083984375;-0.9080963134765625
1445424088753;354.1280517578125;-96.83460998535156;-6.247236728668213;2.811553955078125;-10.631378173828125;-1.3984375
1445424088787;355.2730407714844;-103.12657928466797;-7.811387062072754;0.869842529296875;-6.61065673828125;-1.437652587890625
1445424088820;355.27423095703125;-108.7166519165039;-7.618356704711914;-1.0718841552734375;-2.78607177734375;-0.868865966796875
1445424088852;354.4956359863281;-111.13213348388672;-7.413925647735596;-0.895355224609375;-1.2366180419921875;1.4258880615234375
1445424088886;354.2685241699219;-115.36107635498047;-7.138767719268799;-0.091217041015625;-1.2366180419921875;1.9750518798828125
1445424088918;354.83709716796875;-116.82343292236328;-7.260209083557129;2.183929443359375;-2.1584320068359375;0.58251953125
1445424088951;356.3551940917969;-119.2414779663086;-7.668394088745117;3.0076904296875;-3.158721923828125;-0.0843353271484375
1445424088985;354.1173400878906;-120.72305297851562;-9.781998634338379;3.4784088134765625;-10.415634155273438;3.8187103271484375
1445424089018;352.45806884765625;-120.95431518554688;-10.836003303527832;3.92950439453125;-15.4366455078125;-3.536285400390625
1445424089051;349.3509826660156;-121.15995788574219;-11.827958106994629;4.007965087890625;-14.98553466796875;-6.8313140869140625
1445424089084;355.01513671875;-122.46078491210938;-10.141595840454102;9.73504638671875;-16.00543212890625;-9.165298461914062
1445424089116;359.2707214355469;-121.9848861694336;-8.45447063446045;4.125640869140625;-17.417587280273438;-6.8313140869140625
1445424089150;3.31048583984375;-119.27214050292969;-7.963964939117432;3.5960845947265625;-15.691619873046875;-5.7722015380859375
1445424089183;3.670379638671875;-117.91138458251953;-8.671216011047363;2.0270233154296875;-11.317855834960938;-3.51666259765625
1445424089216;3.29534912109375;-116.05594635009766;-9.840352058410645;-0.777679443359375;-7.7678375244140625;-2.7321319580078125
1445424089249;1.723052978515625;-114.53545379638672;-9.849834442138672;-0.97381591796875;-6.1007080078125;-1.457275390625
1445424089282;1.107574462890625;-113.60143280029297;-9.70644760131836;0.418731689453125;-3.7471160888671875;1.0924530029296875
1445424089315;0.6588134765625;-111.61746978759766;-9.526341438293457;0.7717742919921875;-2.9821929931640625;2.0338897705078125
1445424089348;1.7806396484375;-109.02305603027344;-9.153051376342773;0.7325439453125;-2.021148681640625;2.779205322265625
1445424089381;359.3148498535156;-104.4940185546875;-8.842524528503418;-1.4249267578125;-3.13909912109375;1.523956298828125
1445424089413;357.4532165527344;-101.71631622314453;-8.315973281860352;-1.287628173828125;-3.6098175048828125;0.621734619140625
1445424089446;0.152801513671875;-96.6673812866211;-7.25893497467041;3.5960845947265625;-7.179443359375;-2.2418060302734375
1445424089480;5.6597900390625;-94.74411010742188;-7.290737628936768;4.635589599609375;-19.26123046875;-6.674407958984375
1445424089513;10.287261962890625;-92.71295166015625;-8.280374526977539;2.3408355712890625;-16.319244384765625;-4.222747802734375
1445424089546;14.4564208984375;-93.6967544555664;-7.782820701599121;-1.6995086669921875;-22.595504760742188;-7.811981201171875
1445424089579;15.337158203125;-95.17295837402344;-7.54359245300293;-4.425750732421875;-11.200164794921875;-0.7904205322265625
1445424089612;12.14898681640625;-97.69117736816406;-7.7569260597229;-4.44537353515625;-12.102386474609375;-0.692352294921875
1445424089645;7.389556884765625;-96.34090423583984;-7.156927108764648;-3.052825927734375;-13.573379516601562;-4.6150054931640625
1445424089677;4.919647216796875;-94.92092895507812;-6.663068771362305;-1.3072357177734375;-12.180831909179688;-6.360595703125
1445424089710;1.755767822265625;-94.50996398925781;-6.510294437408447;0.5167999267578125;-6.9636993408203125;-6.046783447265625
1445424089743;1.849761962890625;-95.09003448486328;-6.484679222106934;0.595245361328125;-5.8065185546875;-4.9876708984375
1445424089780;2.559234619140625;-97.06800842285156;-6.273447036743164;-0.3657989501953125;-5.159271240234375;-4.0462188720703125
1445424089810;2.788055419921875;-101.28755187988281;-5.940591812133789;-1.6995086669921875;-4.8062286376953125;-2.6144561767578125
1445424089843;2.394073486328125;-104.30628967285156;-5.594488620758057;0.7521514892578125;-7.257904052734375;-0.3589324951171875
1445424089875;357.74188232421875;-110.09806060791016;-6.677164077758789;1.791656494140625;-11.259017944335938;0.327545166015625
1445424089910;351.7116394042969;-115.26361846923828;-11.145671844482422;2.1446990966796875;-14.495208740234375;-0.6727447509765625
1445424089944;349.9422912597656;-118.41011047363281;-13.827041625976562;5.832000732421875;-10.101821899414062;-1.2415313720703125
1445424089975;349.9043273925781;-124.81944274902344;-18.257402420043945;7.028411865234375;-10.19989013671875;-1.378814697265625
1445424090008;349.22198486328125;-127.86589050292969;-20.86252212524414;8.499404907226562;-9.258453369140625;-4.732696533203125
1445424090042;348.33551025390625;-127.33465576171875;-20.84807014465332;8.519027709960938;-9.768402099609375;-5.4976043701171875
1445424090073;345.7103576660156;-123.5557861328125;-19.192607879638672;5.9889068603515625;-9.866470336914062;-4.4384918212890625
1445424090108;344.8092041015625;-119.20967102050781;-15.734359741210938;5.12591552734375;-10.611770629882812;-1.4768829345703125
1445424090140;345.36126708984375;-117.10761260986328;-13.464908599853516;4.0275726318359375;-11.062881469726562;0.0921783447265625
1445424090173;346.18768310546875;-111.91169738769531;-9.230856895446777;2.752716064453125;-8.022811889648438;1.21014404296875
1445424090208;343.3617248535156;-108.60665130615234;-8.334938049316406;0.9482879638671875;-4.7670135498046875;-0.3393096923828125
1445424090239;334.363525390625;-102.0324478149414;-7.274472713470459;0.4971771240234375;-2.96258544921875;0.504058837890625
1445424090271;333.5851135253906;-96.46138763427734;-6.294154644012451;1.9485626220703125;-2.4918670654296875;2.720367431640625
1445424090304;335.5496826171875;-93.73279571533203;-6.268040180206299;5.7535552978515625;-4.9435272216796875;-1.8495330810546875
1445424090337;334.0948486328125;-90.38240814208984;-7.399878025054932;2.6546478271484375;-12.886917114257812;-3.202850341796875
1445424090371;336.58990478515625;-88.6438980102539;-7.783186912536621;-4.1119384765625;-10.513702392578125;2.2888641357421875
1445424090404;339.41363525390625;-87.22429656982422;-7.440537929534912;0.3991241455078125;-12.102386474609375;1.759307861328125
1445424090437;341.5312194824219;-84.1844482421875;-6.88126802444458;11.755218505859375;-23.909591674804688;-5.026885986328125
1445424090470;346.93988037109375;-84.79156494140625;-9.835655212402344;-0.01275634765625;-14.907089233398438;4.0736846923828125
1445424090502;346.91973876953125;-85.5129165649414;-10.830649375915527;-5.1710662841796875;-12.71038818359375;5.5642852783203125
1445424090536;343.17535400390625;-83.41385650634766;-11.407914161682129;-3.48431396484375;-14.142166137695312;-1.0453948974609375
1445424090569;339.10943603515625;-81.83094787597656;-11.843594551086426;-2.8959197998046875;-13.0438232421875;-5.8310394287109375
1445424090602;337.8160400390625;-82.88282775878906;-11.608894348144531;-3.621612548828125;-10.552932739257812;-4.399261474609375
1445424090635;337.58746337890625;-87.00253295898438;-9.966480255126953;-3.2685699462890625;-7.2775115966796875;-2.7321319580078125
1445424090668;336.24786376953125;-88.73530578613281;-8.913362503051758;-2.2682952880859375;-6.66949462890625;-2.4771575927734375
1445424090701;330.6430969238281;-91.55567932128906;-7.588639736175537;-2.0721588134765625;-7.3363494873046875;-2.7125244140625
1445424090734;325.41064453125;-94.71504974365234;-7.13291597366333;-1.169952392578125;-5.728057861328125;-3.4185943603515625
1445424090766;324.8908386230469;-97.01012420654297;-6.687997817993164;5.0474700927734375;-3.9432525634765625;-4.8699798583984375
1445424090799;328.82037353515625;-103.5965576171875;-6.110533714294434;5.949676513671875;-4.3159027099609375;-5.477996826171875
1445424090832;333.14306640625;-110.99502563476562;-6.7017083168029785;4.0275726318359375;-8.670059204101562;-1.202301025390625
1445424090866;336.3885498046875;-114.27095794677734;-6.227033615112305;3.3018798828125;-12.121994018554688;0.36676025390625
1445424090898;338.6806335449219;-118.34268188476562;-6.043505668640137;2.2231597900390625;-20.4576416015625;-1.947601318359375
1445424090932;341.8424987792969;-121.1844482421875;-6.629105091094971;5.4985809326171875;-17.358749389648438;-4.281585693359375
1445424090964;343.34429931640625;-121.67700958251953;-7.49130916595459;6.6949920654296875;-17.8294677734375;-4.222747802734375
1445424090998;347.5732116699219;-122.20784759521484;-8.904797554016113;6.4988555908203125;-15.083602905273438;-3.28131103515625
1445424091031;350.1128845214844;-121.91126251220703;-9.556588172912598;5.263214111328125;-11.690505981445312;-2.08489990234375
1445424091064;353.90008544921875;-120.04560089111328;-11.292106628417969;5.00823974609375;-10.02337646484375;-1.3592071533203125
1445424091097;358.611083984375;-117.4154052734375;-11.941906929016113;3.439178466796875;-6.7871856689453125;-0.9080963134765625
1445424091130;0.77099609375;-115.6264877319336;-12.168842315673828;0.8502197265625;-4.10015869140625;-0.6727447509765625
1445424091163;3.732086181640625;-111.99991607666016;-12.608049392700195;-0.208892822265625;-2.90374755859375;-0.692352294921875
1445424091196;3.1224365234375;-107.87640380859375;-12.560461044311523;-2.1309967041015625;-2.0603790283203125;0.680572509765625
1445424091228;1.32080078125;-105.7440414428711;-12.054522514343262;-2.7782440185546875;-2.4330291748046875;1.5435638427734375
1445424091262;358.7519836425781;-101.21995544433594;-11.024991035461426;0.1441497802734375;-3.1783294677734375;2.4261627197265625
1445424091295;358.528076171875;-98.83419036865234;-11.108771324157715;7.5579681396484375;-12.063156127929688;-0.7119598388671875
1445424091328;2.201019287109375;-94.79104614257812;-11.1769380569458;9.166259765625;-19.575042724609375;-2.908660888671875
1445424091361;5.09075927734375;-92.46026611328125;-11.01952838897705;0.6344757080078125;-18.751296997070312;-3.0067291259765625
1445424091394;7.132843017578125;-92.57857513427734;-10.643664360046387;-3.3274078369140625;-19.790802001953125;-3.4185943603515625
1445424091426;4.6778564453125;-92.70133209228516;-9.317461013793945;-4.3276824951171875;-19.065109252929688;-4.222747802734375
1445424091459;1.912078857421875;-93.10174560546875;-8.462276458740234;-0.85614013671875;-14.004867553710938;-2.1633453369140625
1445424091493;1.108428955078125;-93.93994140625;-8.311660766601562;-0.97381591796875;-8.022811889648438;1.21014404296875
1445424091525;357.1822204589844;-95.32864379882812;-7.64391565322876;-1.8956451416015625;-5.4338531494140625;2.7988128662109375
1445424091558;354.2257080078125;-95.3727035522461;-6.941497325897217;-2.2682952880859375;-3.2567901611328125;3.60296630859375
1445424091596;349.1518249511719;-94.76881408691406;-4.784607887268066;-1.522979736328125;-3.6882781982421875;3.1910858154296875
1445424091625;347.2754211425781;-94.09954071044922;-2.5562996864318848;1.9093475341796875;-4.8258514404296875;1.9358367919921875
1445424091659;347.1914978027344;-93.64239501953125;-1.74075186252594;4.94940185546875;-6.8264007568359375;0.5236663818359375
1445424091703;347.0472412109375;-93.54342651367188;-0.3575388491153717;4.8513336181640625;-10.925582885742188;-2.8105926513671875
1445424091723;345.64111328125;-93.84014129638672;-0.8580029010772705;3.8510589599609375;-11.435531616210938;-0.82965087890625
1445424091756;345.8600158691406;-94.76250457763672;-1.5844515562057495;5.1651458740234375;-15.848526000976562;-12.479949951171875
1445424091792;343.33465576171875;-97.81967163085938;-4.015408515930176;-0.7384490966796875;-17.14300537109375;-4.3011932373046875
1445424091823;344.69915771484375;-102.30210876464844;-2.2443716526031494;-5.896759033203125;-15.397415161132812;-1.9279937744140625
1445424091856;345.322509765625;-103.8498764038086;-1.1385701894760132;-0.1892852783203125;-13.534149169921875;-0.3589324951171875
1445424091889;343.0916748046875;-103.29570770263672;-0.9311341047286987;-0.4638671875;-11.808181762695312;0.2098541259765625
1445424091925;344.06524658203125;-101.16742706298828;-0.4153355062007904;0.0853118896484375;-7.5324859619140625;3.3087615966796875
1445424091956;345.6686096191406;-99.71705627441406;-0.025658458471298218;-0.150054931640625;-5.6299896240234375;-0.7315826416015625
1445424091986;343.16534423828125;-95.10022735595703;-0.34434691071510315;-0.6207733154296875;-6.865631103515625;-2.6536865234375
1445424092020;337.6318054199219;-92.91287994384766;-1.079815149307251;0.10491943359375;-9.886077880859375;-6.105621337890625
1445424092054;323.66156005859375;-90.57099151611328;-4.08550500869751;-0.4442596435546875;-10.08221435546875;-7.184356689453125
1445424092086;314.6365966796875;-90.81378173828125;-6.677387714385986;-1.20916748046875;-10.454864501953125;-7.04705810546875
1445424092123;314.9183349609375;-92.54939270019531;-6.874913692474365;-0.4638671875;-6.924468994140625;-0.77081298828125
1445424092153;316.5462646484375;-98.29081726074219;-6.0029683113098145;-0.7972869873046875;-4.21783447265625;1.6024017333984375
1445424092186;311.57305908203125;-104.26702880859375;-5.883099555969238;1.8897247314453125;-3.6882781982421875;-3.0655670166015625
1445424092219;311.0001220703125;-107.87381744384766;-6.183643341064453;7.479522705078125;-16.044662475585938;-4.9288177490234375
1445424092251;316.7281799316406;-112.48413848876953;-5.972050189971924;9.107421875;-23.046600341796875;-6.3998260498046875
1445424092284;319.9467468261719;-113.88385772705078;-5.429564476013184;5.714324951171875;-17.927536010742188;-8.027725219726562
1445424092317;321.0679626464844;-115.79325103759766;-6.0556488037109375;6.400787353515625;-13.436080932617188;-6.7136383056640625
1445424092351;324.31549072265625;-117.21652221679688;-8.577657699584961;7.8717803955078125;-8.787734985351562;-4.850372314453125
1445424092384;327.96575927734375;-116.85015106201172;-11.261357307434082;3.262664794921875;-9.886077880859375;-1.9083709716796875
1445424092417;327.7220458984375;-116.31663513183594;-12.147942543029785;0.5560302734375;-10.14105224609375;-3.0655670166015625
1445424092449;327.5857849121094;-115.04938507080078;-12.997997283935547;1.2032623291015625;-6.296844482421875;-2.9871063232421875
1445424092483;330.2481384277344;-112.58602142333984;-13.764004707336426;2.125091552734375;-2.96258544921875;0.1706390380859375
1445424092516;333.17022705078125;-111.1933364868164;-13.76672649383545;2.242767333984375;-2.197662353515625;0.6609649658203125
1445424092548;340.6630554199219;-108.13455963134766;-13.277117729187012;1.046356201171875;-3.217559814453125;-0.2020263671875
1445424092581;344.22802734375;-106.71205139160156;-12.626636505126953;-0.2481231689453125;-3.4333038330078125;-1.712249755859375
1445424092615;351.6600036621094;-104.29228210449219;-10.112195014953613;-0.4638671875;-1.7857818603515625;-0.6727447509765625
1445424092648;2.73052978515625;-102.16693115234375;-7.719139575958252;1.18365478515625;-1.7857818603515625;-0.0254974365234375
1445424092680;8.321136474609375;-101.15232849121094;-7.7216315269470215;3.9098968505859375;-5.551544189453125;-4.36004638671875
1445424092713;11.169281005859375;-100.00196075439453;-7.796435832977295;-1.3072357177734375;-20.202682495117188;-7.066680908203125
1445424092747;13.618896484375;-100.74252319335938;-6.036794662475586;-5.6025543212890625;-21.144119262695312;-9.596786499023438
1445424092779;13.5823974609375;-102.02706909179688;-3.327401876449585;-5.563323974609375;-21.261795043945312;-7.988494873046875
1445424092813;8.982452392578125;-101.85674285888672;-1.6709457635879517;-3.4058685302734375;-18.613998413085938;-6.8313140869140625
1445424092844;6.921112060546875;-101.10416412353516;-1.31416654586792;1.791656494140625;-13.985260009765625;-3.45782470703125
1445424092879;6.500335693359375;-100.18833923339844;-0.1513923853635788;1.105194091796875;-11.984695434570312;-1.6533966064453125
1445424092912;8.50482177734375;-100.87715911865234;1.5321475267410278;-0.3657989501953125;-3.5117645263671875;4.3482666015625
1445424092945;9.626617431640625;-101.19918823242188;1.9732394218444824;2.8311614990234375;-2.276123046875;3.6225738525390625
1445424092977;11.0911865234375;-101.01190948486328;1.8004202842712402;3.7725982666015625;-2.276123046875;2.4261627197265625
1445424093010;11.713165283203125;-101.14814758300781;0.4306859076023102;1.9681854248046875;-2.6880035400390625;3.15185546875
1445424093044;12.598785400390625;-101.81941223144531;-0.0611075796186924;0.8109893798828125;-2.0603790283203125;3.014556884765625
1445424093077;14.866363525390625;-103.18616485595703;-0.42472168803215027;1.732818603515625;-7.4148101806640625;1.9750518798828125
1445424093110;16.114715576171875;-102.3102798461914;-1.2701687812805176;0.869842529296875;-16.24078369140625;-1.6730194091796875
1445424093147;14.860809326171875;-101.0894775390625;-1.9619935750961304;-1.974090576171875;-20.202682495117188;-4.281585693359375
1445424093175;13.17401123046875;-98.48580932617188;-2.497931480407715;0.2618255615234375;-20.359588623046875;-4.1835174560546875
1445424093210;15.35321044921875;-96.58445739746094;-2.291613817214966;4.380615234375;-17.49603271484375;-2.1633453369140625
1445424093242;16.922088623046875;-95.9786376953125;-2.44168758392334;3.321502685546875;-15.122833251953125;-0.9277191162109375
1445424093274;20.279388427734375;-95.77093505859375;-2.7033371925354004;0.5167999267578125;-10.964813232421875;1.8573760986328125
1445424093307;21.0567626953125;-95.71347045898438;-2.713183879852295;0.22259521484375;-9.493820190429688;2.661529541015625
1445424093340;20.572784423828125;-95.35128021240234;-2.6238343715667725;0.654083251953125;-8.964248657226562;2.64190673828125
1445424093373;20.038055419921875;-94.61966705322266;-2.8201701641082764;0.4971771240234375;-7.257904052734375;3.0537872314453125
1445424093407;19.95068359375;-94.33988952636719;-2.7984025478363037;0.536407470703125;-7.0813751220703125;3.8187103271484375
1445424093446;20.059844970703125;-94.02793884277344;-2.384683132171631;1.811279296875;-9.042709350585938;3.7990875244140625
1445424093472;19.607513427734375;-93.51008605957031;-3.31607985496521;2.242767333984375;-9.278060913085938;3.916778564453125
1445424093509;18.96612548828125;-93.22612762451172;-4.7093186378479;2.3408355712890625;-8.218948364257812;1.7397003173828125
1445424093541;15.25567626953125;-93.0571060180664;-7.4673171043396;3.6745452880859375;-7.2186737060546875;0.7786407470703125
1445424093574;6.389678955078125;-92.7388916015625;-10.391619682312012;1.36016845703125;-6.5125885009765625;-8.341537475585938
1445424093606;3.188262939453125;-92.52952575683594;-11.619550704956055;-0.2481231689453125;-5.8849639892578125;-10.793197631835938
1445424093640;4.05352783203125;-91.75627136230469;-12.690044403076172;1.732818603515625;-7.12060546875;-12.754531860351562
1445424093670;4.355682373046875;-91.6081314086914;-13.132645606994629;1.9485626220703125;-11.180557250976562;-14.10784912109375
1445424093703;6.0736083984375;-95.6959457397461;-13.761381149291992;1.2032623291015625;-10.7686767578125;-12.244583129882812
1445424093736;9.970947265625;-102.0352783203125;-12.530475616455078;1.2032623291015625;-7.3363494873046875;-1.8691558837890625
1445424093769;11.40185546875;-104.03693389892578;-11.996451377868652;2.0858612060546875;-11.925857543945312;-4.026611328125
1445424093802;12.529876708984375;-105.17184448242188;-11.59136962890625;4.3021697998046875;-17.633331298828125;-5.026885986328125
1445424093836;11.178070068359375;-102.88198852539062;-11.152260780334473;3.0861358642578125;-22.968154907226562;-11.185470581054688
1445424093869;11.467315673828125;-102.8033218383789;-10.815629959106445;3.890289306640625;-18.39825439453125;-12.479949951171875
1445424093902;14.201324462890625;-104.1553955078125;-10.954935073852539;3.75299072265625;-8.807342529296875;-5.536834716796875
1445424093935;15.353515625;-105.91226959228516;-11.292694091796875;1.47784423828125;-6.49298095703125;-2.7125244140625
1445424093967;15.081573486328125;-106.09676361083984;-10.557267189025879;0.0656890869140625;-7.552093505859375;-0.3589324951171875
1445424094001;20.639801025390625;-105.24117279052734;-6.801211833953857;2.5369720458984375;-1.82501220703125;1.9554443359375
1445424094033;24.1395263671875;-104.93293762207031;-6.131423473358154;4.0471954345703125;-0.4716949462890625;2.9164886474609375
1445424094066;24.4454345703125;-104.02806091308594;-7.41249942779541;0.4383392333984375;-1.3542938232421875;3.328369140625
1445424094099;23.7779541015625;-105.15812683105469;-4.980406284332275;-1.5818328857421875;-0.9620208740234375;3.6225738525390625
1445424094133;25.63970947265625;-106.40451049804688;-2.970722198486328;-1.3072357177734375;-7.4148101806640625;1.7200775146484375
1445424094166;24.06298828125;-107.41156768798828;1.549558401107788;2.2623748779296875;-16.829193115234375;6.309600830078125
1445424094199;19.6214599609375;-106.26566314697266;3.9698188304901123;-0.895355224609375;-25.380584716796875;-4.222747802734375
1445424094232;15.536895751953125;-104.18333435058594;2.7981834411621094;-0.3069610595703125;-24.027267456054688;-4.968048095703125
1445424094265;9.515106201171875;-100.23688507080078;2.64859938621521;1.3405609130859375;-21.693283081054688;-4.8307647705078125
1445424094297;12.46893310546875;-99.17124938964844;2.778122901916504;-0.4638671875;-17.515655517578125;-1.8495330810546875
1445424094331;13.097991943359375;-100.12276458740234;2.6708984375;-0.287353515625;-14.92669677734375;-0.1431732177734375
1445424094364;12.625640869140625;-103.61158752441406;2.3559508323669434;-0.777679443359375;-8.728897094726562;5.6231231689453125
1445424094396;11.581756591796875;-105.54420471191406;2.4181299209594727;-0.640380859375;-4.8846893310546875;8.62396240234375
1445424094430;9.196075439453125;-106.60550689697266;3.1130189895629883;0.7129364013671875;-4.78662109375;7.800201416015625
1445424094463;9.27691650390625;-106.54660034179688;1.8417600393295288;3.5372467041015625;-3.668670654296875;-0.82965087890625
1445424094495;6.217376708984375;-107.15137481689453;-1.1448709964752197;6.5380859375;1.1169891357421875;-7.9100494384765625
1445424094529;359.2196044921875;-108.42353057861328;-7.788125514984131;8.342498779296875;0.057861328125;-13.833267211914062
1445424094563;359.37457275390625;-112.49958801269531;-9.308135986328125;1.6543731689453125;-5.7672882080078125;-9.067230224609375
1445424094595;0.31640625;-113.7518081665039;-8.85022258758545;1.0267486572265625;-10.14105224609375;-11.224700927734375
1445424094629;359.2926330566406;-115.74983978271484;-9.778347969055176;2.066253662109375;-10.905975341796875;-12.264205932617188
1445424094661;359.0522766113281;-119.91739654541016;-10.865625381469727;3.2038116455078125;-3.98248291015625;-9.557571411132812
1445424094696;359.7637634277344;-121.62147521972656;-10.744383811950684;2.1446990966796875;-5.1396636962890625;-8.145401000976562
1445424094726;358.77130126953125;-122.28353118896484;-9.671670913696289;1.5759124755859375;-16.848800659179688;-10.0675048828125
1445424094759;357.7329406738281;-121.68254852294922;-9.596415519714355;3.7725982666015625;-17.005706787109375;-9.7144775390625
1445424094792;358.049560546875;-122.44806671142578;-10.151738166809082;4.4002227783203125;-12.435806274414062;-8.047332763671875
1445424094825;357.950439453125;-123.13117218017578;-11.529234886169434;3.69415283203125;-8.82696533203125;-5.654510498046875
1445424094859;357.65704345703125;-122.75804901123047;-12.000266075134277;1.5170745849609375;-9.748779296875;-3.595123291015625
1445424094893;1.205078125;-121.2931137084961;-9.146568298339844;1.4582366943359375;-11.631668090820312;-2.281036376953125
1445424094925;8.464599609375;-119.15292358398438;-5.508730888366699;1.18365478515625;-6.1595458984375;1.7200775146484375
1445424094958;10.157806396484375;-118.70217895507812;-4.822030067443848;-0.3657989501953125;-2.766448974609375;3.26953125
1445424094991;10.461090087890625;-118.34424591064453;-3.4076895713806152;-0.718841552734375;-2.1192169189453125;3.2499237060546875
1445424095024;8.282989501953125;-118.40767669677734;-1.15268075466156;-0.9345855712890625;-4.39434814453125;2.1907958984375
1445424095057;6.537689208984375;-118.38722229003906;-0.4582555294036865;1.6935882568359375;-12.41619873046875;-0.692352294921875
1445424095094;4.670806884765625;-118.14595031738281;-1.0671367645263672;3.2430419921875;-13.61260986328125;-0.868865966796875
1445424095123;4.1129150390625;-118.0719223022461;-3.071378707885742;4.694427490234375;-16.534988403320312;-1.829925537109375
1445424095159;2.98724365234375;-117.66974639892578;-4.022843837738037;0.9678955078125;-18.0648193359375;-4.732696533203125
1445424095197;359.8561706542969;-116.98320770263672;-4.390590190887451;-0.777679443359375;-16.456527709960938;-3.22247314453125
1445424095222;0.972320556640625;-116.49657440185547;-0.8074027895927429;-0.0519866943359375;-14.318679809570312;0.876708984375
1445424095254;1.579071044921875;-115.72191619873047;0.6869302988052368;0.987518310546875;-12.847686767578125;2.3673248291015625
1445424095287;0.807861328125;-113.42237091064453;0.5228625535964966;2.0858612060546875;-7.552093505859375;3.26953125
1445424095320;0.06719970703125;-112.44002532958984;-0.49549388885498047;1.5955352783203125;-5.551544189453125;1.7985382080078125
1445424095353;358.581787109375;-111.91523742675781;-2.809112548828125;1.5955352783203125;-5.9830322265625;-2.02606201171875
1445424095387;352.4938049316406;-113.06087493896484;-7.222646236419678;-3.170501708984375;-6.414520263671875;-5.79180908203125
1445424095422;350.31854248046875;-114.3704605102539;-8.10715103149414;-1.9544830322265625;-3.099884033203125;-2.339874267578125
1445424095452;349.257080078125;-114.48824310302734;-6.5493645668029785;-0.4834747314453125;-1.687713623046875;0.935546875
1445424095486;349.46697998046875;-113.30024719238281;-5.6470136642456055;1.24249267578125;-0.0402069091796875;1.2885894775390625
1445424095519;352.0785217285156;-108.78791046142578;-2.425107717514038;1.673980712890625;-1.9230804443359375;-4.222747802734375
1445424095551;352.2283630371094;-101.98082733154297;-0.5922552347183228;6.7342071533203125;-26.83197021484375;-13.93133544921875
1445424095584;352.2248229980469;-99.48702239990234;0.06258717179298401;4.380615234375;-14.75018310546875;-13.852874755859375
1445424095617;359.2716369628906;-100.42509460449219;1.4889076948165894;-0.777679443359375;-16.12310791015625;-10.852035522460938
1445424095650;1.0460205078125;-103.80931854248047;-0.12880709767341614;-9.544830322265625;-16.652664184570312;-4.2423553466796875
1445424095684;358.988525390625;-105.21842956542969;-0.7409908175468445;-2.22906494140625;-13.318405151367188;-1.319976806640625
1445424095716;355.93310546875;-106.37557220458984;-1.849610686302185;0.654083251953125;-12.671173095703125;-1.12384033203125
1445424095750;357.7428283691406;-105.6119384765625;-2.225926160812378;4.3413848876953125;-13.083053588867188;-1.3592071533203125
1445424095782;359.6973571777344;-104.23383331298828;-2.305743932723999;4.32177734375;-10.062606811523438;-1.00616455078125
1445424095816;6.3018798828125;-102.47358703613281;-2.8703010082244873;2.7134857177734375;-8.415084838867188;-0.515838623046875
1445424095849;12.02191162109375;-101.74246215820312;-3.723921060562134;-1.5622100830078125;-6.3949127197265625;0.111785888671875
1445424095882;13.1739501953125;-101.34790802001953;-3.787112236022949;-3.30780029296875;-5.6888275146484375;-0.5550537109375
1445424095915;15.47705078125;-100.70197296142578;-2.75655198097229;-3.033203125;-4.39434814453125;-1.712249755859375
1445424095947;16.875823974609375;-100.3497543334961;-2.434032678604126;-2.2682952880859375;-4.0020904541015625;-2.692901611328125
1445424095980;17.08685302734375;-100.68690490722656;-2.318157434463501;-1.8367919921875;-4.10015869140625;-2.908660888671875
1445424096013;16.669769287109375;-101.72889709472656;-2.0919339656829834;-1.974090576171875;-6.747955322265625;-2.8890380859375
1445424096046;15.0621337890625;-102.56034851074219;-2.6702077388763428;-3.2685699462890625;-12.730010986328125;-4.6934661865234375
1445424096080;10.004913330078125;-106.15373229980469;-4.671153545379639;-1.1895599365234375;-14.181396484375;-5.2818603515625
1445424096113;5.65704345703125;-110.91101837158203;-4.7607903480529785;2.1446990966796875;-12.612335205078125;-6.223297119140625
1445424096146;3.93841552734375;-113.03801727294922;-4.573615074157715;3.556854248046875;-10.729446411132812;-6.497894287109375
1445424096178;0.826812744140625;-115.76232147216797;-4.760836124420166;3.75299072265625;-10.7686767578125;-5.8310394287109375
1445424096211;356.8739929199219;-116.4720687866211;-5.085752487182617;2.752716064453125;-9.944915771484375;-4.6934661865234375
1445424096246;354.5712585449219;-116.34251403808594;-5.335439682006836;2.125091552734375;-8.003204345703125;-4.340423583984375
1445424096278;350.0758361816406;-115.69857788085938;-6.184625148773193;1.5759124755859375;-6.414520263671875;-4.0658416748046875
1445424096311;345.5782470703125;-114.8011474609375;-7.536828517913818;-0.3069610595703125;-5.5123138427734375;-2.1829681396484375
1445424096344;343.42803955078125;-114.22463989257812;-8.002789497375488;-0.91497802734375;-7.493255615234375;-0.574676513671875
1445424096377;338.4768981933594;-112.56922149658203;-7.247860908508301;-1.228790283203125;-7.297119140625;2.7988128662109375
1445424096410;335.9053955078125;-111.1894760131836;-6.472448348999023;-0.7384490966796875;-5.218109130859375;2.7988128662109375
1445424096443;332.22698974609375;-106.93827819824219;-4.106655120849609;0.4971771240234375;-4.27667236328125;1.7397003173828125
1445424096475;331.3465881347656;-102.89188385009766;-1.3736262321472168;0.2618255615234375;-3.6098175048828125;3.1714630126953125
1445424096508;332.0762939453125;-100.8862075805664;0.15706637501716614;6.283111572265625;-15.142440795898438;-2.3006439208984375
1445424096542;328.50909423828125;-97.49889373779297;1.6205229759216309;5.4201202392578125;-17.9471435546875;-1.8691558837890625
1445424096575;318.2961730957031;-98.08622741699219;1.0141927003860474;-3.1312713623046875;-25.106002807617188;-5.4976043701171875
1445424096608;319.73760986328125;-98.64791870117188;1.2728404998779297;-2.7586212158203125;-18.39825439453125;-1.712249755859375
1445424096641;327.42413330078125;-101.72978210449219;2.196115732192993;-2.6997833251953125;-16.534988403320312;1.2297515869140625
1445424096673;329.4720764160156;-102.9421157836914;2.2802226543426514;0.6344757080078125;-13.691055297851562;3.347991943359375
1445424096706;330.3577880859375;-102.71076965332031;1.334468126296997;1.164031982421875;-12.53387451171875;2.75958251953125
1445424096739;329.8699645996094;-101.30648803710938;0.0082961181178689;0.536407470703125;-10.14105224609375;1.32781982421875
1445424096772;329.0977783203125;-100.80738830566406;-0.9962598085403442;0.536407470703125;-6.8264007568359375;0.24908447265625
1445424096817;327.67144775390625;-101.0457763671875;-3.5485596656799316;-0.267730712890625;-4.649322509765625;0.3471527099609375
1445424096841;327.6947021484375;-102.6534423828125;-5.317425727844238;-1.5818328857421875;-4.9435272216796875;0.5236663818359375
1445424096872;326.5525207519531;-103.53671264648438;-5.4777445793151855;-2.621337890625;-8.571990966796875;-0.2608642578125
1445424096907;322.6363220214844;-106.06183624267578;-5.745924949645996;-1.09149169921875;-8.983871459960938;-1.7318572998046875
1445424096938;323.03759765625;-110.96709442138672;-8.341325759887695;4.5375213623046875;-6.37530517578125;-3.595123291015625
1445424096970;326.2696533203125;-113.50657653808594;-9.377542495727539;0.301055908203125;-5.786895751953125;-5.3995513916015625
1445424097004;328.811279296875;-118.22906494140625;-11.203970909118652;-0.85614013671875;-8.787734985351562;-8.223861694335938
1445424097038;328.0684814453125;-124.20614624023438;-15.364396095275879;2.43890380859375;-15.6131591796875;-13.205642700195312
1445424097070;329.0313720703125;-127.5255126953125;-18.034231185913086;7.0480194091796875;-12.082763671875;-10.263641357421875
1445424097102;332.0142822265625;-134.0736846923828;-22.839290618896484;5.7927703857421875;-4.21783447265625;-5.90948486328125
1445424097135;333.14239501953125;-136.46890258789062;-24.000041961669922;4.576751708984375;-4.727783203125;-7.9100494384765625
1445424097168;334.9076843261719;-138.6854705810547;-25.05521011352539;4.4786834716796875;-3.5117645263671875;-6.2036895751953125
1445424097202;336.0270690917969;-137.87689208984375;-25.416587829589844;3.0861358642578125;-1.2954559326171875;-2.02606201171875
1445424097234;336.53790283203125;-135.9378204345703;-24.656177520751953;0.7913818359375;-2.276123046875;0.052947998046875
1445424097268;336.9756774902344;-129.97711181640625;-21.588594436645508;0.10491943359375;-2.7468414306640625;0.327545166015625
1445424097301;337.039306640625;-120.88969421386719;-17.59184455871582;-1.5033721923828125;-6.2576141357421875;1.700469970703125
1445424097335;337.6695556640625;-115.54728698730469;-15.047256469726562;-1.4837646484375;-9.788009643554688;4.6228485107421875
1445424097367;343.11083984375;-105.01890563964844;-9.252638816833496;0.4383392333984375;-11.317855834960938;4.269805908203125
1445424097399;346.9800720214844;-93.87646484375;-4.731991767883301;7.45989990234375;-16.593826293945312;-3.4185943603515625
1445424097432;345.02752685546875;-89.3559341430664;-2.6008896827697754;8.283660888671875;-21.92864990234375;-9.32220458984375
1445424097465;348.99432373046875;-83.36005401611328;-1.3181426525115967;3.7725982666015625;-10.9451904296875;-1.574951171875
1445424097499;354.9755554199219;-86.65624237060547;-4.647097587585449;-7.0539398193359375;-16.986099243164062;5.2700958251953125
1445424097532;354.7486877441406;-88.50923156738281;-4.531770706176758;-4.484588623046875;-17.790237426757812;2.2888641357421875
1445424097564;354.0328063964844;-88.98592376708984;-3.7330830097198486;-2.8370819091796875;-19.045486450195312;0.5432891845703125
1445424097598;355.1772766113281;-89.19491577148438;-3.7951838970184326;-1.6602783203125;-14.671722412109375;-0.3197021484375
1445424097631;358.6978759765625;-90.09154510498047;-4.021829605102539;-2.2486724853515625;-12.53387451171875;-0.574676513671875
1445424097663;358.7056884765625;-90.98432159423828;-4.171873569488525;-3.24896240234375;-9.395751953125;-1.9083709716796875
1445424097697;357.2140808105469;-91.60530853271484;-4.186614036560059;-2.7782440185546875;-7.12060546875;-3.28131103515625
1445424097729;351.96368408203125;-93.5677261352539;-4.378725051879883;-2.0133209228515625;-6.414520263671875;-4.47772216796875
1445424097762;349.10113525390625;-94.91934204101562;-4.871896743774414;0.5756378173828125;-5.1396636962890625;-4.36004638671875
1445424097796;351.0409240722656;-99.8392562866211;-6.193090915679932;1.9093475341796875;-4.8846893310546875;-3.45782470703125
1445424097828;353.849853515625;-106.32988739013672;-6.839959144592285;0.5167999267578125;-4.904296875;-0.3785400390625
1445424097863;350.08294677734375;-108.06214141845703;-7.909640789031982;-4.5238189697265625;-14.907089233398438;-2.1829681396484375
1445424097895;343.6186828613281;-113.76600646972656;-11.150628089904785;-0.34619140625;-13.063430786132812;-4.0658416748046875
1445424097928;338.9542541503906;-120.8438720703125;-17.112991333007812;2.870391845703125;-7.257904052734375;-4.41888427734375
1445424097962;336.0660400390625;-123.27914428710938;-20.022117614746094;6.6949920654296875;-8.081649780273438;-5.2230224609375
1445424097994;333.62652587890625;-126.33392333984375;-22.86271858215332;9.401626586914062;-9.415359497070312;-3.5558929443359375
1445424098026;333.6677551269531;-126.67726135253906;-22.93670654296875;9.636978149414062;-7.5324859619140625;-4.1246795654296875
1445424098061;332.6247863769531;-125.41242218017578;-22.022499084472656;3.87066650390625;-5.100433349609375;-2.7909698486328125
1445424098092;329.68975830078125;-120.71656799316406;-19.101661682128906;3.5960845947265625;-4.3159027099609375;-2.14373779296875
1445424098126;328.4400939941406;-117.96603393554688;-17.246013641357422;2.752716064453125;-4.5708770751953125;0.1510162353515625
1445424098161;330.11456298828125;-112.30186462402344;-11.87759780883789;1.673980712890625;-10.847137451171875;3.7598724365234375
1445424098192;336.1667175292969;-105.32575988769531;-5.8942670822143555;1.1444244384765625;-13.0438232421875;2.6026763916015625
1445424098227;338.1839599609375;-97.48065948486328;-2.5622823238372803;1.53668212890625;-8.689666748046875;2.661529541015625
1445424098259;338.4101257324219;-94.09601593017578;-1.7532203197479248;2.360443115234375;-8.160110473632812;1.0336151123046875
1445424098291;341.5390930175781;-88.43827056884766;-0.9727442264556885;8.950515747070312;-11.415924072265625;-3.477447509765625
1445424098324;349.1922912597656;-84.8210678100586;-2.460007667541504;-3.2685699462890625;-12.220062255859375;2.4850006103515625
1445424098357;350.88507080078125;-85.38123321533203;-2.8892929553985596;-1.15032958984375;-20.496871948242188;-2.575225830078125
1445424098390;347.5682678222656;-85.97631072998047;-3.2190067768096924;-8.250350952148438;-14.789398193359375;0.680572509765625
1445424098425;348.8907470703125;-86.9164810180664;-2.9165430068969727;-6.642059326171875;-10.905975341796875;3.60296630859375
1445424098457;353.2669372558594;-89.30878448486328;-1.273774266242981;1.5955352783203125;-16.554595947265625;2.40655517578125
1445424098493;354.951171875;-87.81566619873047;-1.8086825609207153;1.6935882568359375;-12.9261474609375;-0.3981475830078125
1445424098521;351.902587890625;-87.68964385986328;-2.44170880317688;-2.5232696533203125;-7.4148101806640625;-0.810028076171875
1445424098555;346.5755310058594;-89.50704193115234;-2.7487587928771973;-3.111663818359375;-5.8849639892578125;-0.692352294921875
1445424098588;343.404296875;-92.28857421875;-2.288539171218872;-2.17022705078125;-5.47308349609375;-1.06500244140625
1445424098620;341.717529296875;-93.92784881591797;-2.3557724952697754;-1.2680206298828125;-5.8065185546875;-0.94732666015625
1445424098654;337.2427062988281;-97.22992706298828;-3.988802194595337;0.28143310546875;-4.904296875;-0.5550537109375
1445424098687;334.45391845703125;-98.89309692382812;-5.441102027893066;2.0858612060546875;-5.5711517333984375;-2.7909698486328125
1445424098719;329.663818359375;-102.65067291259766;-8.680030822753906;2.2035369873046875;-9.180007934570312;-3.771636962890625
1445424098753;334.0545959472656;-109.1127700805664;-9.562192916870117;3.3411102294921875;-21.281402587890625;-8.75341796875
1445424098786;333.7160949707031;-112.85630798339844;-10.95483112335205;2.8507843017578125;-17.37835693359375;-7.066680908203125
1445424098818;328.54095458984375;-122.26908111572266;-16.1051082611084;2.7919464111328125;-11.592437744140625;-3.6343536376953125
1445424098851;325.646728515625;-130.66552734375;-22.031641006469727;7.1264801025390625;-9.395751953125;-6.0271759033203125
1445424098885;325.7984619140625;-134.72799682617188;-23.63528823852539;8.381729125976562;-6.7087249755859375;-4.53656005859375
1445424098918;325.7218017578125;-140.79603576660156;-26.670921325683594;5.5770263671875;-5.4338531494140625;-3.9285430908203125
1445424098951;326.7076110839844;-144.61624145507812;-27.302017211914062;4.576751708984375;-2.6683807373046875;-3.7520294189453125
1445424098984;326.7033386230469;-145.41390991210938;-27.067068099975586;3.7333831787109375;-0.51092529296875;-2.14373779296875
1445424099016;325.3228454589844;-144.156494140625;-25.590137481689453;2.870391845703125;2.1761016845703125;0.7001953125
1445424099049;323.46246337890625;-139.23536682128906;-22.410320281982422;1.9681854248046875;1.99957275390625;-0.0451202392578125
1445424099083;322.9584655761719;-135.938720703125;-19.97564125061035;1.24249267578125;0.56781005859375;-0.3981475830078125
1445424099116;324.3738098144531;-128.995849609375;-14.045857429504395;0.4579620361328125;-1.2169952392578125;-1.771087646484375
1445424099148;325.4000549316406;-125.5566635131836;-10.964493751525879;-0.091217041015625;-1.393524169921875;-2.6144561767578125
1445424099182;326.326171875;-117.62788391113281;-6.006972312927246;-0.895355224609375;-4.1786041259765625;-2.2418060302734375
1445424099214;328.2186584472656;-108.8137435913086;-3.363603115081787;5.3416748046875;-22.909317016601562;-6.7724761962890625
1445424099248;329.5279541015625;-105.38922119140625;-3.0143232345581055;7.34222412109375;-23.988037109375;-9.067230224609375
1445424099281;333.2799072265625;-104.50762939453125;-0.9696103930473328;1.4582366943359375;-11.945480346679688;-7.8315887451171875
1445424099313;340.2497863769531;-104.80281066894531;1.9691836833953857;-5.053375244140625;-13.49493408203125;-4.4973297119140625
1445424099346;339.346435546875;-104.75530242919922;2.314382553100586;-5.24951171875;-15.10321044921875;-3.1244049072265625
1445424099380;337.3782958984375;-103.4920883178711;2.678530216217041;-2.8959197998046875;-17.241073608398438;-3.6931915283203125
1445424099413;340.0283508300781;-100.48238372802734;3.7072527408599854;0.3795013427734375;-13.0438232421875;-1.2807464599609375
1445424099446;340.5948181152344;-98.51264953613281;3.9079267978668213;-0.522705078125;-11.435531616210938;-0.5354461669921875
1445424099478;341.6675720214844;-94.21359252929688;4.069669246673584;-0.1108245849609375;-8.003204345703125;0.7982635498046875
1445424099512;342.5893249511719;-89.0921630859375;3.4906413555145264;1.732818603515625;-6.55181884765625;2.2888641357421875
1445424099544;342.59503173828125;-86.33470153808594;2.6619839668273926;2.10546875;-5.8261260986328125;2.46539306640625
1445424099578;341.9348449707031;-80.09386444091797;0.4705822765827179;-0.208892822265625;-5.041595458984375;-0.3393096923828125
1445424099611;341.4970397949219;-76.70539855957031;-0.512662947177887;-2.307525634765625;-4.8846893310546875;-3.889312744140625
1445424099644;340.05340576171875;-71.66789245605469;-1.5579429864883423;-2.91552734375;-6.061492919921875;-4.6346282958984375
1445424099676;339.2934265136719;-70.53793334960938;-1.8271009922027588;-1.6406707763671875;-6.806793212890625;0.3471527099609375
1445424099713;341.48760986328125;-70.53905487060547;-2.4868154525756836;0.3795013427734375;-6.9048614501953125;3.8775482177734375
1445424099742;344.80078125;-69.95906066894531;-4.3245625495910645;2.73309326171875;-14.789398193359375;5.407379150390625
1445424099776;343.4377136230469;-68.81404876708984;-5.45299768447876;1.8701171875;-18.810134887695312;5.7015838623046875
1445424099808;344.3103332519531;-68.89571380615234;-6.175963878631592;4.1060333251953125;-19.947708129882812;6.1526947021484375
1445424099841;346.53973388671875;-69.83623504638672;-6.7682204246521;4.6159820556640625;-15.770065307617188;4.1717529296875
1445424099874;346.76715087890625;-72.05097961425781;-6.3014373779296875;1.7132110595703125;-10.474472045898438;0.2883148193359375
1445424099908;345.3944091796875;-73.76176452636719;-5.6026930809021;1.3993988037109375;-9.258453369140625;-1.3592071533203125
1445424099943;340.4559631347656;-79.34020233154297;-4.53663444519043;2.2623748779296875;-8.846572875976562;-2.0456695556640625
1445424099973;338.7626037597656;-82.88033294677734;-4.908902645111084;1.105194091796875;-8.571990966796875;-0.241241455078125
1445424100007;337.95281982421875;-90.5751953125;-6.574475288391113;-0.032379150390625;-8.630828857421875;-0.94732666015625
1445424100041;336.10198974609375;-98.6767807006836;-8.647194862365723;1.12481689453125;-7.92474365234375;-0.810028076171875
1445424100074;336.318115234375;-103.59738159179688;-10.50174617767334;0.9090576171875;-6.8460235595703125;1.0924530029296875
1445424100109;333.5252685546875;-112.64954376220703;-16.907367706298828;-0.208892822265625;-6.5322113037109375;0.759033203125
1445424100144;333.38995361328125;-124.05974578857422;-24.038898468017578;3.1842041015625;-8.964248657226562;-4.59539794921875
1445424100173;336.0249938964844;-130.31272888183594;-26.721025466918945;4.3610076904296875;-11.592437744140625;-7.0862884521484375
1445424100205;340.33953857421875;-140.822021484375;-28.96845245361328;5.322052001953125;-11.121719360351562;-7.0862884521484375
1445424100240;342.53167724609375;-147.4368896484375;-29.160715103149414;7.45989990234375;-3.9432525634765625;-8.204238891601562
1445424100271;342.0543518066406;-148.22740173339844;-29.20756721496582;7.4402923583984375;-3.2371673583984375;-10.538223266601562
1445424100303;337.6163330078125;-145.34742736816406;-28.220186233520508;3.63531494140625;-3.276397705078125;-8.674972534179688
1445424100337;332.74554443359375;-139.25421142578125;-25.76417350769043;3.3018798828125;-0.8443450927734375;-4.458099365234375
1445424100370;331.28448486328125;-135.7763671875;-23.47469139099121;3.2822723388671875;-0.68743896484375;-3.1832427978515625
1445424100403;329.9791259765625;-127.996826171875;-16.955760955810547;2.183929443359375;-0.942413330078125;-2.0456695556640625
1445424100436;329.886962890625;-123.70631408691406;-13.339672088623047;1.811279296875;-0.6089935302734375;-1.0257720947265625
1445424100469;331.1505432128906;-114.98387145996094;-6.026457786560059;0.34027099609375;-5.23773193359375;-0.5942840576171875
1445424100501;337.4406433105469;-107.48898315429688;-0.456843763589859;6.20465087890625;-11.317855834960938;-7.5373992919921875
1445424100536;340.4855651855469;-104.82269287109375;0.2116936594247818;2.10546875;-5.8065185546875;-2.908660888671875
1445424100568;338.8758544921875;-103.65953063964844;-0.6939325928688049;-0.9345855712890625;-6.689117431640625;2.3477020263671875
1445424100601;343.6768493652344;-102.05937194824219;2.3645219802856445;-1.464141845703125;-15.88775634765625;4.6816864013671875
1445424100634;347.7694091796875;-100.46233367919922;3.7617905139923096;1.732818603515625;-15.6131591796875;5.230865478515625
1445424100666;354.70074462890625;-98.41116333007812;5.4445719718933105;0.7521514892578125;-23.791915893554688;1.4062652587890625
1445424100699;359.7917785644531;-97.57805633544922;5.753763675689697;0.7129364013671875;-16.103500366210938;4.7601470947265625
1445424100732;9.582916259765625;-96.70164489746094;5.255727291107178;-1.4445343017578125;-14.299072265625;5.3289337158203125
1445424100765;19.054840087890625;-93.5030517578125;5.248163223266602;-5.896759033203125;-17.417587280273438;2.70074462890625
1445424100800;24.277984619140625;-91.27500915527344;5.343759059906006;-4.5434417724609375;-11.631668090820312;1.8573760986328125
1445424100832;32.972564697265625;-88.90725708007812;5.45255708694458;-4.2100067138671875;-8.650436401367188;3.8187103271484375
1445424100865;40.367828369140625;-87.71155548095703;4.994839668273926;-0.660003662109375;-6.1595458984375;1.38665771484375
1445424100899;44.561920166015625;-87.1056900024414;4.38201904296875;-0.58154296875;-4.55126953125;0.6609649658203125
1445424100931;54.97320556640625;-87.19085693359375;2.996082305908203;-2.091766357421875;-2.84490966796875;1.4062652587890625
1445424100963;64.53863525390625;-88.10520935058594;1.7855006456375122;-6.3282470703125;-2.4918670654296875;4.034454345703125
1445424100996;69.83560180664062;-87.69819641113281;1.7567659616470337;-7.5442657470703125;-3.7078857421875;0.3471527099609375
1445424101029;77.55560302734375;-85.00761413574219;3.0480706691741943;-5.01416015625;-6.0026397705078125;-2.8105926513671875
1445424101062;79.11935424804688;-85.26598358154297;4.0695672035217285;-3.1508941650390625;-5.5907745361328125;-5.870269775390625
1445424101095;79.50473022460938;-87.65740966796875;6.126768589019775;-0.9345855712890625;-5.3358001708984375;-4.8699798583984375
1445424101129;89.87396240234375;-91.88023376464844;5.947731971740723;1.36016845703125;-16.633056640625;-6.6351776123046875
1445424101162;89.6158447265625;-95.03379821777344;4.814343452453613;2.183929443359375;-25.57672119140625;-3.22247314453125
1445424101194;85.69961547851562;-103.52082061767578;1.4608147144317627;5.8516082763671875;-26.988876342773438;-2.7909698486328125
1445424101228;85.45309448242188;-111.2807388305664;-1.1626378297805786;5.3416748046875;-21.418701171875;-1.437652587890625
1445424101264;83.40396118164062;-114.31974029541016;-3.4633102416992188;1.30133056640625;-17.456817626953125;-6.0663909912109375
1445424101294;84.51409912109375;-120.80834197998047;-6.447697639465332;3.0076904296875;-13.181106567382812;-5.79180908203125
1445424101326;87.23187255859375;-124.03269958496094;-9.879324913024902;0.3991241455078125;-8.670059204101562;-2.7125244140625
1445424101360;88.340576171875;-124.63299560546875;-11.14504337310791;-2.425201416015625;-8.3758544921875;-3.1047821044921875
1445424101393;90.10980224609375;-124.29331970214844;-12.792421340942383;-1.915252685546875;-2.707611083984375;-1.00616455078125
1445424101449;92.9765625;-120.22412109375;-12.548332214355469;0.7129364013671875;-0.7266693115234375;0.4059906005859375
1445424101459;92.9765625;-120.22412109375;-12.548332214355469;0.7129364013671875;-0.7266693115234375;0.4059906005859375
1445424101503;96.0257568359375;-115.58592224121094;-10.17383098602295;0.026458740234375;-1.1973876953125;0.4256134033203125
1445424101545;100.05441284179688;-110.07091522216797;-7.469106197357178;2.870391845703125;-2.531097412109375;1.308197021484375
1445424101566;102.38504028320312;-107.12602233886719;-7.010166645050049;2.7723236083984375;-2.96258544921875;0.4059906005859375
1445424101600;110.22650146484375;-103.22858428955078;-7.750969409942627;2.183929443359375;-6.8264007568359375;-1.2415313720703125
1445424101626;113.40187072753906;-102.3873519897461;-8.159615516662598;-6.7989654541015625;-18.57476806640625;2.1907958984375
1445424101668;130.12176513671875;-99.41250610351562;-2.813513994216919;-2.05255126953125;-21.693283081054688;-1.437652587890625
1445424101701;132.85133361816406;-99.68959045410156;-1.8138856887817383;-0.405029296875;-14.220611572265625;0.504058837890625
1445424101722;135.84994506835938;-101.4500732421875;-2.798295259475708;-0.287353515625;-11.729736328125;-1.4180450439453125
1445424101769;149.0430908203125;-101.2623291015625;-3.359513998031616;-9.623275756835938;-26.106277465820312;-3.6735687255859375
1445424101788;149.0430908203125;-101.2623291015625;-3.359513998031616;-6.3870849609375;-21.320632934570312;-5.55645751953125
1445424101822;148.99200439453125;-94.79031372070312;-0.10210113227367401;1.0855865478515625;-21.320632934570312;-7.125518798828125
1445424101855;147.09425354003906;-89.55437469482422;0.28354790806770325;3.81182861328125;-11.78857421875;-10.479385375976562
1445424101887;147.7337188720703;-87.57828521728516;0.41348451375961304;-1.9936981201171875;-1.8054046630859375;-7.5373992919921875
1445424101920;151.92611694335938;-90.2507553100586;0.9188903570175171;-2.6997833251953125;-0.11865234375;-5.360321044921875
1445424101954;157.65963745117188;-96.07982635498047;2.1755921840667725;-3.6412200927734375;0.11669921875;2.3084869384765625
1445424102000;164.96897888183594;-98.72721099853516;4.841135025024414;-2.17022705078125;-1.2169952392578125;0.7394256591796875
1445424102032;162.0726776123047;-101.26215362548828;7.172897815704346;1.12481689453125;-3.8255767822265625;0.3471527099609375
1445424102088;151.03697204589844;-108.95899963378906;5.8838605880737305;4.77288818359375;-11.631668090820312;-11.871932983398438
1445424102095;145.5100860595703;-114.07762908935547;3.7396345138549805;4.77288818359375;-11.631668090820312;-11.871932983398438
1445424102122;143.74676513671875;-119.8684310913086;2.0974936485290527;-0.267730712890625;-25.831695556640625;-15.951492309570312
1445424102154;140.52284240722656;-129.55641174316406;-2.472961664199829;-10.54510498046875;-30.989990234375;-9.14569091796875
1445424102188;136.53150939941406;-134.41912841796875;-8.396506309509277;6.1654205322265625;-14.573654174804688;-6.3409881591796875
1445424102221;128.4113311767578;-143.7797088623047;-18.33036231994629;5.2436065673828125;-12.318130493164062;-4.105072021484375
1445424102253;118.88665771484375;-148.62469482421875;-24.911420822143555;4.4002227783203125;-2.9233551025390625;-3.3009185791015625
1445424102286;114.6566162109375;-149.1212158203125;-27.345558166503906;5.0474700927734375;-2.648773193359375;-3.3009185791015625
1445424102320;107.3316650390625;-144.8845672607422;-30.67015266418457;2.8507843017578125;1.568084716796875;-1.00616455078125
1445424102353;103.45343017578125;-138.2965087890625;-30.513322830200195;1.0855865478515625;3.274444580078125;0.36676025390625
1445424102386;102.05767822265625;-135.23345947265625;-29.118053436279297;2.55657958984375;3.1175384521484375;1.014007568359375
1445424102418;99.4520263671875;-129.4254608154297;-24.586530685424805;4.753265380859375;0.489349365234375;3.4460601806640625
1445424102451;98.59451293945312;-126.69144439697266;-21.432870864868164;5.027862548828125;-3.7667236328125;6.937225341796875
1445424102484;98.68927001953125;-120.2483139038086;-14.562528610229492;3.75299072265625;-4.923919677734375;8.62396240234375
1445424102516;103.7523193359375;-112.9673843383789;-7.653085231781006;-0.1696624755859375;-4.15899658203125;7.5844573974609375
1445424102555;108.64614868164062;-109.5326156616211;-5.121682167053223;-0.777679443359375;-10.062606811523438;5.407379150390625
1445424102583;116.76068115234375;-103.72953796386719;-2.372105598449707;3.1449737548828125;-25.047164916992188;4.7405242919921875
1445424102616;128.10679626464844;-98.33634948730469;-0.727494478225708;-4.935699462890625;-23.12506103515625;-0.7119598388671875
1445424102649;133.55313110351562;-97.92132568359375;0.9249041080474854;-6.0928802490234375;-20.320358276367188;-7.3804931640625
1445424102682;142.9866943359375;-96.49986267089844;4.4880571365356445;-12.094558715820312;-17.37835693359375;3.95599365234375
1445424102715;151.96046447753906;-92.79539489746094;8.294157028198242;-1.6210479736328125;-16.613449096679688;0.58251953125
1445424102748;151.87677001953125;-89.68441009521484;8.033748626708984;0.6933135986328125;-17.7117919921875;-3.1047821044921875
1445424102781;149.86019897460938;-83.7649154663086;5.169607639312744;2.9096221923828125;-9.533035278320312;-6.8313140869140625
1445424102815;152.8824462890625;-81.52581024169922;4.262463092803955;-6.6028289794921875;-4.413970947265625;-9.341812133789062
1445424102847;157.3199005126953;-80.99434661865234;4.510745525360107;-6.700897216796875;-4.590484619140625;-9.027999877929688
1445424102881;160.26065063476562;-84.27265930175781;3.662175178527832;-1.3856964111328125;-5.0219879150390625;-6.615570068359375
1445424102914;161.0854949951172;-86.9621353149414;2.6895081996917725;-4.4061431884765625;-2.079986572265625;2.3477020263671875
1445424102946;163.5919189453125;-94.29449462890625;2.5781967639923096;-4.935699462890625;-1.4915924072265625;-0.1039581298828125
1445424102979;159.61083984375;-102.75291442871094;3.2471272945404053;0.3795013427734375;-13.90679931640625;-3.261688232421875
1445424103012;154.5045928955078;-108.25768280029297;0.9020729064941406;-0.522705078125;-23.870361328125;-6.6548004150390625
1445424103046;146.7937469482422;-118.6020736694336;-4.332886695861816;2.9684600830078125;-32.51982116699219;-10.0086669921875
1445424103079;137.26454162597656;-128.91921997070312;-9.131050109863281;5.4201202392578125;-18.437484741210938;-7.6158447265625
1445424103112;132.592529296875;-133.7917022705078;-12.730360984802246;4.459075927734375;-15.4366455078125;-5.8310394287109375
1445424103144;123.92022705078125;-141.68655395507812;-20.286039352416992;4.5375213623046875;-3.786346435546875;-0.77081298828125
1445424103177;120.00103759765625;-142.6106719970703;-23.11825942993164;2.929229736328125;-0.255950927734375;-0.2608642578125
1445424103211;112.88461303710938;-140.0632781982422;-25.1619930267334;2.870391845703125;1.391571044921875;0.7394256591796875
1445424103244;110.29318237304688;-135.43157958984375;-21.8441104888916;4.1648712158203125;4.1766510009765625;2.0338897705078125
1445424103279;109.96493530273438;-132.5449676513672;-19.642057418823242;3.4784088134765625;3.1763763427734375;4.3874969482421875
1445424103310;109.94793701171875;-126.72492980957031;-13.546036720275879;2.1446990966796875;1.5288543701171875;4.5836181640625
1445424103344;110.2283935546875;-119.27397155761719;-5.483302593231201;-0.7972869873046875;-3.2371673583984375;4.2501983642578125
1445424103379;111.984619140625;-114.24951934814453;-1.2188538312911987;0.04608154296875;-5.2573394775390625;1.3670501708984375
1445424103408;120.10490417480469;-104.25003814697266;3.637542963027954;0.10491943359375;-4.845458984375;0.680572509765625
1445424103442;128.40240478515625;-98.0384521484375;5.351768493652344;4.4198455810546875;-10.02337646484375;3.5048980712890625
1445424103474;131.0400848388672;-95.13629150390625;4.688659191131592;6.3027191162109375;-19.555435180664062;4.79937744140625
1445424103507;139.06298828125;-91.24297332763672;2.4969732761383057;-7.269683837890625;-34.50077819824219;-3.0655670166015625
1445424103542;146.03294372558594;-94.1980209350586;3.9200050830841064;-4.0334930419921875;-15.848526000976562;2.779205322265625
1445424103574;148.21417236328125;-94.72601318359375;4.1652512550354;-6.1125030517578125;-19.967315673828125;0.9747772216796875
1445424103607;154.55050659179688;-89.59053802490234;4.3803300857543945;-7.2304534912109375;-22.22283935546875;1.641632080078125
1445424103640;155.5489044189453;-85.28531646728516;3.905710458755493;-0.150054931640625;-20.3399658203125;-4.8111419677734375
1445424103673;155.47906494140625;-77.30565643310547;1.9802639484405518;4.2041015625;-16.495758056640625;-9.086837768554688
1445424103711;157.16909790039062;-72.71499633789062;2.027885675430298;0.4971771240234375;-4.7473907470703125;-11.695419311523438
1445424103738;157.21713256835938;-73.19611358642578;3.5510916709899902;-7.701171875;-0.2167205810546875;-12.479949951171875
1445424103771;163.10052490234375;-76.78711700439453;4.971098899841309;-7.1716156005859375;-0.5305328369140625;1.5435638427734375
1445424103804;173.6753692626953;-77.3146743774414;6.948681354522705;0.6344757080078125;1.5484771728515625;5.8977203369140625
1445424103838;173.93504333496094;-74.45389556884766;7.903304576873779;1.556304931640625;1.2150421142578125;2.975341796875
1445424103871;165.75180053710938;-70.02393341064453;10.265357971191406;2.1446990966796875;0.2736053466796875;2.5634613037109375
1445424103904;159.16152954101562;-71.53144836425781;12.73498249053955;5.1847686767578125;-1.64849853515625;2.3084869384765625
1445424103937;159.63609313964844;-70.30435943603516;12.07343578338623;4.0471954345703125;-3.3156280517578125;-0.5942840576171875
1445424103969;157.71005249023438;-68.15010833740234;10.23727798461914;-0.9934234619140625;-24.360702514648438;-0.88848876953125
1445424104002;158.58340454101562;-69.857666015625;9.028961181640625;-11.015823364257812;-36.10905456542969;-9.792922973632812
1445424104035;153.8718719482422;-81.04400634765625;11.546846389770508;-13.016372680664062;-37.48199462890625;-7.10589599609375
1445424104069;143.70053100585938;-94.45353698730469;10.777328491210938;-2.2094573974609375;-29.715133666992188;-3.4970550537109375
1445424104101;138.57594299316406;-100.62372589111328;9.655097961425781;-8.976043701171875;-18.045211791992188;1.21014404296875
1445424104134;125.95156860351562;-112.40202331542969;9.85119915008545;-8.936813354492188;-10.003753662109375;3.328369140625
1445424104168;111.16622924804688;-120.83676147460938;9.149970054626465;-3.856964111328125;-1.4915924072265625;5.03472900390625
1445424104202;103.62417602539062;-123.47652435302734;8.83582592010498;-1.8171844482421875;1.88189697265625;5.8780975341796875
1445424104234;90.96804809570312;-125.08014678955078;8.675274848937988;-3.033203125;2.6860504150390625;5.93695068359375
1445424104268;85.885498046875;-124.51350402832031;9.120676040649414;-5.5240936279296875;1.3523406982421875;9.0750732421875
1445424104299;72.17633056640625;-120.88648986816406;8.747721672058105;-4.366912841796875;-1.452362060546875;9.369277954101562
1445424104332;56.20843505859375;-112.69633483886719;7.753359794616699;1.164031982421875;-8.94464111328125;4.5640106201171875
1445424104365;51.18017578125;-107.75965118408203;6.857097625732422;6.969573974609375;-6.2183990478515625;7.4079437255859375
1445424104398;43.69305419921875;-104.41020965576172;4.743800163269043;14.324554443359375;-6.7871856689453125;4.7601470947265625
1445424104431;44.868011474609375;-102.31881713867188;-1.502219557762146;8.244430541992188;-15.809295654296875;-6.360595703125
1445424104465;40.187164306640625;-103.72396850585938;-5.338583469390869;-14.467758178710938;-22.183624267578125;-0.4569854736328125
1445424104498;35.769073486328125;-103.57807159423828;-3.408618450164795;-8.26995849609375;-24.8314208984375;1.9554443359375
1445424104530;22.803558349609375;-101.55842590332031;-1.3314056396484375;-2.091766357421875;-22.6739501953125;-0.810028076171875
1445424104564;19.855499267578125;-100.74177551269531;0.06807992607355118;5.0474700927734375;-18.260955810546875;1.0336151123046875
1445424104597;21.072540283203125;-100.04736328125;2.1106326580047607;6.714599609375;-15.6719970703125;-0.241241455078125
1445424104629;19.983795166015625;-99.0336685180664;1.8800787925720215;-0.032379150390625;-11.533599853515625;-0.5942840576171875
1445424104662;13.351470947265625;-98.60224914550781;1.3656851053237915;-2.22906494140625;-9.90570068359375;-0.182403564453125
1445424104695;8.795257568359375;-98.38692474365234;2.3548128604888916;-2.7782440185546875;-6.8264007568359375;2.0142822265625
1445424104728;6.642547607421875;-98.2024154663086;2.5644168853759766;1.5170745849609375;-5.100433349609375;1.7789306640625
1445424104762;1.21221923828125;-97.23515319824219;1.8146265745162964;2.3996734619140625;-4.21783447265625;1.465118408203125
1445424104794;354.58746337890625;-95.18972778320312;0.4692573845386505;-0.208892822265625;-3.217559814453125;2.3084869384765625
1445424104827;353.1106872558594;-93.7862777709961;-0.2103344351053238;1.30133056640625;-4.8062286376953125;0.5236663818359375
1445424104860;348.60943603515625;-90.02769470214844;-1.9135736227035522;-0.3854217529296875;-5.218109130859375;-0.4766082763671875
1445424104893;340.07373046875;-86.1132583618164;-2.9244444370269775;-1.7191162109375;-6.0026397705078125;-0.2804718017578125
1445424104926;336.9698486328125;-85.14737701416016;-3.057821750640869;-0.01275634765625;-8.591598510742188;0.562896728515625
1445424104960;334.19354248046875;-83.56339263916016;-4.003486156463623;-0.97381591796875;-14.004867553710938;1.0336151123046875
1445424104993;326.7275390625;-82.38257598876953;-3.5899369716644287;-6.877410888671875;-22.595504760742188;0.2294769287109375
1445424105025;323.2548828125;-83.51162719726562;-1.672033667564392;-1.9936981201171875;-24.733352661132812;1.2885894775390625
1445424105059;316.5642395019531;-88.9602279663086;-0.385532945394516;4.5375213623046875;-18.613998413085938;-0.88848876953125
1445424105091;311.78997802734375;-90.87367248535156;-2.27085018157959;3.5960845947265625;-17.594100952148438;0.621734619140625
1445424105126;306.39898681640625;-97.5948486328125;-6.416358947753906;0.0068511962890625;-16.633056640625;3.3087615966796875
1445424105157;298.6553649902344;-103.75857543945312;-10.493420600891113;-5.2691192626953125;-14.201004028320312;-0.9277191162109375
1445424105190;294.06732177734375;-106.1576156616211;-12.01402759552002;-4.759185791015625;-9.984146118164062;-0.2804718017578125
1445424105224;289.277587890625;-112.08207702636719;-13.605420112609863;-4.4649810791015625;-7.7874603271484375;0.8571014404296875
1445424105256;283.8891296386719;-115.00765228271484;-16.36730194091797;-2.4448089599609375;-5.17889404296875;2.58306884765625
1445424105290;281.42303466796875;-116.23641204833984;-17.999149322509766;2.183929443359375;-1.82501220703125;2.445770263671875
1445424105324;278.0634460449219;-117.6790771484375;-20.270832061767578;3.4195709228515625;-0.707061767578125;2.64190673828125
1445424105355;277.767822265625;-118.01065826416016;-20.525299072265625;2.49774169921875;-1.88385009765625;1.6024017333984375
1445424105388;278.58740234375;-118.10245513916016;-20.358169555664062;3.262664794921875;-3.5902099609375;-0.2608642578125
1445424105421;279.7896728515625;-118.59877014160156;-21.3251953125;4.576751708984375;-7.042144775390625;-1.810302734375
1445424105454;280.5769348144531;-118.82060241699219;-22.995746612548828;2.929229736328125;-2.511474609375;4.662078857421875
1445424105487;285.81842041015625;-120.2712173461914;-21.587656021118164;2.8899993896484375;-8.866195678710938;-1.947601318359375
1445424105521;293.80145263671875;-119.31566619873047;-16.89989471435547;-5.7398529052734375;-29.067886352539062;-4.9876708984375
1445424105553;297.7049560546875;-119.71128845214844;-15.179145812988281;0.026458740234375;-12.063156127929688;-0.751190185546875
1445424105586;303.849853515625;-119.20785522460938;-13.824666976928711;-1.15032958984375;-9.650726318359375;0.641357421875
1445424105619;309.13665771484375;-115.46971130371094;-13.378863334655762;-4.994537353515625;-18.0059814453125;-2.006439208984375
1445424105654;310.5778503417969;-113.06199645996094;-13.074240684509277;-4.4649810791015625;-14.69134521484375;-2.3594818115234375
1445424105686;309.509765625;-107.03258514404297;-11.618429183959961;-2.935150146484375;-12.200454711914062;-1.7906951904296875
1445424105719;307.1950988769531;-100.61223602294922;-9.317402839660645;-1.3072357177734375;-8.983871459960938;-1.3003692626953125
1445424105750;305.88946533203125;-97.17869567871094;-8.152803421020508;-0.3657989501953125;-6.2772369384765625;-0.3785400390625
1445424105784;310.97393798828125;-92.23187255859375;-5.892000198364258;2.125091552734375;-4.1197662353515625;-0.633514404296875
1445424105816;313.27984619140625;-90.72097778320312;-5.550683498382568;2.8899993896484375;-3.5509796142578125;-10.087127685546875
1445424105850;302.7564392089844;-88.66427612304688;-6.4670586585998535;0.242218017578125;-2.6095428466796875;-9.184906005859375
1445424105883;304.0919189453125;-95.68560791015625;-8.45297622680664;-1.111114501953125;-1.1581573486328125;-7.7139129638671875
1445424105917;308.93402099609375;-99.56912994384766;-8.264338493347168;-3.739288330078125;-22.477813720703125;-3.4185943603515625
1445424105949;310.44036865234375;-104.12255096435547;-7.16056489944458;-5.1318359375;-24.713729858398438;-3.653961181640625
1445424105982;304.108642578125;-107.75186920166016;-9.728275299072266;6.7342071533203125;-23.223129272460938;0.7001953125
1445424106016;303.1712951660156;-110.36564636230469;-10.85428524017334;8.98974609375;-18.202117919921875;-5.7133636474609375
1445424106048;297.212158203125;-114.07659149169922;-15.756855964660645;7.28338623046875;-17.731399536132812;-7.0862884521484375
1445424106082;294.5333557128906;-119.28539276123047;-18.948524475097656;0.5167999267578125;-13.338027954101562;-2.7517547607421875
1445424106114;295.57330322265625;-121.2154541015625;-18.565265655517578;-0.85614013671875;-12.29852294921875;-1.5357208251953125
1445424106148;291.1002502441406;-121.59483337402344;-20.624074935913086;-1.0130462646484375;-7.6501617431640625;-2.006439208984375
1445424106181;288.54046630859375;-121.96723937988281;-21.9012451171875;0.8306121826171875;-0.373626708984375;-1.5553436279296875
1445424106214;284.1114196777344;-122.07408142089844;-23.924312591552734;-0.0716094970703125;2.136871337890625;-1.084625244140625
1445424106246;277.9949035644531;-119.17361450195312;-25.16908836364746;-0.326568603515625;2.8625640869140625;-2.2418060302734375
1445424106280;274.71990966796875;-116.5564193725586;-25.683422088623047;4.0471954345703125;-2.2957305908203125;-0.3197021484375
1445424106312;270.77215576171875;-112.01264190673828;-27.577856063842773;4.576751708984375;-3.3156280517578125;5.72119140625
1445424106346;273.29962158203125;-112.12677001953125;-26.330453872680664;1.9485626220703125;-5.8849639892578125;-1.18267822265625
1445424106378;277.2308349609375;-110.70384979248047;-24.90627670288086;7.10687255859375;-23.831130981445312;0.504058837890625
1445424106412;287.93450927734375;-109.087890625;-18.852645874023438;-0.326568603515625;-24.694122314453125;0.07257080078125
1445424106445;294.2544860839844;-106.61941528320312;-13.887541770935059;-0.836517333984375;-16.534988403320312;0.58251953125
1445424106480;296.8365173339844;-105.80720520019531;-12.639156341552734;-0.836517333984375;-12.788848876953125;1.32781982421875
1445424106511;304.6471252441406;-102.89691162109375;-11.090874671936035;-1.6210479736328125;-13.710678100585938;1.2297515869140625
1445424106542;314.49908447265625;-98.52334594726562;-9.375065803527832;-7.0539398193359375;-15.122833251953125;0.0333404541015625
1445424106576;318.6120300292969;-95.86678314208984;-6.992389678955078;-5.3671875;-12.082763671875;1.1709136962890625
1445424106610;325.1501770019531;-91.61901092529297;-3.1326472759246826;-0.5030975341796875;-5.6299896240234375;2.9361114501953125
1445424106642;330.1459655761719;-89.3967514038086;-2.984117269515991;3.0861358642578125;-7.0225372314453125;-1.829925537109375
1445424106675;337.56329345703125;-85.87303161621094;-5.451667308807373;0.0656890869140625;-8.356246948242188;-3.0655670166015625
1445424106708;334.52557373046875;-84.52672576904297;-5.276370048522949;-9.603668212890625;-5.29656982421875;-8.498443603515625
1445424106742;336.1714782714844;-85.14482116699219;-4.4849419593811035;-5.2887420654296875;-6.3360748291015625;-3.771636962890625
1445424106781;335.8072814941406;-85.67998504638672;-3.499424934387207;-2.856689453125;-7.8462982177734375;-6.7724761962890625
1445424106807;326.17242431640625;-87.10863494873047;-2.9234673976898193;-1.738739013671875;-10.376419067382812;-7.3804931640625
1445424106841;322.23651123046875;-89.62532806396484;-3.279683828353882;-3.7196807861328125;-21.085281372070312;-2.5556182861328125
1445424106874;321.964599609375;-98.22466278076172;-3.3590779304504395;0.536407470703125;-25.988601684570312;2.092742919921875
1445424106907;323.66510009765625;-106.81646728515625;-3.0549206733703613;9.85272216796875;-23.380035400390625;1.4258880615234375
1445424106942;319.70892333984375;-109.06774139404297;-4.871312618255615;3.7922210693359375;-20.4576416015625;-5.1837921142578125
1445424106974;310.489501953125;-114.42935943603516;-10.003762245178223;-2.22906494140625;-14.573654174804688;-1.9868316650390625
1445424107006;309.03350830078125;-118.0719985961914;-10.643038749694824;0.0068511962890625;-6.7675628662109375;1.523956298828125
1445424107040;306.1607666015625;-120.50725555419922;-13.095731735229492;1.438629150390625;-3.099884033203125;1.0924530029296875
1445424107073;302.2893981933594;-120.83211517333984;-16.731260299682617;1.7132110595703125;0.077484130859375;-0.2020263671875
1445424107107;301.8364562988281;-120.57382202148438;-17.250877380371094;1.8897247314453125;-0.079437255859375;-1.75146484375
1445424107137;302.1699523925781;-120.47647094726562;-17.235130310058594;0.242218017578125;-0.5893707275390625;-2.02606201171875
1445424107171;296.9422912597656;-118.79203796386719;-19.14756202697754;-6.642059326171875;-1.060089111328125;-0.2216339111328125
1445424107203;293.0190124511719;-116.99284362792969;-20.212739944458008;-2.307525634765625;-0.5893707275390625;3.2499237060546875
1445424107236;291.5946350097656;-114.78784942626953;-18.837953567504883;2.301605224609375;-2.78607177734375;0.6021270751953125
1445424107270;292.5171203613281;-111.38435363769531;-17.88378143310547;7.597198486328125;-20.90875244140625;5.3877716064453125
1445424107306;295.7559814453125;-110.9111557006836;-17.11371612548828;1.9681854248046875;-17.790237426757812;4.662078857421875
1445424107336;306.1256103515625;-111.0743408203125;-13.186673164367676;-2.2682952880859375;-20.79107666015625;0.641357421875
1445424107370;311.500732421875;-111.87992095947266;-11.780350685119629;-5.87713623046875;-20.928375244140625;-4.1246795654296875
1445424107400;316.78350830078125;-113.81816864013672;-10.499112129211426;-6.6028289794921875;-18.712066650390625;-5.3995513916015625
1445424107435;317.455810546875;-114.5562973022461;-10.135444641113281;-4.700347900390625;-13.004592895507812;-5.1837921142578125
1445424107467;317.3701171875;-115.01077270507812;-10.058938980102539;-1.09149169921875;-10.494094848632812;-6.8313140869140625
1445424107501;317.6161804199219;-117.23798370361328;-8.706650733947754;0.22259521484375;-7.9051361083984375;-6.0271759033203125
1445424107534;321.2654724121094;-121.92242431640625;-3.366966724395752;2.066253662109375;-2.6880035400390625;-4.2031402587890625
1445424107566;321.6031494140625;-123.6390380859375;-0.494286447763443;-1.0522613525390625;-0.707061767578125;-3.477447509765625
1445424107599;317.3577880859375;-126.29077911376953;2.914517879486084;-0.522705078125;1.2542724609375;-2.6144561767578125
1445424107632;315.8056640625;-129.50779724121094;4.275309085845947;3.2822723388671875;-2.7468414306640625;-3.1244049072265625
1445424107666;315.7803039550781;-131.2998504638672;4.537537574768066;3.6745452880859375;-6.2576141357421875;-3.4185943603515625
1445424107698;316.77655029296875;-134.66213989257812;5.296504974365234;3.5960845947265625;-12.47503662109375;-4.9484405517578125
1445424107732;317.2467041015625;-137.5015106201172;6.2526044845581055;4.1060333251953125;-12.494644165039062;-7.184356689453125
1445424107765;317.5623474121094;-138.21676635742188;6.431985378265381;3.046905517578125;-13.141891479492188;-8.086563110351562
1445424107798;318.7607727050781;-138.34657287597656;5.311596870422363;1.47784423828125;-14.554046630859375;-9.8321533203125
1445424107830;319.2647399902344;-137.94027709960938;4.112589359283447;3.262664794921875;-14.318679809570312;-8.674972534179688
1445424107864;319.9393310546875;-135.8953857421875;1.1699637174606323;4.007965087890625;-13.141891479492188;-7.6746826171875
1445424107896;320.7436828613281;-132.56561279296875;-1.5002167224884033;3.3411102294921875;-10.003753662109375;-5.4387664794921875
1445424107930;321.3695373535156;-130.4364776611328;-2.529240369796753;2.61541748046875;-9.101547241210938;-3.477447509765625
1445424107962;322.29608154296875;-125.31117248535156;-4.118968963623047;2.183929443359375;-8.925033569335938;-3.3009185791015625
1445424107996;321.7306823730469;-119.4728012084961;-5.278520584106445;0.654083251953125;-6.7871856689453125;-2.9282684326171875
1445424108028;321.9304504394531;-116.27694702148438;-5.689313888549805;0.7129364013671875;-4.8062286376953125;-2.4771575927734375
1445424108061;321.4374694824219;-109.04712677001953;-7.119756698608398;-1.1307220458984375;-0.765899658203125;-2.7125244140625
1445424108095;317.59283447265625;-101.10932922363281;-7.7785325050354;-10.878524780273438;-6.5125885009765625;-3.0067291259765625
1445424108127;316.393310546875;-97.48896026611328;-6.511311054229736;-10.956985473632812;-11.023651123046875;-1.888763427734375
1445424108160;314.11480712890625;-91.67091369628906;-4.163475513458252;-2.11138916015625;-14.181396484375;-0.9669342041015625
1445424108193;313.16748046875;-90.17271423339844;-4.227055549621582;-0.0716094970703125;-18.888580322265625;0.5236663818359375
1445424108227;312.9275207519531;-89.30186462402344;-5.488825798034668;-1.111114501953125;-19.006271362304688;0.052947998046875
1445424108260;312.88714599609375;-90.36331939697266;-5.519935607910156;-3.4647064208984375;-14.044097900390625;-0.633514404296875
1445424108293;312.7825012207031;-90.96640014648438;-5.557387828826904;-2.6409454345703125;-10.8275146484375;-0.2804718017578125
1445424108344;315.11871337890625;-93.22999572753906;-6.117877960205078;-0.9345855712890625;-9.258453369140625;-2.006439208984375
1445424108360;315.1571044921875;-94.1150894165039;-6.076200008392334;-1.0130462646484375;-8.101272583007812;-2.6536865234375
1445424108398;315.0636901855469;-95.65235137939453;-5.450937271118164;-0.208892822265625;-6.5714263916015625;-1.9083709716796875
1445424108425;316.0543212890625;-96.27608489990234;-5.050574779510498;-0.4834747314453125;-6.49298095703125;-3.026336669921875
1445424108457;316.0732421875;-96.26248931884766;-4.882585525512695;-2.0721588134765625;-6.7675628662109375;-3.026336669921875
1445424108490;312.5417785644531;-96.44735717773438;-4.562340259552002;-1.6602783203125;-6.4537506103515625;-3.39898681640625
1445424108526;309.32012939453125;-98.09275817871094;-4.065951824188232;-0.34619140625;-4.3747406005859375;-3.6735687255859375
1445424108557;309.55767822265625;-100.81104278564453;-3.140963554382324;1.8897247314453125;-4.4924163818359375;-3.1832427978515625
1445424108590;310.3200378417969;-102.50745391845703;-2.2106270790100098;1.5955352783203125;-5.041595458984375;-1.4180450439453125
1445424108623;312.0023498535156;-106.08023834228516;1.2444695234298706;0.2029876708984375;-11.847412109375;-0.0254974365234375
1445424108656;312.9668273925781;-110.1061782836914;6.045772075653076;-0.718841552734375;-20.90875244140625;-2.065277099609375
1445424108689;311.43212890625;-111.99463653564453;7.459355354309082;1.6935882568359375;-25.655166625976562;-1.8495330810546875
1445424108723;311.016357421875;-114.8387680053711;9.88007926940918;4.0275726318359375;-18.260955810546875;-4.8111419677734375
1445424108754;310.68402099609375;-117.04210662841797;10.281899452209473;1.41900634765625;-14.514816284179688;-6.5763397216796875
1445424108787;310.7668151855469;-118.8299331665039;8.199653625488281;1.9093475341796875;-14.12255859375;-5.61529541015625
1445424108820;309.8683776855469;-118.18295288085938;2.6832404136657715;3.63531494140625;-12.9261474609375;-1.6730194091796875
1445424108854;309.7115173339844;-117.4484634399414;-0.30162423849105835;3.0861358642578125;-9.846847534179688;-0.064727783203125
1445424108886;310.67828369140625;-116.68589782714844;-5.745298385620117;2.988067626953125;-8.356246948242188;-0.300079345703125
1445424108919;312.7489013671875;-117.32734680175781;-8.541021347045898;0.5560302734375;-5.1985015869140625;-0.810028076171875
1445424108951;313.1455383300781;-117.37925720214844;-9.564568519592285;-0.5619354248046875;-4.2374420166015625;-1.1630706787109375
1445424108986;311.89080810546875;-116.35521697998047;-11.289372444152832;-1.7779541015625;-2.6291656494140625;-1.4768829345703125
1445424109020;310.69384765625;-115.3826675415039;-11.864201545715332;-0.6992340087890625;-2.0995941162109375;-0.0254974365234375
1445424109052;310.2842712402344;-112.39775848388672;-11.209246635437012;-0.3069610595703125;-2.9821929931640625;0.36676025390625
1445424109085;312.90362548828125;-107.65095520019531;-8.818977355957031;-0.954193115234375;-5.5907745361328125;2.269256591796875
1445424109117;315.4460754394531;-105.12349700927734;-7.392478942871094;2.55657958984375;-16.770355224609375;-4.281585693359375
1445424109151;316.9187927246094;-99.88422393798828;-5.91722297668457;0.595245361328125;-16.554595947265625;-0.7119598388671875
1445424109184;323.4763488769531;-96.36453247070312;-4.656974792480469;-0.4834747314453125;-16.06427001953125;-0.0843353271484375
1445424109217;326.5773010253906;-95.74603271484375;-4.576416015625;-0.8757476806640625;-15.809295654296875;-0.182403564453125
1445424109250;331.2991943359375;-95.9816665649414;-3.7878198623657227;-2.1309967041015625;-14.789398193359375;0.935546875
1445424109282;334.97100830078125;-95.83484649658203;-2.2320351600646973;-4.9749298095703125;-13.0438232421875;1.308197021484375
1445424109316;335.5947265625;-95.32389068603516;-1.1865817308425903;-5.2299041748046875;-12.004318237304688;0.4256134033203125
1445424109348;335.49822998046875;-94.84762573242188;0.5378476977348328;-4.50421142578125;-10.494094848632812;-1.7318572998046875
1445424109381;336.89849853515625;-94.82760620117188;1.672798991203308;-1.6798858642578125;-8.88580322265625;-2.9871063232421875
1445424109415;337.59735107421875;-95.3997573852539;2.281261682510376;0.2029876708984375;-8.297409057617188;-4.2619781494140625
1445424109447;340.27423095703125;-97.7564697265625;3.1837849617004395;2.242767333984375;-6.7871856689453125;-5.085723876953125
1445424109480;341.88726806640625;-99.67577362060547;3.286787748336792;1.791656494140625;-4.727783203125;-3.9873809814453125
1445424109514;344.7225036621094;-105.69819641113281;2.8604352474212646;2.2231597900390625;-5.7672882080078125;-3.595123291015625
1445424109546;345.1774597167969;-114.09730529785156;-0.35873541235923767;2.929229736328125;-8.297409057617188;-2.3006439208984375
1445424109579;344.6212463378906;-118.355712890625;-2.0350003242492676;-6.5439910888671875;-10.454864501953125;-0.7904205322265625
1445424109612;340.77032470703125;-125.17357635498047;-4.938692092895508;-4.6414947509765625;-10.925582885742188;-3.4185943603515625
1445424109645;336.85955810546875;-129.84275817871094;-8.661274909973145;0.242218017578125;-10.160659790039062;-2.32025146484375
1445424109679;337.10260009765625;-131.19459533691406;-9.602344512939453;3.4195709228515625;-9.493820190429688;-1.692626953125
1445424109711;338.00396728515625;-131.42347717285156;-9.358451843261719;6.02813720703125;-11.435531616210938;-3.1832427978515625
1445424109744;337.9842834472656;-129.09938049316406;-6.782362937927246;2.066253662109375;-14.75018310546875;-4.65423583984375
1445424109777;338.6231384277344;-126.9326400756836;-5.213099002838135;2.2231597900390625;-14.98553466796875;-3.9873809814453125
1445424109810;339.23651123046875;-121.9314956665039;-4.282246112823486;3.3018798828125;-11.121719360351562;-2.2221832275390625
1445424109844;339.1917419433594;-119.54049682617188;-4.578351020812988;2.635040283203125;-8.611221313476562;-1.319976806640625
1445424109877;339.38861083984375;-114.19721221923828;-4.7331624031066895;1.6935882568359375;-7.493255615234375;-1.261138916015625
1445424109909;338.8708190917969;-108.43638610839844;-4.3829803466796875;-0.228515625;-5.786895751953125;-0.3393096923828125
1445424109944;337.38116455078125;-105.38976287841797;-4.259603023529053;-0.2481231689453125;-4.4924163818359375;-0.5550537109375
1445424109976;333.50274658203125;-98.79266357421875;-3.766554594039917;-0.267730712890625;-4.982757568359375;0.01373291015625
1445424110009;333.92327880859375;-91.66291809082031;-2.9518191814422607;1.105194091796875;-8.473922729492188;0.5432891845703125
1445424110042;335.6226501464844;-88.0582275390625;-2.9524543285369873;2.32122802734375;-11.27862548828125;-0.8492584228515625
1445424110074;337.876220703125;-81.90534973144531;-3.414588451385498;1.9681854248046875;-12.514266967773438;-3.889312744140625
1445424110107;338.7149658203125;-80.1083755493164;-3.737131118774414;3.5960845947265625;-18.653228759765625;-9.008392333984375
1445424110140;337.8870849609375;-81.68164825439453;-4.216336250305176;-0.208892822265625;-15.279739379882812;-6.2036895751953125
1445424110177;344.1185607910156;-84.75955200195312;-6.612595558166504;-7.58349609375;-11.298233032226562;7.9767303466796875
1445424110206;344.47467041015625;-84.58699035644531;-6.785288333892822;-3.2097320556640625;-14.259841918945312;0.6609649658203125
1445424110247;338.98394775390625;-83.81568145751953;-5.0420732498168945;-0.1696624755859375;-12.828079223632812;-1.6730194091796875
1445424110274;337.8514404296875;-84.45895385742188;-4.484650135040283;-1.20916748046875;-11.612045288085938;-2.4379425048828125
1445424110305;336.370361328125;-85.09227752685547;-4.386934280395508;-1.915252685546875;-10.297958374023438;-0.9277191162109375
1445424110340;334.115966796875;-87.52684020996094;-3.9265878200531006;-1.1895599365234375;-9.768402099609375;-1.202301025390625
1445424110374;331.9809875488281;-90.23270416259766;-2.8237714767456055;-0.7972869873046875;-8.2581787109375;-2.4183197021484375
1445424110405;330.19659423828125;-91.89726257324219;-2.3861117362976074;-0.601165771484375;-7.4736480712890625;-2.7713623046875
1445424110438;328.9341125488281;-96.67793273925781;-1.7983930110931396;0.6148681640625;-7.0225372314453125;-1.947601318359375
1445424110470;330.4339294433594;-99.5625;-1.6004642248153687;3.63531494140625;-7.061767578125;1.2297515869140625
1445424110503;334.01446533203125;-106.64424133300781;-2.018869161605835;4.6748199462890625;-9.101547241210938;3.1322479248046875
1445424110537;329.45416259765625;-111.71884155273438;-4.731254577636719;-3.8373565673828125;-9.729171752929688;2.328094482421875
1445424110569;330.0021667480469;-114.43971252441406;-5.2639336585998535;1.615142822265625;-10.905975341796875;2.1711883544921875
1445424110602;328.90252685546875;-114.81937408447266;-6.479050636291504;1.791656494140625;-10.9451904296875;0.641357421875
1445424110636;331.2441711425781;-115.19475555419922;-7.565773010253906;8.146377563476562;-16.966476440429688;-1.1042327880859375
1445424110668;334.4621887207031;-115.03445434570312;-7.029170036315918;4.439453125;-14.828628540039062;-1.0453948974609375
1445424110702;338.0663146972656;-113.33954620361328;-5.865700721740723;2.066253662109375;-13.141891479492188;-0.5354461669921875
1445424110734;339.88348388671875;-110.55513763427734;-4.370622158050537;0.7521514892578125;-10.14105224609375;0.2098541259765625
1445424110767;339.4938659667969;-108.8749771118164;-3.8133413791656494;0.536407470703125;-8.94464111328125;0.4648284912109375
1445424110800;336.971435546875;-104.95463562011719;-2.97719144821167;0.8306121826171875;-7.944366455078125;0.8374786376953125
1445424110833;335.554443359375;-102.84125518798828;-2.6567771434783936;0.7717742919921875;-7.0225372314453125;1.0532379150390625
1445424110866;332.9876708984375;-97.60321807861328;-2.2088327407836914;0.4579620361328125;-6.5714263916015625;1.1512908935546875
1445424110899;332.30059814453125;-91.52507019042969;-1.8161474466323853;-0.34619140625;-7.86590576171875;1.308197021484375
1445424110933;333.0329284667969;-85.48176574707031;-1.9737344980239868;1.5759124755859375;-9.611495971679688;2.2888641357421875
1445424110965;333.2090148925781;-82.57295989990234;-2.53169584274292;2.7723236083984375;-10.729446411132812;-0.4962158203125
1445424110998;330.0196838378906;-78.50405883789062;-3.464909076690674;6.3615570068359375;-22.830856323242188;-11.734634399414062
1445424111031;329.5659484863281;-79.33784484863281;-4.410485744476318;-3.9942626953125;-10.5921630859375;5.5839080810546875
1445424111065;335.573974609375;-82.76798248291016;-5.761876106262207;-7.5638885498046875;-9.513427734375;3.6814117431640625
1445424111097;329.10137939453125;-81.99410247802734;-5.577384948730469;-7.19122314453125;-9.90570068359375;0.9159393310546875
1445424111131;328.0353088378906;-82.57215881347656;-5.703755855560303;-3.3470306396484375;-12.141616821289062;-1.6141815185546875
1445424111164;324.3127136230469;-84.72174835205078;-4.781479358673096;-2.6997833251953125;-12.396575927734375;-1.9083709716796875
1445424111196;321.0486755371094;-87.25189208984375;-2.4438774585723877;-0.777679443359375;-10.5333251953125;-3.8697052001953125
1445424111229;318.6468200683594;-88.42949676513672;-1.6393752098083496;0.0853118896484375;-9.90570068359375;-5.0072784423828125
1445424111263;311.8373107910156;-92.48065948486328;-0.9008042216300964;-0.6207733154296875;-8.82696533203125;-6.41943359375
1445424111295;311.1211853027344;-98.41786193847656;0.018940115347504616;-0.91497802734375;-7.80706787109375;-4.41888427734375
1445424111329;314.7168273925781;-101.49877166748047;1.522088646888733;-0.6207733154296875;-8.4935302734375;-2.7125244140625
1445424111362;317.8380126953125;-106.71270751953125;2.2760350704193115;3.4587860107421875;-10.474472045898438;-1.457275390625
1445424111395;314.6168212890625;-109.58667755126953;0.28214943408966064;1.3405609130859375;-10.494094848632812;0.8374786376953125
1445424111428;311.1769714355469;-116.6478271484375;-3.7080953121185303;1.0267486572265625;-9.768402099609375;2.3673248291015625
1445424111461;314.47637939453125;-121.11592864990234;-6.469762802124023;5.1063079833984375;-13.514541625976562;0.19024658203125
1445424111494;317.8133850097656;-122.89647674560547;-7.061621189117432;6.851898193359375;-12.847686767578125;-1.3984375
1445424111528;322.76055908203125;-124.80625915527344;-7.137222766876221;3.9687347412109375;-13.534149169921875;-1.9868316650390625
1445424111559;325.2320861816406;-123.54430389404297;-7.405672550201416;2.9096221923828125;-14.024490356445312;-3.0459442138671875
1445424111592;326.6864013671875;-122.34208679199219;-7.321223735809326;2.9684600830078125;-13.985260009765625;-3.085174560546875
1445424111624;328.3521423339844;-119.21583557128906;-7.274100303649902;1.6347503662109375;-12.9849853515625;-2.7517547607421875
1445424111657;329.1119384765625;-115.28711700439453;-6.843803405761719;0.3795013427734375;-10.003753662109375;-1.0257720947265625
1445424111691;329.3583679199219;-112.87946319580078;-6.495790004730225;-0.032379150390625;-8.454315185546875;-0.574676513671875
1445424111724;328.3114318847656;-107.16143798828125;-5.961442470550537;-0.85614013671875;-5.728057861328125;-0.0451202392578125
1445424111757;326.6492919921875;-103.83023834228516;-5.6384077072143555;-0.97381591796875;-3.6294403076171875;-0.005889892578125
1445424111798;321.866943359375;-96.5080795288086;-4.7656965255737305;-1.3072357177734375;-3.8255767822265625;0.07257080078125
1445424111824;321.1064758300781;-88.6146469116211;-3.9166831970214844;-0.326568603515625;-6.66949462890625;0.6609649658203125
1445424111858;322.87237548828125;-84.66101837158203;-4.32978630065918;1.24249267578125;-16.338851928710938;-6.674407958984375
1445424111889;320.9563903808594;-78.64436340332031;-4.861758708953857;4.459075927734375;-26.83197021484375;-14.5001220703125
1445424111925;317.7901611328125;-81.58407592773438;-3.762641191482544;4.1060333251953125;-11.376693725585938;-0.1039581298828125
1445424111955;324.8995056152344;-84.15338897705078;-4.711597442626953;-0.228515625;-6.238006591796875;5.740814208984375
1445424111991;328.78375244140625;-84.85719299316406;-7.803684234619141;-5.072998046875;-9.925308227539062;4.152130126953125
1445424112021;322.1122741699219;-84.50061798095703;-7.125207901000977;-9.701736450195312;-16.083877563476562;-3.6343536376953125
1445424112055;319.7476806640625;-84.1229476928711;-4.862459659576416;-5.58294677734375;-13.592987060546875;-3.830474853515625
1445424112087;319.0073547363281;-84.72384643554688;-2.8680224418640137;0.654083251953125;-11.39630126953125;-1.1042327880859375
1445424112120;319.9029235839844;-85.4993667602539;-2.5557992458343506;3.7922210693359375;-11.572830200195312;-1.96722412109375
1445424112153;320.88970947265625;-88.27357482910156;-1.6513910293579102;3.2822723388671875;-10.31756591796875;-2.7321319580078125
1445424112186;321.63031005859375;-92.32170867919922;-0.7685832381248474;0.8109893798828125;-8.101272583007812;-2.5359954833984375
1445424112220;323.3131408691406;-94.70645141601562;-0.028101107105612755;1.47784423828125;-4.963134765625;0.7982635498046875
1445424112251;328.7471008300781;-100.51683807373047;1.2141432762145996;2.38006591796875;-3.9236297607421875;1.582794189453125
1445424112285;331.4518737792969;-105.79016876220703;2.1138322353363037;-0.895355224609375;-3.6490478515625;4.9562835693359375
1445424112319;333.76171875;-106.76061248779297;3.559070110321045;0.0853118896484375;-11.259017944335938;2.445770263671875
1445424112351;335.1013488769531;-105.49272918701172;4.4544997215271;-2.739013671875;-10.749069213867188;2.40655517578125
1445424112385;330.5826110839844;-104.52899932861328;4.524922847747803;-2.150604248046875;-13.318405151367188;-1.574951171875
1445424112418;329.0197448730469;-104.58952331542969;4.3775200843811035;0.418731689453125;-15.220901489257812;-3.51666259765625
1445424112450;330.471435546875;-104.25244140625;4.661167144775391;-2.719390869140625;-17.005706787109375;-1.75146484375
1445424112483;331.89715576171875;-104.01271057128906;5.118746280670166;-2.366363525390625;-14.220611572265625;-0.0254974365234375
1445424112516;333.26611328125;-103.40543365478516;5.372405529022217;-0.601165771484375;-13.122268676757812;0.01373291015625
1445424112549;334.5328063964844;-101.59255981445312;4.86149787902832;1.222869873046875;-11.141326904296875;0.4059906005859375
1445424112582;335.7911376953125;-100.08936309814453;4.557149887084961;0.16375732421875;-8.4935302734375;1.072845458984375
1445424112615;336.9642333984375;-96.66717529296875;3.826131820678711;-0.4834747314453125;-7.257904052734375;1.014007568359375
1445424112648;336.7338562011719;-92.84046936035156;3.0912063121795654;-0.2481231689453125;-5.3750152587890625;1.072845458984375
1445424112682;336.7138671875;-90.614501953125;2.575016498565674;-0.032379150390625;-4.7473907470703125;2.0731201171875
1445424112715;338.29541015625;-85.6122817993164;0.7641099095344543;1.18365478515625;-5.6888275146484375;1.1709136962890625
1445424112747;336.62847900390625;-80.94828796386719;-1.7271536588668823;0.6737060546875;-9.434967041015625;-2.26141357421875
1445424112780;333.1900939941406;-79.50642395019531;-2.6316094398498535;0.026458740234375;-12.9849853515625;-6.1448516845703125
1445424112813;320.95172119140625;-77.33479309082031;-3.076425790786743;-0.91497802734375;-16.907638549804688;-5.7722015380859375
1445424112846;326.2936706542969;-78.82122039794922;-6.828157901763916;-2.8370819091796875;-12.730010986328125;3.3675994873046875
1445424112879;327.2616271972656;-79.76802825927734;-7.488438129425049;-0.8757476806640625;-10.003753662109375;3.093017578125
1445424112912;316.3143310546875;-79.73945617675781;-6.107596397399902;-4.68072509765625;-12.259292602539062;0.6609649658203125
1445424112946;311.99395751953125;-80.09281158447266;-4.954573154449463;-1.522979736328125;-13.396865844726562;-2.7713623046875
1445424112979;308.034423828125;-79.69805145263672;-3.0478124618530273;-0.1304473876953125;-13.141891479492188;-3.16363525390625
1445424113012;307.1126403808594;-80.83407592773438;-3.320319175720215;-1.9348602294921875;-11.474761962890625;-0.9277191162109375
1445424113045;307.04437255859375;-82.12397003173828;-3.250659942626953;-0.6992340087890625;-9.807632446289062;-1.771087646484375
1445424113077;301.5481262207031;-84.23139953613281;-2.4679007530212402;-1.4837646484375;-8.866195678710938;-2.339874267578125
1445424113111;292.3856201171875;-88.34773254394531;-1.1500095129013062;-3.8373565673828125;-7.1598358154296875;-1.5945587158203125
1445424113144;291.70367431640625;-91.02003479003906;0.3830159604549408;-4.7787933349609375;-6.7675628662109375;1.0924530029296875
1445424113176;294.49945068359375;-94.62232971191406;4.8335862159729;-0.1696624755859375;-8.866195678710938;2.1319580078125
1445424113209;292.8266296386719;-95.89344787597656;6.416513442993164;5.3612823486328125;-8.160110473632812;2.1319580078125
1445424113243;288.1455078125;-101.56100463867188;8.579490661621094;7.6364288330078125;-7.257904052734375;1.3670501708984375
1445424113275;288.8614196777344;-106.34149932861328;9.191842079162598;5.1651458740234375;-9.788009643554688;0.1706390380859375
1445424113308;290.48956298828125;-108.06160736083984;8.607717514038086;2.360443115234375;-15.260116577148438;0.19024658203125
1445424113341;293.7807922363281;-112.46125030517578;6.209866046905518;3.4195709228515625;-16.711502075195312;-1.5945587158203125
1445424113374;297.15081787109375;-116.78477478027344;2.8324034214019775;4.2041015625;-18.63360595703125;-4.732696533203125
1445424113407;298.76483154296875;-118.69732666015625;1.4488871097564697;0.928680419921875;-13.691055297851562;-5.654510498046875
1445424113440;300.9194030761719;-121.1054458618164;-0.5096737146377563;-0.8169097900390625;-11.984695434570312;-5.6349029541015625
1445424113473;301.0594177246094;-120.92947387695312;-3.6819703578948975;0.7325439453125;-9.729171752929688;-3.536285400390625
1445424113508;300.98065185546875;-120.30868530273438;-5.219189167022705;2.2231597900390625;-6.355682373046875;-2.006439208984375
1445424113541;301.29180908203125;-118.30508422851562;-7.879802227020264;1.9093475341796875;-5.9241943359375;-1.5945587158203125
1445424113574;302.2208557128906;-115.71514892578125;-9.847214698791504;0.8109893798828125;-5.041595458984375;-1.3395843505859375
1445424113606;302.5755615234375;-114.34046936035156;-10.309051513671875;0.477569580078125;-4.963134765625;-1.712249755859375
1445424113637;302.2833251953125;-110.8972396850586;-10.161916732788086;-1.7583465576171875;-5.0808258056640625;-1.810302734375
1445424113671;302.3636779785156;-108.49068450927734;-9.680333137512207;-0.6992340087890625;-5.47308349609375;-1.888763427734375
1445424113705;302.96710205078125;-103.31603240966797;-8.757996559143066;0.2029876708984375;-9.278060913085938;-7.2628021240234375
1445424113737;300.7818908691406;-98.953857421875;-8.963208198547363;2.301605224609375;-8.571990966796875;-2.5556182861328125
1445424113769;301.6814880371094;-98.7571792602539;-8.606195449829102;-4.190399169921875;-11.553207397460938;-1.457275390625
1445424113803;305.48974609375;-97.65399932861328;-5.520611763000488;-4.7787933349609375;-15.181671142578125;0.2294769287109375
1445424113836;308.51983642578125;-95.11526489257812;-1.8118149042129517;-2.17022705078125;-17.790237426757812;-0.0254974365234375
1445424113869;308.400146484375;-93.93758392333984;-1.1361483335494995;-1.6602783203125;-14.397140502929688;-0.2804718017578125
1445424113902;307.6552429199219;-92.40128326416016;-1.2554619312286377;-2.7586212158203125;-12.259292602539062;-0.3197021484375
1445424113935;308.7796936035156;-91.43080139160156;-1.5302364826202393;-2.68017578125;-10.08221435546875;-0.574676513671875
1445424113968;310.2178955078125;-91.06575775146484;-1.5597519874572754;-1.7191162109375;-9.90570068359375;-0.82965087890625
1445424114001;312.59710693359375;-90.40352630615234;-1.1359672546386719;-0.601165771484375;-9.160385131835938;-1.143463134765625
1445424114034;312.3702392578125;-90.08235168457031;-0.6288613080978394;0.22259521484375;-7.0225372314453125;-0.6727447509765625
1445424114068;312.2989807128906;-90.19489288330078;-0.803461492061615;-0.091217041015625;-6.61065673828125;0.5432891845703125
1445424114101;312.80169677734375;-91.36612701416016;-0.7776050567626953;-1.5033721923828125;-6.5714263916015625;-1.2415313720703125
1445424114134;312.9127502441406;-91.8919906616211;-0.4374864101409912;-2.2682952880859375;-4.963134765625;-1.2415313720703125
1445424114166;314.6873474121094;-92.1357650756836;0.8437074422836304;-1.5033721923828125;-4.3159027099609375;-1.692626953125
1445424114199;315.11962890625;-92.52913665771484;3.311375379562378;2.164306640625;-8.513153076171875;-4.8307647705078125
1445424114233;313.73272705078125;-92.89889526367188;3.713974952697754;5.773162841796875;-10.180282592773438;-4.222747802734375
1445424114266;319.149169921875;-95.75479888916016;2.4325716495513916;4.3021697998046875;-10.454864501953125;-0.0843353271484375
1445424114298;328.36077880859375;-99.27275085449219;1.956276535987854;-1.0130462646484375;-16.888031005859375;-0.182403564453125
1445424114331;327.6332092285156;-100.01797485351562;1.3415648937225342;-1.20916748046875;-19.378921508789062;-0.7119598388671875
1445424114364;325.3266906738281;-101.28173828125;-0.2660180330276489;1.164031982421875;-17.731399536132812;0.3471527099609375
1445424114397;327.1477355957031;-101.52787780761719;-0.9637321829795837;4.89056396484375;-15.240509033203125;0.4256134033203125
1445424114431;328.81671142578125;-101.60930633544922;-1.0182691812515259;5.3416748046875;-13.1614990234375;0.504058837890625
1445424114462;331.5776062011719;-101.1341781616211;-0.9342541694641113;4.517913818359375;-9.670333862304688;1.1512908935546875
1445424114496;332.435791015625;-100.53728485107422;-0.864070475101471;3.6549224853515625;-7.4736480712890625;0.7982635498046875
1445424114530;332.4311828613281;-97.91764831542969;-0.8731889724731445;2.5761871337890625;-7.0225372314453125;0.4648284912109375
1445424114562;336.04705810546875;-95.13529205322266;-0.8015103936195374;2.10546875;-6.1399383544921875;0.955169677734375
1445424114595;338.9539794921875;-94.08281707763672;-0.9881331920623779;-0.032379150390625;-6.7675628662109375;0.58251953125
1445424114627;340.6466979980469;-92.75465393066406;-2.072880983352661;-2.6409454345703125;-7.1598358154296875;-3.51666259765625
1445424114661;337.7437744140625;-92.46747589111328;-2.6133980751037598;-7.956146240234375;-8.179718017578125;1.7397003173828125
1445424114694;337.5237731933594;-92.94332122802734;-0.35122331976890564;-5.4064178466796875;-9.533035278320312;1.7397003173828125
1445424114728;341.0737609863281;-89.36275482177734;2.983438491821289;1.105194091796875;-11.435531616210938;2.0535125732421875
1445424114761;342.1539306640625;-88.31265258789062;3.129870891571045;2.2035369873046875;-15.4366455078125;2.151580810546875
1445424114794;341.86865234375;-86.83657836914062;1.4711581468582153;0.5560302734375;-15.475875854492188;1.8966064453125
1445424114826;340.993408203125;-85.35572052001953;-1.382520079612732;-1.3072357177734375;-11.062881469726562;3.1910858154296875
1445424114861;340.114501953125;-83.11457061767578;-3.9428248405456543;-2.2094573974609375;-9.611495971679688;0.680572509765625
1445424114893;338.3804016113281;-81.72975158691406;-5.041500568389893;-3.7000579833984375;-12.02392578125;-5.6937408447265625
1445424114926;330.9140319824219;-80.42317199707031;-4.684288024902344;-4.0531005859375;-11.945480346679688;-9.243743896484375
1445424114958;328.94781494140625;-82.24430084228516;-3.4234204292297363;-2.8174591064453125;-4.6885528564453125;-1.3984375
1445424114991;328.74853515625;-85.50641632080078;-3.475083112716675;-1.228790283203125;-6.1987762451171875;1.1709136962890625
1445424115024;329.8269958496094;-87.2418212890625;-4.91960334777832;1.438629150390625;-9.513427734375;-0.4177703857421875
1445424115060;329.0086364746094;-88.0128173828125;-4.357429504394531;1.497467041015625;-9.434967041015625;-5.595672607421875
1445424115090;323.7230529785156;-91.1287841796875;-1.5349152088165283;0.7129364013671875;-8.787734985351562;-5.654510498046875
1445424115123;325.1214599609375;-98.3890609741211;1.5840510129928589;3.75299072265625;-7.3951873779296875;-5.1053466796875
1445424115156;327.90338134765625;-102.3837890625;2.3021814823150635;4.7924957275390625;-6.747955322265625;-5.2818603515625
1445424115191;330.389404296875;-109.8606948852539;1.3295379877090454;1.41900634765625;-4.55126953125;1.582794189453125
1445424115222;331.8946838378906;-113.18571472167969;1.1258652210235596;-0.1108245849609375;-8.807342529296875;-2.32025146484375
1445424115256;337.4453430175781;-118.47058868408203;1.4961974620819092;2.9684600830078125;-9.278060913085938;-6.7724761962890625
1445424115289;342.0126953125;-122.1382064819336;1.4250037670135498;0.477569580078125;-14.828628540039062;-8.87109375
1445424115321;344.05206298828125;-123.08753204345703;1.2161279916763306;0.0656890869140625;-13.749893188476562;-8.400375366210938
1445424115354;347.3557434082031;-123.96895599365234;-0.1940661072731018;0.04608154296875;-12.043548583984375;-7.4785614013671875
1445424115388;348.8065185546875;-123.53203582763672;-2.9567880630493164;-0.091217041015625;-10.788284301757812;-7.7923736572265625
1445424115423;348.6655578613281;-122.4594497680664;-4.783494472503662;1.046356201171875;-13.651840209960938;-7.5570068359375
1445424115453;347.12939453125;-118.8356704711914;-8.112950325012207;1.7720489501953125;-13.769515991210938;-7.6746826171875
1445424115486;344.84124755859375;-115.28511810302734;-9.825955390930176;1.3209381103515625;-10.7098388671875;-3.9481658935546875
1445424115519;344.7090148925781;-113.78626251220703;-9.790252685546875;-0.01275634765625;-8.611221313476562;-2.065277099609375
1445424115552;346.90106201171875;-110.77845764160156;-7.841263771057129;-1.856414794921875;-3.335235595703125;1.9162139892578125
1445424115585;347.2723083496094;-109.2138671875;-6.125242710113525;-2.91552734375;0.136322021484375;3.1126251220703125
1445424115618;349.361083984375;-106.32707214355469;-0.9038785696029663;-1.8171844482421875;-0.373626708984375;3.583343505859375
1445424115651;347.876953125;-103.26051330566406;1.8194648027420044;1.8897247314453125;-10.042984008789062;1.6024017333984375
1445424115686;346.2143249511719;-102.07015991210938;2.0551059246063232;1.5759124755859375;-14.593276977539062;-2.1045074462890625
1445424115717;344.06787109375;-100.21575927734375;1.0274529457092285;0.16375732421875;-15.593551635742188;-2.692901611328125
1445424115751;343.11138916015625;-99.36083221435547;0.2983226776123047;-1.09149169921875;-16.162338256835938;-2.1829681396484375
1445424115785;342.83184814453125;-99.27545166015625;0.2594797611236572;-0.7384490966796875;-12.847686767578125;1.1512908935546875
1445424115817;343.8728942871094;-99.0870361328125;0.47628822922706604;0.536407470703125;-11.121719360351562;2.75958251953125
1445424115850;345.6326904296875;-97.84722900390625;0.8099222183227539;2.2819976806640625;-9.552658081054688;3.2303009033203125
1445424115883;345.9084777832031;-96.56954193115234;1.0110408067703247;2.9488525390625;-9.591873168945312;3.0537872314453125
1445424115915;345.8670959472656;-93.61693572998047;1.4459866285324097;2.9684600830078125;-9.591873168945312;3.289154052734375
1445424115948;345.7785949707031;-92.16026306152344;1.3845256567001343;2.38006591796875;-8.160110473632812;2.720367431640625
1445424115981;345.5129699707031;-89.36038208007812;0.5147632956504822;1.8308868408203125;-7.826690673828125;2.5634613037109375
1445424116014;344.1938171386719;-86.85741424560547;-1.384671688079834;1.2621002197265625;-8.611221313476562;2.0535125732421875
1445424116047;343.204833984375;-85.63414001464844;-2.671471357345581;0.869842529296875;-8.454315185546875;-1.3395843505859375
1445424116081;338.5071716308594;-82.98619842529297;-4.8655829429626465;-1.5033721923828125;-8.964248657226562;-4.222747802734375
1445424116113;335.4722900390625;-78.26461029052734;-6.2628889083862305;1.105194091796875;-15.632781982421875;-14.539337158203125
1445424116147;335.48846435546875;-76.65843963623047;-6.938070774078369;2.183929443359375;-14.80902099609375;-13.08795166015625
1445424116179;333.2467041015625;-78.48657989501953;-7.374106407165527;-2.484039306640625;-11.827789306640625;-3.28131103515625
1445424116213;329.692626953125;-80.3141098022461;-7.98668098449707;-3.9942626953125;-11.494369506835938;2.2888641357421875
1445424116246;329.3603515625;-80.87117767333984;-8.315953254699707;-1.3268585205078125;-12.376968383789062;2.328094482421875
1445424116279;331.32476806640625;-81.71489715576172;-8.128291130065918;4.89056396484375;-15.260116577148438;-1.7906951904296875
1445424116312;331.8841247558594;-81.90554809570312;-7.602180480957031;5.06707763671875;-12.47503662109375;-5.0661163330078125
1445424116348;332.17047119140625;-82.9708023071289;-6.629844665527344;1.36016845703125;-10.042984008789062;-3.653961181640625
1445424116377;332.5584716796875;-86.1709213256836;-6.188217639923096;-0.4442596435546875;-9.611495971679688;-3.85009765625
1445424116411;331.4183349609375;-87.75074768066406;-5.682176113128662;-2.8174591064453125;-9.101547241210938;-1.9868316650390625
1445424116443;330.6775207519531;-91.95243835449219;-3.9106285572052;-3.1312713623046875;-8.611221313476562;-0.633514404296875
1445424116477;332.5206604003906;-96.23212432861328;-2.5225164890289307;0.3991241455078125;-6.37530517578125;1.4258880615234375
1445424116509;331.6420593261719;-98.41175079345703;-2.5966758728027344;0.3206634521484375;-6.3164520263671875;0.5432891845703125
1445424116542;331.2283935546875;-101.22845458984375;-2.3508687019348145;0.242218017578125;-6.238006591796875;0.994384765625
1445424116575;332.6321716308594;-103.40653991699219;-1.2878228425979614;0.595245361328125;-6.1399383544921875;0.052947998046875
1445424116608;334.2889709472656;-104.44983673095703;-0.38751375675201416;2.32122802734375;-8.787734985351562;-3.28131103515625
1445424116641;335.53515625;-107.76615905761719;0.728868305683136;0.04608154296875;-9.611495971679688;-0.0254974365234375
1445424116674;335.396484375;-111.69007110595703;2.059992551803589;-1.15032958984375;-12.200454711914062;-0.810028076171875
1445424116707;334.44866943359375;-112.49761199951172;1.6046587228775024;-1.797576904296875;-15.397415161132812;-0.2608642578125
1445424116741;333.46661376953125;-112.77147674560547;0.21324412524700165;0.301055908203125;-17.907913208007812;-1.5945587158203125
1445424116773;332.76409912109375;-111.56277465820312;-0.4437379240989685;2.2623748779296875;-15.122833251953125;-1.143463134765625
1445424116807;332.9598083496094;-110.52719116210938;0.1147037222981453;2.0270233154296875;-13.55377197265625;-0.8492584228515625
1445424116842;336.1825256347656;-108.47032165527344;1.8844746351242065;1.6347503662109375;-10.356796264648438;0.8571014404296875
1445424116872;337.8338623046875;-107.17078399658203;2.4790351390838623;0.8306121826171875;-8.82696533203125;1.4258880615234375
1445424116906;337.28839111328125;-103.97752380371094;2.5175135135650635;-0.895355224609375;-7.061767578125;1.0532379150390625
1445424116940;333.48699951171875;-101.01005554199219;1.992851734161377;-2.150604248046875;-6.0026397705078125;1.3474273681640625
1445424116971;332.66998291015625;-99.16912841796875;2.1627321243286133;-1.169952392578125;-5.9438018798828125;1.7200775146484375
1445424117004;330.9639587402344;-94.5362319946289;2.2724833488464355;-0.777679443359375;-6.7087249755859375;1.44549560546875
1445424117037;329.5241394042969;-89.2387924194336;1.9811633825302124;0.869842529296875;-7.2775115966796875;1.4062652587890625
1445424117070;329.26995849609375;-86.74427795410156;1.350497841835022;2.301605224609375;-7.9051361083984375;-0.0254974365234375
1445424117102;326.02838134765625;-82.7245101928711;-0.6488442420959473;5.4593505859375;-17.339126586914062;-10.0675048828125
1445424117140;319.42498779296875;-83.43424224853516;-1.8577321767807007;1.673980712890625;-16.57421875;-8.380767822265625
1445424117170;318.84149169921875;-85.04682922363281;-1.7902926206588745;-0.287353515625;-15.456253051757812;-3.771636962890625
1445424117203;317.7930908203125;-87.14511108398438;-1.576676607131958;-2.366363525390625;-12.690780639648438;-1.947601318359375
1445424117235;317.2710876464844;-88.36835479736328;-1.6853309869766235;0.22259521484375;-11.553207397460938;-3.202850341796875
1445424117269;315.6091003417969;-90.84194946289062;-2.010673999786377;0.7129364013671875;-11.651275634765625;-3.3205413818359375
1445424117302;315.2435302734375;-93.20137023925781;-2.3878352642059326;0.987518310546875;-10.356796264648438;-3.712799072265625
1445424117335;315.51190185546875;-94.33658599853516;-2.491182565689087;1.0267486572265625;-9.140777587890625;-4.105072021484375
1445424117367;314.5755615234375;-96.96841430664062;-3.026892900466919;0.9678955078125;-8.277786254882812;-4.163909912109375
1445424117400;311.392822265625;-100.45608520507812;-4.511975288391113;0.4383392333984375;-6.0811004638671875;-3.8697052001953125
1445424117434;309.8197937011719;-102.45989227294922;-5.302326202392578;-0.542327880859375;-5.1396636962890625;-2.6536865234375
1445424117466;309.6214904785156;-106.79077911376953;-5.168159484863281;-3.0724334716796875;-3.13909912109375;3.014556884765625
1445424117500;311.8313903808594;-109.41609954833984;-3.779188871383667;1.3405609130859375;-4.080535888671875;1.32781982421875
1445424117532;311.4951477050781;-110.08680725097656;-3.7707250118255615;3.0272979736328125;-7.669769287109375;0.2098541259765625
1445424117565;313.227783203125;-109.90911102294922;-3.775944232940674;3.9098968505859375;-14.612884521484375;-1.202301025390625
1445424117598;316.2035827636719;-109.0184326171875;-3.2154929637908936;-1.169952392578125;-15.083602905273438;-3.4185943603515625
1445424117631;320.9114685058594;-108.42816925048828;-0.5252130627632141;-3.1508941650390625;-15.94659423828125;-3.144012451171875
1445424117664;321.1000671386719;-108.34558868408203;0.679425060749054;-0.91497802734375;-18.672836303710938;-2.575225830078125
1445424117697;320.12701416015625;-108.14601135253906;-0.07768147438764572;-0.34619140625;-16.907638549804688;-0.88848876953125
1445424117730;319.9375915527344;-107.69129180908203;-0.9681212306022644;-0.6207733154296875;-15.417037963867188;-0.005889892578125
1445424117763;320.041259765625;-106.7505874633789;-1.283204436302185;0.8894500732421875;-12.906524658203125;-0.7315826416015625
1445424117798;320.4090270996094;-106.32520294189453;-1.6668798923492432;1.8897247314453125;-9.3369140625;-0.4177703857421875
1445424117830;321.1037902832031;-105.36602020263672;-2.7857110500335693;1.7720489501953125;-7.5913238525390625;0.01373291015625
1445424117862;320.9505310058594;-105.10389709472656;-3.70992112159729;1.8308868408203125;-5.492706298828125;-1.319976806640625
1445424117895;320.58319091796875;-105.62431335449219;-4.011636734008789;2.1446990966796875;-6.0811004638671875;-4.105072021484375
1445424117929;320.077392578125;-108.29069519042969;-4.348475933074951;0.22259521484375;-5.1396636962890625;-4.5757904052734375
1445424117961;320.98956298828125;-110.3624496459961;-4.280348300933838;-0.7580718994140625;-4.6297149658203125;-5.1641845703125
1445424117995;322.04132080078125;-115.82930755615234;-6.244382858276367;-1.0522613525390625;-4.982757568359375;-5.026885986328125
1445424118028;320.69482421875;-123.50399017333984;-10.362025260925293;0.928680419921875;-9.297683715820312;-5.301483154296875
1445424118060;319.9100036621094;-126.72736358642578;-12.656234741210938;4.498291015625;-8.1993408203125;-6.3213653564453125
1445424118094;322.592529296875;-132.73512268066406;-15.620719909667969;6.832275390625;-7.6501617431640625;-8.106185913085938
1445424118126;324.926513671875;-135.3181610107422;-16.043954849243164;3.7333831787109375;-8.689666748046875;-7.1451263427734375
1445424118159;328.2562561035156;-138.2528533935547;-16.01523208618164;4.71405029296875;-8.983871459960938;-7.1451263427734375
1445424118192;332.04638671875;-137.3626708984375;-14.844188690185547;3.831451416015625;-9.631103515625;-6.3213653564453125
1445424118226;333.47027587890625;-135.6202850341797;-14.174982070922852;2.32122802734375;-7.9639739990234375;-3.28131103515625
1445424118258;335.40478515625;-130.16036987304688;-13.363619804382324;1.6543731689453125;-7.257904052734375;-2.908660888671875
1445424118290;337.3050231933594;-124.11385345458984;-12.825039863586426;0.5167999267578125;-6.238006591796875;-1.888763427734375
1445424118324;338.3348693847656;-120.97522735595703;-12.216015815734863;-2.307525634765625;-4.0609283447265625;-0.2020263671875
1445424118358;340.0170593261719;-113.52545928955078;-9.56116008758545;-2.6997833251953125;-5.4338531494140625;1.0336151123046875
1445424118391;343.3377685546875;-105.0137939453125;-5.600814342498779;-1.5818328857421875;-6.3360748291015625;0.2294769287109375
1445424118424;344.3529968261719;-100.63594818115234;-4.050612449645996;-0.640380859375;-7.375579833984375;0.7198028564453125
1445424118456;346.18719482421875;-92.39270782470703;-1.0347658395767212;0.4579620361328125;-7.4736480712890625;1.44549560546875
1445424118492;348.8779296875;-84.98143768310547;1.2057710886001587;3.7725982666015625;-15.083602905273438;-4.8111419677734375
1445424118524;348.3314208984375;-83.29975891113281;1.8935438394546509;0.8109893798828125;-17.456817626953125;-5.8898773193359375
1445424118556;350.4549865722656;-82.21516418457031;1.128955602645874;-1.1307220458984375;-16.750732421875;-6.2821502685546875
1445424118588;355.1149597167969;-85.30178833007812;0.338909775018692;-4.0531005859375;-18.39825439453125;-2.339874267578125
1445424118621;355.3841247558594;-86.86759948730469;0.8417232632637024;-2.34674072265625;-17.339126586914062;-2.9478759765625
1445424118657;353.9183349609375;-88.39065551757812;1.5050567388534546;-3.1901092529296875;-15.240509033203125;-1.437652587890625
1445424118687;354.353271484375;-89.1421890258789;1.6672418117523193;-0.5619354248046875;-12.180831909179688;-1.18267822265625
1445424118721;355.9913635253906;-90.26166534423828;1.860485315322876;-0.1108245849609375;-10.611770629882812;-1.7318572998046875
