sep=;
timestamp;gyro-alpha;gyro-beta;gyro-gamma;accel-x;accel-y;accel-z
1445423870394;90.420654296875;-91.41024017333984;-10.067999839782715;-0.5619354248046875;-9.474197387695312;0.7198028564453125
1445423870426;88.11819458007812;-88.6484146118164;-10.117738723754883;1.615142822265625;-10.749069213867188;-1.2219085693359375
1445423870458;87.06231689453125;-87.78043365478516;-9.766666412353516;0.3206634521484375;-10.5921630859375;-1.2219085693359375
1445423870492;85.77203369140625;-86.60466003417969;-9.019773483276367;-0.208892822265625;-10.356796264648438;-1.143463134765625
1445423870525;84.9517822265625;-85.94075012207031;-8.251296997070312;-0.97381591796875;-9.572265625;-0.182403564453125
1445423870557;84.6212158203125;-85.77520751953125;-7.914953708648682;-1.287628173828125;-9.768402099609375;0.327545166015625
1445423870591;84.84661865234375;-85.41213989257812;-7.365306854248047;-0.895355224609375;-10.552932739257812;0.935546875
1445423870623;85.67926025390625;-84.91386413574219;-7.083189964294434;1.438629150390625;-10.003753662109375;1.190521240234375
1445423870657;85.90960693359375;-84.39610290527344;-7.098762035369873;1.5170745849609375;-9.886077880859375;0.955169677734375
1445423870694;84.69012451171875;-83.12067413330078;-6.737582683563232;1.222869873046875;-9.984146118164062;-0.0843353271484375
1445423870727;82.73599243164062;-82.33161163330078;-6.340753078460693;-0.0716094970703125;-9.709564208984375;-0.810028076171875
1445423870755;80.337890625;-80.9537124633789;-5.998674392700195;-0.326568603515625;-9.748779296875;-0.3981475830078125
1445423870794;81.683349609375;-80.638671875;-6.522665977478027;-1.111114501953125;-9.552658081054688;0.562896728515625
1445423870822;81.7615966796875;-80.28582763671875;-6.69235897064209;-1.2483978271484375;-9.729171752929688;0.9159393310546875
1445423870855;79.806640625;-78.7955322265625;-6.860079765319824;-1.2680206298828125;-10.454864501953125;0.36676025390625
1445423870888;77.3724365234375;-77.34131622314453;-6.758855819702148;-2.5036468505859375;-12.29852294921875;-0.1039581298828125
1445423870921;75.678955078125;-76.73853302001953;-6.540056228637695;-2.307525634765625;-13.1026611328125;-0.3589324951171875
1445423870954;70.29534912109375;-76.28414916992188;-5.67384672164917;-1.169952392578125;-14.102935791015625;-2.065277099609375
1445423870986;62.96112060546875;-77.83222198486328;-4.6144609451293945;-1.4837646484375;-13.298797607421875;-2.7321319580078125
1445423871020;60.11187744140625;-79.74978637695312;-4.533481121063232;-1.8367919921875;-11.670883178710938;-1.6141815185546875
1445423871053;58.211944580078125;-85.87200164794922;-4.600186347961426;-0.0519866943359375;-11.612045288085938;2.3477020263671875
1445423871085;55.857330322265625;-91.13939666748047;-3.8696393966674805;0.9090576171875;-12.102386474609375;2.7988128662109375
1445423871118;52.024017333984375;-92.72661590576172;-3.2343878746032715;0.7717742919921875;-10.984420776367188;2.6026763916015625
1445423871152;39.922607421875;-94.07107543945312;-2.6869001388549805;0.34027099609375;-10.690231323242188;1.1120758056640625
1445423871185;33.73846435546875;-95.03829956054688;-2.906404972076416;0.477569580078125;-10.8863525390625;1.014007568359375
1445423871217;22.94189453125;-99.30992889404297;-3.393556833267212;0.654083251953125;-10.670608520507812;0.052947998046875
1445423871251;16.701751708984375;-104.38445281982422;-2.991929531097412;0.6344757080078125;-9.101547241210938;0.3471527099609375
1445423871283;13.31597900390625;-106.00933837890625;-3.056046485900879;0.928680419921875;-7.68939208984375;-0.0843353271484375
1445423871316;6.976226806640625;-108.8240966796875;-3.976741313934326;1.0659637451171875;-7.1402130126953125;-0.5942840576171875
1445423871350;4.629974365234375;-110.31813049316406;-4.291112899780273;0.8109893798828125;-5.8849639892578125;-0.3785400390625
1445423871382;0.64202880859375;-111.9285659790039;-4.7311248779296875;0.7717742919921875;-5.276947021484375;-0.751190185546875
1445423871415;357.2244873046875;-112.14196014404297;-4.817317008972168;0.9678955078125;-5.9241943359375;-2.02606201171875
1445423871448;354.8724365234375;-110.9348373413086;-4.246501445770264;2.693878173828125;-8.3758544921875;-4.458099365234375
1445423871481;353.9729919433594;-110.02240753173828;-3.9616527557373047;2.693878173828125;-10.180282592773438;-7.0078277587890625
1445423871515;352.91973876953125;-108.8414535522461;-3.183833599090576;2.9096221923828125;-11.239395141601562;-6.9686126708984375
1445423871547;352.46563720703125;-108.99453735351562;-2.7809672355651855;3.81182861328125;-12.35736083984375;-5.0661163330078125
1445423871580;351.7843933105469;-109.5179672241211;-2.090425729751587;4.8709564208984375;-18.535537719726562;-4.1246795654296875
1445423871613;353.0985107421875;-109.94986724853516;-2.905827283859253;4.1648712158203125;-11.239395141601562;-1.378814697265625
1445423871647;353.8094787597656;-110.68482971191406;-3.246124744415283;3.2234344482421875;-4.413970947265625;4.9562835693359375
1445423871680;359.8032531738281;-110.7059326171875;-0.9084877967834473;1.5759124755859375;-6.0222625732421875;3.2303009033203125
1445423871712;4.48162841796875;-106.12689208984375;0.684694766998291;-4.62188720703125;-14.632492065429688;1.465118408203125
1445423871749;6.663238525390625;-103.69762420654297;1.6805119514465332;-2.993988037109375;-10.356796264648438;0.0921783447265625
1445423871778;8.5787353515625;-99.61689758300781;2.951669931411743;-1.6406707763671875;-9.042709350585938;-0.4569854736328125
1445423871811;11.981719970703125;-96.09152221679688;3.2636067867279053;0.7521514892578125;-9.101547241210938;-0.182403564453125
1445423871844;16.076904296875;-94.02031707763672;3.3868677616119385;0.928680419921875;-9.68994140625;-0.241241455078125
1445423871877;22.470001220703125;-90.04846954345703;3.28185772895813;-0.542327880859375;-10.180282592773438;0.0333404541015625
1445423871911;25.50323486328125;-86.93688201904297;3.1981728076934814;-0.4246368408203125;-10.180282592773438;-0.4373779296875
1445423871944;28.440887451171875;-86.09579467773438;2.8403029441833496;-0.405029296875;-10.25872802734375;-1.084625244140625
1445423871977;35.27264404296875;-85.7342529296875;2.225724458694458;-0.7972869873046875;-9.866470336914062;0.0333404541015625
1445423872009;37.78472900390625;-85.66018676757812;1.9870219230651855;-1.522979736328125;-9.533035278320312;0.13140869140625
1445423872042;40.10003662109375;-84.472412109375;1.9784910678863525;-1.5426025390625;-9.278060913085938;-0.692352294921875
1445423872076;40.99810791015625;-82.31440734863281;2.1476001739501953;0.1441497802734375;-8.689666748046875;-0.574676513671875
1445423872140;42.712615966796875;-78.71244812011719;0.5983286499977112;-0.542327880859375;-10.219512939453125;-0.0843353271484375
1445423872143;42.712615966796875;-78.71244812011719;0.5983286499977112;-0.542327880859375;-10.219512939453125;-0.0843353271484375
1445423872175;43.290771484375;-77.60638427734375;0.10970144718885422;-0.326568603515625;-10.8863525390625;-1.0257720947265625
1445423872218;47.15826416015625;-74.76372528076172;-1.138047456741333;-1.03265380859375;-12.004318237304688;-0.3981475830078125
1445423872252;48.94671630859375;-74.76751708984375;-1.621776819229126;-4.9160919189453125;-14.142166137695312;0.4059906005859375
1445423872275;49.1458740234375;-75.0923080444336;-1.442953109741211;-6.8578033447265625;-15.3778076171875;0.641357421875
1445423872322;46.419036865234375;-76.08002471923828;0.7193556427955627;-3.111663818359375;-15.04437255859375;-0.868865966796875
1445423872363;40.76080322265625;-78.99090576171875;2.864307403564453;0.2618255615234375;-10.19989013671875;0.327545166015625
1445423872394;38.883880615234375;-81.83556365966797;3.1964173316955566;2.693878173828125;-10.474472045898438;1.2885894775390625
1445423872406;37.65277099609375;-85.08795928955078;3.143167734146118;2.693878173828125;-10.474472045898438;1.2885894775390625
1445423872452;33.96435546875;-91.04163360595703;2.277846336364746;1.75244140625;-13.004592895507812;3.347991943359375
1445423872472;28.99163818359375;-93.36412048339844;1.6697403192520142;1.75244140625;-13.004592895507812;3.347991943359375
1445423872505;16.6717529296875;-95.20973205566406;-0.010156490840017796;-3.229339599609375;-12.671173095703125;-0.300079345703125
1445423872539;6.041717529296875;-101.9971694946289;-1.6046562194824219;-3.288177490234375;-9.552658081054688;-1.4180450439453125
1445423872581;359.9660339355469;-107.33917236328125;-2.2304189205169678;-2.3859710693359375;-8.689666748046875;-0.1431732177734375
1445423872628;351.332275390625;-110.0406494140625;-3.5852930545806885;-2.2094573974609375;-8.748504638671875;1.014007568359375
1445423872645;346.76727294921875;-111.63346099853516;-4.500804424285889;-1.405303955078125;-8.1993408203125;0.935546875
1445423872720;336.74884033203125;-115.78121948242188;-4.628578186035156;2.3996734619140625;-5.4338531494140625;0.1510162353515625
1445423872729;336.74884033203125;-115.78121948242188;-4.628578186035156;2.3996734619140625;-5.4338531494140625;0.1510162353515625
1445423872758;335.30682373046875;-115.80113983154297;-4.207857608795166;2.5173492431640625;-5.29656982421875;-0.0451202392578125
1445423872786;333.41729736328125;-114.71493530273438;-3.2912442684173584;2.8507843017578125;-6.1007080078125;-1.3395843505859375
1445423872819;332.6695861816406;-112.39488220214844;-2.861753225326538;3.321502685546875;-10.7686767578125;-5.7133636474609375
1445423872853;331.5155029296875;-111.12953186035156;-3.1367857456207275;2.73309326171875;-12.788848876953125;-8.929931640625
1445423872885;327.589111328125;-111.03461456298828;-4.045158386230469;0.5167999267578125;-11.259017944335938;-9.067230224609375
1445423872918;325.5447998046875;-111.69816589355469;-4.008823394775391;1.850494384765625;-12.494644165039062;-4.59539794921875
1445423872951;322.0469055175781;-111.96708679199219;-4.172830104827881;3.63531494140625;-18.712066650390625;-2.7713623046875
1445423872985;320.77484130859375;-111.95305633544922;-6.106006145477295;4.694427490234375;-9.572265625;-0.4962158203125
1445423873016;321.8557434082031;-112.7061996459961;-5.976881980895996;3.7922210693359375;-6.2576141357421875;5.3093109130859375
1445423873050;328.8153076171875;-111.39527130126953;-3.611872673034668;1.3797760009765625;-7.8462982177734375;2.1907958984375
1445423873084;332.5082092285156;-106.73847961425781;-1.995294213294983;-6.5635986328125;-12.435806274414062;3.5441131591796875
1445423873118;335.1233215332031;-104.33741760253906;-0.39459851384162903;-2.8370819091796875;-9.415359497070312;0.955169677734375
1445423873149;335.2964172363281;-99.78526306152344;0.3118398189544678;-1.111114501953125;-9.238845825195312;0.30792236328125
1445423873182;334.1053466796875;-96.69694519042969;-0.8192083835601807;2.164306640625;-9.846847534179688;-0.3393096923828125
1445423873215;335.0966491699219;-95.319580078125;-0.3191337287425995;1.3993988037109375;-9.748779296875;-0.241241455078125
1445423873249;338.4171142578125;-92.76909637451172;1.161940097808838;-0.7384490966796875;-9.807632446289062;-0.1431732177734375
1445423873281;341.107177734375;-90.68585968017578;2.275103807449341;-0.3657989501953125;-10.219512939453125;-0.4569854736328125
1445423873315;342.9098205566406;-89.60741424560547;2.7164652347564697;0.0068511962890625;-9.611495971679688;-0.6531219482421875
1445423873348;348.03411865234375;-87.63789367675781;3.144364833831787;0.10491943359375;-8.571990966796875;1.072845458984375
1445423873380;350.7795715332031;-86.65025329589844;3.093471050262451;0.1441497802734375;-8.630828857421875;1.7789306640625
1445423873414;355.05841064453125;-83.80807495117188;2.6996450424194336;0.3991241455078125;-9.180007934570312;0.36676025390625
1445423873447;356.0342712402344;-80.1318130493164;2.5097591876983643;0.16375732421875;-10.670608520507812;-1.6337890625
1445423873481;355.2823181152344;-78.35334777832031;2.371487855911255;-3.3470306396484375;-11.121719360351562;-0.1431732177734375
1445423873513;357.886962890625;-76.437255859375;1.6222528219223022;-4.62188720703125;-11.435531616210938;0.935546875
1445423873545;2.346649169921875;-76.783447265625;1.532310128211975;-3.3862457275390625;-14.710952758789062;1.876983642578125
1445423873579;2.0501708984375;-76.65385437011719;1.5776045322418213;-2.22906494140625;-14.92669677734375;-0.182403564453125
1445423873611;357.4293212890625;-75.2242202758789;2.5055129528045654;-2.5232696533203125;-14.652114868164062;-2.02606201171875
1445423873644;355.8106689453125;-75.69364929199219;3.095226287841797;-0.267730712890625;-10.690231323242188;-1.319976806640625
1445423873678;355.1235046386719;-79.41956329345703;3.81931734085083;0.34027099609375;-9.886077880859375;0.386383056640625
1445423873710;355.5107421875;-85.73320770263672;4.867917060852051;0.7521514892578125;-10.984420776367188;1.6220245361328125
1445423873743;354.7272033691406;-89.02017211914062;5.4654998779296875;1.6935882568359375;-12.965362548828125;2.661529541015625
1445423873776;348.34051513671875;-94.89993286132812;4.794745445251465;1.6347503662109375;-11.867019653320312;2.838043212890625
1445423873809;336.7376708984375;-97.16104888916016;1.797271490097046;-0.91497802734375;-11.21978759765625;-0.5550537109375
1445423873842;330.8481750488281;-99.23277282714844;0.15492083132266998;-2.7782440185546875;-12.141616821289062;0.504058837890625
1445423873875;322.359375;-106.905029296875;-1.6082921028137207;-2.2094573974609375;-11.16094970703125;-0.2608642578125
1445423873908;319.0850524902344;-109.94869995117188;-1.839327335357666;-2.542877197265625;-9.3369140625;1.5435638427734375
1445423873942;310.99029541015625;-113.58848571777344;-3.9900174140930176;-2.28790283203125;-8.473922729492188;1.700469970703125
1445423873974;304.10858154296875;-116.6826400756836;-6.496474266052246;-0.0716094970703125;-6.1987762451171875;1.4258880615234375
1445423874008;301.7962951660156;-117.50942993164062;-7.185662269592285;1.8308868408203125;-4.649322509765625;1.0924530029296875
1445423874041;298.78375244140625;-118.25569152832031;-6.794358253479004;1.98779296875;-4.4924163818359375;0.994384765625
1445423874075;297.8099365234375;-117.01170349121094;-4.3914570808410645;2.0858612060546875;-4.6885528564453125;0.07257080078125
1445423874106;298.40478515625;-115.5281982421875;-2.9609222412109375;2.73309326171875;-10.8863525390625;-4.4973297119140625
1445423874140;299.0421142578125;-111.40252685546875;-1.8748271465301514;2.125091552734375;-17.476425170898438;-9.14569091796875
1445423874174;295.96990966796875;-110.4405517578125;-3.2466368675231934;2.4585113525390625;-14.69134521484375;-9.694854736328125
1445423874205;294.1103515625;-112.28223419189453;-3.8808956146240234;2.752716064453125;-5.7476806640625;-3.4382171630859375
1445423874239;291.809814453125;-114.09783172607422;-4.20458984375;3.51763916015625;-11.435531616210938;-1.96722412109375
1445423874271;293.46795654296875;-112.95791625976562;-5.629929065704346;2.9684600830078125;-9.984146118164062;-1.888763427734375
1445423874305;293.5499267578125;-113.35209655761719;-6.2099833488464355;2.38006591796875;-5.9438018798828125;5.3093109130859375
1445423874337;297.5563049316406;-114.70155334472656;-3.1978540420532227;-1.1307220458984375;-7.0029296875;1.465118408203125
1445423874370;300.43878173828125;-112.61664581298828;-0.9655766487121582;-4.0923309326171875;-11.376693725585938;3.2303009033203125
1445423874403;305.36126708984375;-107.55516052246094;1.6422467231750488;-2.9547576904296875;-10.219512939453125;2.4261627197265625
1445423874437;306.758056640625;-103.27444458007812;2.0106019973754883;-1.03265380859375;-10.239120483398438;0.0921783447265625
1445423874470;306.6642150878906;-101.3715591430664;1.7957595586776733;0.987518310546875;-10.19989013671875;0.4648284912109375
1445423874504;310.1891784667969;-97.658935546875;2.4144506454467773;1.0071258544921875;-9.788009643554688;0.445220947265625
1445423874535;313.4164733886719;-93.55684661865234;3.3024096488952637;0.242218017578125;-8.748504638671875;-0.182403564453125
1445423874569;314.0550537109375;-92.2179946899414;3.3424437046051025;-0.522705078125;-9.846847534179688;-0.3197021484375
1445423874601;318.3233642578125;-90.42253112792969;3.6397621631622314;-0.777679443359375;-9.709564208984375;-0.3981475830078125
1445423874634;324.0457458496094;-88.67546844482422;4.05322265625;-0.3657989501953125;-9.611495971679688;-0.005889892578125
1445423874667;325.5686950683594;-87.92412567138672;4.024299144744873;-0.660003662109375;-9.356521606445312;-0.064727783203125
1445423874700;325.92083740234375;-85.90130615234375;3.6424896717071533;-1.03265380859375;-9.00347900390625;0.13140869140625
1445423874733;326.3239440917969;-84.55550384521484;3.4139673709869385;0.0068511962890625;-9.3369140625;0.4059906005859375
1445423874767;327.9715881347656;-82.01739501953125;2.469900369644165;-0.542327880859375;-9.748779296875;0.7394256591796875
1445423874799;329.8136901855469;-79.84400177001953;1.3009443283081055;-2.366363525390625;-11.376693725585938;2.70074462890625
1445423874834;333.3134460449219;-79.08507537841797;0.5951831340789795;-0.5030975341796875;-14.201004028320312;0.5432891845703125
1445423874865;333.5512390136719;-78.31199645996094;0.3601360619068146;0.0068511962890625;-14.455978393554688;-0.3393096923828125
1445423874898;331.2426452636719;-76.61568450927734;0.5781434774398804;-3.9942626953125;-15.299346923828125;0.2883148193359375
1445423874931;330.04034423828125;-76.27745819091797;1.044942855834961;-1.8367919921875;-13.534149169921875;-0.9669342041015625
1445423874964;327.2942810058594;-78.31194305419922;2.9740231037139893;-0.5619354248046875;-10.611770629882812;-0.77081298828125
1445423874998;327.8610534667969;-83.53397369384766;4.467881679534912;1.556304931640625;-8.238555908203125;0.7786407470703125
1445423875030;328.58251953125;-86.53543090820312;4.8964409828186035;2.635040283203125;-8.532760620117188;0.1510162353515625
1445423875063;326.4930419921875;-92.54771423339844;4.8296098709106445;3.3607330322265625;-10.454864501953125;1.7789306640625
1445423875096;317.8497619628906;-96.97712707519531;3.640522003173828;-0.522705078125;-12.455429077148438;-0.3785400390625
1445423875129;312.0323486328125;-98.43321228027344;2.661547899246216;-1.228790283203125;-13.475311279296875;0.58251953125
1445423875163;304.9382629394531;-104.4193344116211;0.008074991405010223;0.7913818359375;-11.710113525390625;1.249359130859375
1445423875195;302.9060974121094;-106.70500183105469;-1.2374719381332397;3.262664794921875;-10.415634155273438;0.621734619140625
1445423875228;298.0023193359375;-109.786865234375;-4.167355060577393;3.69415283203125;-10.08221435546875;0.5236663818359375
1445423875260;293.69744873046875;-112.76227569580078;-7.396446228027344;1.928955078125;-8.120880126953125;0.935546875
1445423875294;292.24188232421875;-113.91027069091797;-8.769832611083984;0.869842529296875;-6.49298095703125;0.36676025390625
1445423875327;290.6304626464844;-115.52167510986328;-10.554123878479004;1.1444244384765625;-6.2576141357421875;-0.182403564453125
1445423875361;290.1173095703125;-116.0405502319336;-10.435275077819824;2.5173492431640625;-6.1595458984375;-2.516387939453125
1445423875395;289.9167785644531;-115.58312225341797;-10.005290031433105;2.811553955078125;-7.042144775390625;-3.8108673095703125
1445423875426;289.656005859375;-113.76060485839844;-8.700882911682129;3.380340576171875;-7.179443359375;-4.9288177490234375
1445423875459;290.3994140625;-111.39268493652344;-8.116377830505371;5.322052001953125;-10.905975341796875;-7.0274505615234375
1445423875495;289.81793212890625;-110.04318237304688;-8.76811695098877;4.498291015625;-13.808746337890625;-5.2818603515625
1445423875525;287.5997619628906;-108.6624755859375;-10.227913856506348;3.9883575439453125;-9.709564208984375;-4.2619781494140625
1445423875560;286.97869873046875;-108.9781494140625;-10.354859352111816;3.75299072265625;-4.7081756591796875;-1.96722412109375
1445423875592;285.3285217285156;-110.46888732910156;-9.9749116897583;5.1651458740234375;-8.630828857421875;-3.0067291259765625
1445423875624;285.97747802734375;-109.4955062866211;-10.105244636535645;4.94940185546875;-20.183059692382812;-1.0453948974609375
1445423875658;287.3289489746094;-108.81639862060547;-10.489211082458496;2.0074005126953125;-9.513427734375;1.7200775146484375
1445423875692;289.5308532714844;-109.47636413574219;-10.506103515625;0.1441497802734375;-5.9045867919921875;3.093017578125
1445423875725;295.5108337402344;-109.02885437011719;-6.194658279418945;-5.2102813720703125;-7.35595703125;1.7985382080078125
1445423875756;299.08837890625;-106.33148956298828;-3.4480669498443604;-6.0340423583984375;-11.965087890625;0.13140869140625
1445423875792;303.2735900878906;-100.81204986572266;-0.42469650506973267;-3.8765869140625;-11.10211181640625;-0.182403564453125
1445423875822;304.954345703125;-97.29763793945312;-0.2548830211162567;1.556304931640625;-9.00347900390625;0.4256134033203125
1445423875858;306.57415771484375;-95.83047485351562;-0.29256048798561096;1.3797760009765625;-8.748504638671875;1.4062652587890625
1445423875891;310.5129699707031;-93.18024444580078;0.422544926404953;-0.660003662109375;-9.68994140625;1.44549560546875
1445423875921;312.07952880859375;-90.7708511352539;1.096342921257019;-0.4638671875;-10.19989013671875;0.13140869140625
1445423875955;312.939208984375;-89.82195281982422;1.3444702625274658;0.1441497802734375;-9.886077880859375;0.0921783447265625
1445423875988;316.9372863769531;-88.72814178466797;1.5248404741287231;-0.01275634765625;-8.76812744140625;0.6609649658203125
1445423876020;320.0820007324219;-88.45609283447266;1.6013089418411255;-0.228515625;-9.631103515625;0.5236663818359375
1445423876053;323.09368896484375;-87.41230010986328;1.548112392425537;0.3991241455078125;-9.395751953125;1.308197021484375
1445423876087;324.7765197753906;-84.49046325683594;0.8336591124534607;0.8306121826171875;-9.984146118164062;-0.3589324951171875
1445423876119;325.0395202636719;-82.9637451171875;0.3811171054840088;-0.4834747314453125;-10.8275146484375;-1.3003692626953125
1445423876152;325.6197814941406;-80.53961944580078;-0.7936114072799683;-2.739013671875;-11.082489013671875;-0.005889892578125
1445423876185;331.3251953125;-81.108154296875;-1.170332670211792;-3.1508941650390625;-11.631668090820312;2.210418701171875
1445423876218;332.26788330078125;-81.60941314697266;-1.396298885345459;-1.8367919921875;-12.631942749023438;-0.1627960205078125
1445423876251;329.3198547363281;-79.80000305175781;-2.0277292728424072;-3.3470306396484375;-14.181396484375;-1.1630706787109375
1445423876285;325.8893127441406;-79.96551513671875;-1.7118984460830688;-6.3674774169921875;-15.5543212890625;-0.4177703857421875
1445423876318;323.4758605957031;-80.83866119384766;-1.1551178693771362;-2.366363525390625;-13.867584228515625;0.4844512939453125
1445423876351;319.8550720214844;-84.9610824584961;-0.3902868628501892;2.1446990966796875;-9.238845825195312;1.249359130859375
1445423876383;319.17437744140625;-87.61160278320312;-0.43170279264450073;3.0861358642578125;-9.846847534179688;1.4062652587890625
1445423876415;318.3125;-93.10863494873047;-0.18454349040985107;2.5958099365234375;-11.631668090820312;1.072845458984375
1445423876449;313.5478515625;-97.54523468017578;-0.11769619584083557;0.654083251953125;-12.220062255859375;2.2300262451171875
1445423876482;308.9952392578125;-98.87860107421875;-0.6213118433952332;-2.601715087890625;-11.90625;-0.3785400390625
1445423876516;297.8973693847656;-101.9599838256836;-1.8436083793640137;-3.6412200927734375;-11.39630126953125;0.1510162353515625
1445423876548;290.26300048828125;-107.41993713378906;-1.7295640707015991;-2.7782440185546875;-9.023101806640625;0.6021270751953125
1445423876583;287.29229736328125;-108.5912857055664;-1.5374568700790405;-3.052825927734375;-8.277786254882812;3.0537872314453125
1445423876614;278.46240234375;-109.95183563232422;-2.9443116188049316;-2.425201416015625;-8.356246948242188;2.70074462890625
1445423876647;269.8617248535156;-112.43448638916016;-5.28111457824707;0.1441497802734375;-8.709274291992188;-0.0451202392578125
1445423876680;267.78509521484375;-113.58329772949219;-5.189623832702637;0.987518310546875;-8.513153076171875;-0.9669342041015625
1445423876713;264.0080261230469;-114.6886978149414;-3.6169376373291016;2.0074005126953125;-7.042144775390625;-0.810028076171875
1445423876746;261.57672119140625;-114.6692886352539;-3.181300640106201;2.3996734619140625;-6.8460235595703125;-1.1630706787109375
1445423876779;257.65966796875;-114.4673080444336;-2.8466413021087646;2.7919464111328125;-7.5128631591796875;-1.6533966064453125
1445423876812;255.6588134765625;-113.5995864868164;-3.0380160808563232;2.9096221923828125;-8.3170166015625;-3.2420806884765625
1445423876844;254.5179443359375;-112.90011596679688;-3.34987735748291;0.7325439453125;-10.729446411132812;-8.204238891601562
1445423876878;250.27642822265625;-111.92214965820312;-4.469107151031494;-1.0718841552734375;-12.063156127929688;-9.126068115234375
1445423876911;245.04010009765625;-112.39008331298828;-5.6237688064575195;-0.6992340087890625;-7.297119140625;-6.6940155029296875
1445423876945;242.4002685546875;-112.78750610351562;-5.72371244430542;1.811279296875;-10.866744995117188;-2.3006439208984375
1445423876977;237.88092041015625;-112.01499938964844;-6.294986724853516;3.6745452880859375;-17.7117919921875;-1.143463134765625
1445423877011;237.29901123046875;-110.48082733154297;-8.624687194824219;4.4002227783203125;-14.98553466796875;-2.908660888671875
1445423877046;234.68405151367188;-110.23387145996094;-10.980695724487305;-1.464141845703125;-3.962860107421875;4.0736846923828125
1445423877076;236.359130859375;-112.12433624267578;-12.204170227050781;-2.7782440185546875;-5.1985015869140625;1.1512908935546875
1445423877110;238.90426635742188;-111.44974517822266;-12.412535667419434;-7.642333984375;-13.0438232421875;-1.75146484375
1445423877142;241.31546020507812;-107.93622589111328;-12.541434288024902;-2.68017578125;-13.259567260742188;-1.496490478515625
1445423877176;242.60617065429688;-106.55789947509766;-9.552630424499512;4.1060333251953125;-9.866470336914062;1.641632080078125
1445423877209;242.36880493164062;-104.18608093261719;-8.450416564941406;2.7134857177734375;-9.042709350585938;-1.3592071533203125
1445423877241;240.85382080078125;-99.12723541259766;-8.103408813476562;0.8894500732421875;-8.88580322265625;-0.300079345703125
1445423877274;242.12420654296875;-98.99424743652344;-8.256745338439941;-1.9544830322265625;-10.14105224609375;2.46539306640625
1445423877307;244.699951171875;-98.96916198730469;-7.5354204177856445;-1.915252685546875;-9.866470336914062;2.092742919921875
1445423877341;245.9556884765625;-97.30045318603516;-6.278192043304443;-0.9345855712890625;-9.807632446289062;1.9750518798828125
1445423877375;244.21310424804688;-94.41654205322266;-5.258735179901123;0.7717742919921875;-9.68994140625;2.0535125732421875
1445423877406;244.16763305664062;-92.91059112548828;-4.576667308807373;1.1444244384765625;-9.944915771484375;1.582794189453125
1445423877441;247.1297607421875;-89.27951049804688;-3.397526979446411;2.49774169921875;-9.434967041015625;1.38665771484375
1445423877476;249.68939208984375;-85.5102767944336;-3.5123291015625;3.0861358642578125;-12.02392578125;-2.457550048828125
1445423877505;247.20068359375;-84.38996124267578;-3.3302104473114014;0.8894500732421875;-12.41619873046875;-3.908935546875
1445423877540;243.62863159179688;-84.30006408691406;-2.361581563949585;-2.5624847412109375;-9.356521606445312;-1.143463134765625
1445423877571;247.33523559570312;-84.29402923583984;-2.2648351192474365;0.28143310546875;-9.434967041015625;-0.064727783203125
1445423877605;256.079833984375;-84.29985809326172;-2.343748092651367;1.0071258544921875;-10.02337646484375;1.1709136962890625
1445423877636;257.2987060546875;-83.71179962158203;-2.9063169956207275;0.16375732421875;-10.376419067382812;0.5236663818359375
1445423877670;256.0257263183594;-83.33470153808594;-2.853553533554077;-1.4837646484375;-13.357635498046875;-0.3393096923828125
1445423877703;254.849365234375;-82.22344207763672;-2.7812936305999756;-3.562774658203125;-14.80902099609375;0.994384765625
1445423877737;255.55447387695312;-82.90730285644531;-1.4502108097076416;-4.308074951171875;-14.887466430664062;0.01373291015625
1445423877769;252.34844970703125;-83.54882049560547;-0.4536914825439453;-3.052825927734375;-13.377243041992188;-0.7315826416015625
1445423877802;244.84963989257812;-85.78180694580078;-0.2615886330604553;-0.5030975341796875;-10.180282592773438;-1.0453948974609375
1445423877836;241.69903564453125;-90.11572265625;-2.1011552810668945;2.61541748046875;-10.5333251953125;1.759307861328125
1445423877868;243.44351196289062;-93.89099884033203;-3.3146612644195557;2.0074005126953125;-10.31756591796875;1.6024017333984375
1445423877902;241.074462890625;-100.63482666015625;-4.088410377502441;0.9090576171875;-10.866744995117188;2.328094482421875
1445423877934;235.90277099609375;-100.63697814941406;-4.845027923583984;-1.2483978271484375;-11.690505981445312;0.327545166015625
1445423877967;225.920166015625;-101.73211669921875;-7.494058132171631;-2.11138916015625;-11.474761962890625;-0.1431732177734375
1445423878000;217.80224609375;-106.63687133789062;-10.07990550994873;-1.3660736083984375;-10.905975341796875;-1.261138916015625
1445423878033;215.72988891601562;-109.31568908691406;-10.519783973693848;0.16375732421875;-8.807342529296875;-0.2216339111328125
1445423878066;210.94744873046875;-111.90448760986328;-11.12161636352539;0.3795013427734375;-8.1405029296875;0.1706390380859375
1445423878099;205.793701171875;-113.28289794921875;-11.751934051513672;0.928680419921875;-6.1595458984375;0.7001953125
1445423878134;203.9228515625;-114.0530776977539;-12.059155464172363;2.8507843017578125;-5.29656982421875;-0.0254974365234375
1445423878165;202.78509521484375;-115.171142578125;-11.526250839233398;3.0272979736328125;-5.218109130859375;-0.6531219482421875
1445423878199;203.55963134765625;-114.46809387207031;-9.88532543182373;2.8507843017578125;-6.2183990478515625;-2.1241302490234375
1445423878231;204.138916015625;-113.38514709472656;-9.274208068847656;3.0861358642578125;-7.92474365234375;-3.16363525390625
1445423878266;204.15863037109375;-110.73709106445312;-9.181477546691895;2.360443115234375;-12.553482055664062;-7.811981201171875
1445423878298;201.9091796875;-109.42481994628906;-9.321460723876953;-0.6796112060546875;-11.965087890625;-9.400650024414062
1445423878330;200.583984375;-109.77792358398438;-8.893754005432129;-1.0718841552734375;-9.023101806640625;-6.615570068359375
1445423878364;197.64678955078125;-110.369384765625;-8.654339790344238;1.9485626220703125;-13.122268676757812;-3.0067291259765625
1445423878396;197.01593017578125;-110.0091781616211;-9.414887428283691;4.125640869140625;-14.397140502929688;-3.34014892578125
1445423878429;195.88037109375;-109.70738220214844;-11.163416862487793;3.498016357421875;-9.12115478515625;-0.810028076171875
1445423878462;195.99066162109375;-110.5050277709961;-10.978009223937988;3.3999481201171875;-5.7672882080078125;2.504608154296875
1445423878497;200.29168701171875;-109.80947875976562;-8.741536140441895;-3.1901092529296875;-10.670608520507812;0.1706390380859375
1445423878528;204.3974609375;-106.38262176513672;-7.285366535186768;-5.426025390625;-11.39630126953125;0.994384765625
1445423878561;207.01373291015625;-103.02674102783203;-5.909998416900635;-2.7978515625;-9.258453369140625;0.5432891845703125
1445423878595;207.03509521484375;-101.2833480834961;-5.729756832122803;-1.1307220458984375;-9.591873168945312;0.2098541259765625
1445423878626;205.9840087890625;-97.64412689208984;-6.043592929840088;2.3996734619140625;-10.788284301757812;0.2686920166015625
1445423878660;206.78485107421875;-96.22481536865234;-5.552382946014404;1.47784423828125;-9.68994140625;0.24908447265625
1445423878693;210.71209716796875;-94.23558044433594;-4.267455101013184;0.1833648681640625;-9.729171752929688;0.955169677734375
1445423878727;215.31549072265625;-92.5753402709961;-3.2147819995880127;-0.228515625;-9.513427734375;1.072845458984375
1445423878759;216.7568359375;-91.53421783447266;-2.630558967590332;0.4971771240234375;-8.76812744140625;1.4847259521484375
1445423878792;220.01803588867188;-89.56262969970703;-1.8558855056762695;0.34027099609375;-9.160385131835938;1.5435638427734375
1445423878825;223.7569580078125;-87.33930969238281;-1.7278763055801392;0.536407470703125;-9.572265625;0.562896728515625
1445423878858;224.8284912109375;-85.9697265625;-1.7364760637283325;0.4579620361328125;-10.180282592773438;-0.1039581298828125
1445423878893;226.07443237304688;-83.17503356933594;-1.7075250148773193;0.418731689453125;-10.415634155273438;-0.3393096923828125
1445423878925;226.51177978515625;-80.58021545410156;-1.9419333934783936;-0.091217041015625;-10.572540283203125;-1.1042327880859375
1445423878958;227.2122802734375;-79.67047119140625;-2.24849796295166;-1.287628173828125;-11.062881469726562;-0.692352294921875
1445423878991;232.96246337890625;-79.32447814941406;-2.789555788040161;-3.48431396484375;-12.730010986328125;-0.064727783203125
1445423879024;236.70932006835938;-79.83399200439453;-2.6139750480651855;-3.9746551513671875;-14.299072265625;1.190521240234375
1445423879056;239.65444946289062;-80.89342498779297;-1.6598196029663086;-4.425750732421875;-14.593276977539062;0.2883148193359375
1445423879091;235.72821044921875;-81.08057403564453;-0.05211606249213219;-2.1309967041015625;-12.965362548828125;-2.2221832275390625
1445423879122;233.8953857421875;-82.10757446289062;0.48911410570144653;0.5167999267578125;-9.238845825195312;-0.2608642578125
1445423879157;233.22640991210938;-86.42146301269531;0.373666912317276;1.928955078125;-8.94464111328125;0.5432891845703125
1445423879188;233.282470703125;-92.21815490722656;-0.7003543376922607;2.8507843017578125;-10.6510009765625;1.0924530029296875
1445423879223;233.1063232421875;-95.27483367919922;-1.4079118967056274;2.0074005126953125;-11.690505981445312;2.8184356689453125
1445423879255;227.36187744140625;-99.76151275634766;-2.7469234466552734;0.3991241455078125;-11.886642456054688;-0.9865570068359375
1445423879288;217.543212890625;-101.87052917480469;-4.234394550323486;-2.7586212158203125;-12.220062255859375;-0.241241455078125
1445423879320;214.31051635742188;-104.60047149658203;-4.8267316818237305;-3.170501708984375;-11.21978759765625;-0.182403564453125
1445423879354;209.78787231445312;-108.38420104980469;-6.304862022399902;-0.6992340087890625;-9.572265625;0.6021270751953125
1445423879386;205.26177978515625;-111.3127212524414;-9.248186111450195;1.12481689453125;-8.925033569335938;0.2294769287109375
1445423879420;203.4478759765625;-112.74016571044922;-10.42089557647705;1.497467041015625;-8.1993408203125;-0.064727783203125
1445423879453;200.47576904296875;-114.47547149658203;-10.996902465820312;1.36016845703125;-7.12060546875;-0.0254974365234375
1445423879486;199.337158203125;-114.806884765625;-10.767192840576172;1.222869873046875;-5.6496124267578125;-0.2608642578125
1445423879518;197.9970703125;-114.99300384521484;-9.874407768249512;1.2817230224609375;-5.35540771484375;-0.633514404296875
1445423879551;197.86590576171875;-114.0263442993164;-8.755373001098633;1.2817230224609375;-6.66949462890625;-2.5556182861328125
1445423879585;197.929931640625;-113.09085083007812;-8.342700004577637;1.30133056640625;-8.591598510742188;-5.419158935546875
1445423879617;196.973388671875;-110.92076873779297;-7.757691860198975;1.6935882568359375;-9.297683715820312;-6.537109375
1445423879650;195.1656494140625;-109.17829895019531;-7.144491195678711;2.183929443359375;-10.572540283203125;-6.87054443359375
1445423879685;194.2017822265625;-108.28923797607422;-6.758525848388672;5.655487060546875;-13.632217407226562;-2.37908935546875
1445423879716;191.87225341796875;-106.37561798095703;-6.882796287536621;7.3618316650390625;-19.241622924804688;-0.4373779296875
1445423879749;193.8768310546875;-104.93143463134766;-7.888112545013428;4.145263671875;-12.278900146484375;-0.123565673828125
1445423879783;195.43377685546875;-104.50738525390625;-7.871832370758057;2.242767333984375;-8.297409057617188;-0.064727783203125
1445423879816;197.7652587890625;-103.53520965576172;-7.072474479675293;-2.8174591064453125;-4.4924163818359375;3.857940673828125
1445423879848;206.9801025390625;-101.26526641845703;-3.8461151123046875;-2.0721588134765625;-9.788009643554688;2.8576507568359375
1445423879882;210.5450439453125;-98.5435562133789;-3.319795608520508;-3.5823822021484375;-11.043258666992188;2.2300262451171875
1445423879914;213.46820068359375;-92.64002990722656;-2.545393466949463;-2.5036468505859375;-10.297958374023438;2.7399749755859375
1445423879950;214.475830078125;-91.04069519042969;-1.8383004665374756;1.47784423828125;-11.10211181640625;-1.2219085693359375
1445423879980;214.14923095703125;-89.07328796386719;-2.020781993865967;1.850494384765625;-10.670608520507812;-0.4766082763671875
1445423880013;218.175537109375;-88.21747589111328;-1.0691642761230469;0.28143310546875;-9.846847534179688;1.818145751953125
1445423880050;221.73468017578125;-87.37193298339844;-0.745669424533844;-0.8169097900390625;-9.709564208984375;1.0532379150390625
1445423880079;225.91986083984375;-86.9735107421875;0.2465432733297348;-0.9345855712890625;-9.356521606445312;0.7786407470703125
1445423880112;229.96563720703125;-87.43241119384766;1.4134682416915894;-0.895355224609375;-9.45458984375;1.072845458984375
1445423880145;232.8121337890625;-87.20144653320312;1.7728466987609863;-0.4442596435546875;-9.395751953125;0.9159393310546875
1445423880179;237.0208740234375;-86.47187805175781;2.0323867797851562;0.3991241455078125;-9.042709350585938;0.641357421875
1445423880212;238.6226806640625;-85.36544036865234;1.7869678735733032;0.301055908203125;-8.88580322265625;0.7982635498046875
1445423880245;239.67877197265625;-84.46640014648438;1.4819679260253906;-0.01275634765625;-9.101547241210938;0.5236663818359375
1445423880277;242.07632446289062;-82.44629669189453;0.7677158117294312;-1.1307220458984375;-10.297958374023438;-0.4177703857421875
1445423880310;243.2376708984375;-81.55914306640625;0.537531852722168;-2.8762969970703125;-11.376693725585938;-0.0843353271484375
1445423880344;246.74893188476562;-80.79093933105469;0.47179895639419556;-3.0920562744140625;-11.612045288085938;0.2883148193359375
1445423880377;249.40301513671875;-80.66273498535156;0.392059326171875;-0.7580718994140625;-12.514266967773438;-1.202301025390625
1445423880410;249.3446044921875;-80.10466003417969;0.19972537457942963;-3.052825927734375;-14.318679809570312;-0.692352294921875
1445423880442;248.75189208984375;-79.86854553222656;0.4966464042663574;-4.0531005859375;-14.80902099609375;-1.202301025390625
1445423880475;245.87417602539062;-81.80599975585938;1.6868717670440674;-2.22906494140625;-11.729736328125;-0.9669342041015625
1445423880508;245.03021240234375;-83.99710083007812;1.9657264947891235;-0.8757476806640625;-9.768402099609375;0.4256134033203125
1445423880541;246.77182006835938;-90.50794219970703;1.5237661600112915;2.9096221923828125;-11.10211181640625;0.9747772216796875
1445423880575;246.3631591796875;-94.83895874023438;0.8693013191223145;1.7720489501953125;-11.474761962890625;1.1512908935546875
1445423880606;240.45758056640625;-100.35530853271484;-0.7718432545661926;0.7913818359375;-11.670883178710938;-0.5354461669921875
1445423880640;230.31414794921875;-102.31217193603516;-2.072042942047119;-2.6409454345703125;-12.847686767578125;0.19024658203125
1445423880674;223.714599609375;-106.86711120605469;-3.128237247467041;-2.484039306640625;-9.96453857421875;0.994384765625
1445423880707;220.9849853515625;-108.8392105102539;-4.398736000061035;-2.032928466796875;-9.160385131835938;0.955169677734375
1445423880744;216.9481201171875;-112.81663513183594;-6.876380443572998;0.869842529296875;-8.807342529296875;-0.6727447509765625
1445423880773;215.39639282226562;-114.31400299072266;-7.647380828857422;0.869842529296875;-7.1009979248046875;-0.064727783203125
1445423880808;212.45025634765625;-116.0719223022461;-7.830432891845703;0.6933135986328125;-6.49298095703125;0.386383056640625
1445423880844;210.30718994140625;-116.17241668701172;-7.411599636077881;1.497467041015625;-5.0808258056640625;0.4256134033203125
1445423880876;209.6007080078125;-115.51996612548828;-6.548238754272461;2.3996734619140625;-5.1200408935546875;-1.06500244140625
1445423880906;210.04046630859375;-114.71221160888672;-5.733750343322754;2.5958099365234375;-6.49298095703125;-2.14373779296875
1445423880938;211.5223388671875;-111.83104705810547;-4.308004856109619;1.47784423828125;-12.41619873046875;-6.4586639404296875
1445423880970;211.4168701171875;-110.14216613769531;-4.11945915222168;0.026458740234375;-14.259841918945312;-9.067230224609375
1445423881004;209.7864990234375;-109.04788970947266;-3.9804623126983643;-0.4638671875;-11.729736328125;-7.6550750732421875
1445423881037;206.9918212890625;-110.6694107055664;-3.918128728866577;1.105194091796875;-9.415359497070312;-3.5558929443359375
1445423881069;205.3516845703125;-110.75350189208984;-4.38053035736084;1.2621002197265625;-13.985260009765625;-1.5357208251953125
1445423881103;205.96124267578125;-110.02648162841797;-5.039295196533203;3.890289306640625;-14.102935791015625;-2.20257568359375
1445423881136;206.16162109375;-110.00623321533203;-5.314123630523682;2.811553955078125;-6.66949462890625;3.642181396484375
1445423881168;207.467529296875;-110.1896743774414;-4.809150695800781;1.53668212890625;-6.7675628662109375;3.1322479248046875
1445423881201;211.44189453125;-107.4468994140625;-3.7590456008911133;-3.170501708984375;-10.19989013671875;1.6808624267578125
1445423881234;214.60989379882812;-105.08349609375;-3.154170274734497;-3.8373565673828125;-10.5333251953125;-0.2608642578125
1445423881268;219.26031494140625;-100.45437622070312;-2.1746323108673096;-2.091766357421875;-10.729446411132812;-0.751190185546875
1445423881300;219.93267822265625;-97.78766632080078;-2.5711398124694824;0.595245361328125;-9.944915771484375;0.36676025390625
1445423881334;221.09442138671875;-96.78116607666016;-2.497438669204712;0.7129364013671875;-10.631378173828125;0.4256134033203125
1445423881366;223.86422729492188;-94.94116973876953;-1.3345295190811157;0.3206634521484375;-10.101821899414062;0.4059906005859375
1445423881399;224.76519775390625;-94.14453125;-0.9122751951217651;0.026458740234375;-9.729171752929688;0.1510162353515625
1445423881434;227.52874755859375;-93.25439453125;-0.275245726108551;-0.4638671875;-9.788009643554688;0.3471527099609375
1445423881465;231.49420166015625;-92.50714111328125;0.24053607881069183;-1.0130462646484375;-9.925308227539062;0.4059906005859375
1445423881499;233.46417236328125;-91.50181579589844;0.5625365972518921;-0.405029296875;-9.611495971679688;0.7394256591796875
1445423881531;233.97311401367188;-90.7998046875;0.7043622732162476;-0.091217041015625;-9.827239990234375;0.19024658203125
1445423881564;234.96548461914062;-89.38629913330078;0.8734272122383118;0.301055908203125;-9.768402099609375;-0.515838623046875
1445423881597;235.459716796875;-88.8087387084961;0.9351763725280762;-0.6796112060546875;-10.042984008789062;-0.7904205322265625
1445423881630;236.72650146484375;-88.23036193847656;1.182862639427185;-1.1895599365234375;-10.435256958007812;-1.18267822265625
1445423881664;238.2080078125;-88.48468017578125;1.3620221614837646;-0.895355224609375;-10.337188720703125;-1.18267822265625
1445423881697;238.92523193359375;-88.72777557373047;1.453628659248352;-0.287353515625;-10.749069213867188;-0.0451202392578125
1445423881729;239.47869873046875;-89.4848403930664;1.5936596393585205;-1.4445343017578125;-13.318405151367188;-0.868865966796875
1445423881762;238.89889526367188;-90.74813079833984;1.7150673866271973;-1.6210479736328125;-12.47503662109375;-0.2608642578125
1445423881795;236.65423583984375;-94.3587417602539;1.0100734233856201;0.026458740234375;-11.004043579101562;-0.1431732177734375
1445423881829;234.48516845703125;-98.28667449951172;-1.195550799369812;-0.7972869873046875;-9.356521606445312;1.21014404296875
1445423881861;230.77276611328125;-101.66893005371094;-3.1178700923919678;-0.836517333984375;-10.611770629882812;0.7394256591796875
1445423881893;228.35238647460938;-102.88253021240234;-3.7360317707061768;-1.2483978271484375;-10.729446411132812;0.327545166015625
1445423881927;223.4019775390625;-104.19890594482422;-4.324757099151611;-1.4249267578125;-10.31756591796875;0.1706390380859375
1445423881960;220.910400390625;-104.52618408203125;-4.2868804931640625;-1.6210479736328125;-10.297958374023438;0.5236663818359375
1445423881994;216.19802856445312;-104.54931640625;-4.018165111541748;-1.0130462646484375;-9.944915771484375;0.7786407470703125
1445423882026;213.48599243164062;-104.14118957519531;-3.5288944244384766;0.1441497802734375;-9.788009643554688;0.7198028564453125
1445423882060;212.37106323242188;-103.61324310302734;-3.3026652336120605;1.2621002197265625;-10.160659790039062;0.5236663818359375
1445423882092;208.3961181640625;-101.5580062866211;-2.830916166305542;1.1444244384765625;-10.02337646484375;0.111785888671875
1445423882126;202.5576171875;-100.01628112792969;-2.887326240539551;0.6737060546875;-9.591873168945312;-0.6138916015625
1445423882158;199.78289794921875;-99.65582275390625;-3.200761318206787;1.046356201171875;-9.631103515625;-0.5550537109375
1445423882191;195.008544921875;-99.32231903076172;-4.208920478820801;1.556304931640625;-10.611770629882812;-1.4180450439453125
1445423882224;190.405517578125;-99.62101745605469;-5.540496826171875;-0.3854217529296875;-9.317291259765625;0.111785888671875
1445423882258;188.4156494140625;-99.97239685058594;-6.0499372482299805;-0.7972869873046875;-9.160385131835938;-2.20257568359375
1445423882293;186.77996826171875;-99.23663330078125;-5.942193984985352;-2.5232696533203125;-8.218948364257812;4.6228485107421875
1445423882323;187.6595458984375;-98.46929168701172;-5.901522636413574;1.6543731689453125;-11.631668090820312;1.6808624267578125
1445423882356;186.638427734375;-97.21663665771484;-6.583845138549805;2.5761871337890625;-12.180831909179688;-1.261138916015625
1445423882391;179.84840393066406;-94.61669158935547;-7.572495937347412;1.98779296875;-10.984420776367188;-1.574951171875
1445423882422;177.6552276611328;-93.96343231201172;-8.05727767944336;0.026458740234375;-9.709564208984375;-0.2608642578125
1445423882455;178.2832489013672;-94.31808471679688;-7.595086097717285;-0.326568603515625;-9.3369140625;0.111785888671875
1445423882488;178.47097778320312;-93.82730102539062;-6.6129302978515625;0.04608154296875;-9.984146118164062;-0.123565673828125
1445423882522;177.72723388671875;-93.237548828125;-6.227200508117676;0.3991241455078125;-10.160659790039062;-0.064727783203125
1445423882554;175.24850463867188;-91.64051818847656;-5.5972490310668945;0.10491943359375;-10.160659790039062;-0.182403564453125
1445423882593;172.07009887695312;-89.5462875366211;-4.893544673919678;-0.228515625;-10.003753662109375;-0.182403564453125
1445423882621;171.10406494140625;-88.44926452636719;-4.697930335998535;0.3991241455078125;-10.749069213867188;0.1510162353515625
1445423882653;171.74269104003906;-86.55775451660156;-4.4193010330200195;0.8109893798828125;-10.8863525390625;0.0921783447265625
1445423882686;172.08102416992188;-86.29838562011719;-4.102366924285889;2.066253662109375;-11.33746337890625;0.4648284912109375
1445423882720;170.01016235351562;-86.46559143066406;-3.6818437576293945;1.98779296875;-11.082489013671875;-0.123565673828125
1445423882752;168.9149169921875;-86.79108428955078;-4.162811279296875;0.7129364013671875;-9.886077880859375;0.5432891845703125
1445423882785;170.08096313476562;-87.57589721679688;-4.514469146728516;0.04608154296875;-9.670333862304688;1.2885894775390625
1445423882821;172.3926239013672;-88.97376251220703;-4.5875091552734375;-0.9934234619140625;-9.00347900390625;2.52423095703125
1445423882851;170.78785705566406;-89.74175262451172;-4.434055805206299;0.3795013427734375;-11.180557250976562;1.7789306640625
1445423882884;169.00816345214844;-89.60684967041016;-4.431097030639648;1.0267486572265625;-10.5921630859375;1.072845458984375
1445423882917;166.95277404785156;-89.10983276367188;-4.624646186828613;1.3209381103515625;-10.25872802734375;0.111785888671875
1445423882950;167.50579833984375;-89.2947006225586;-4.929894924163818;1.2032623291015625;-10.631378173828125;1.0336151123046875
1445423882983;168.26022338867188;-89.4754638671875;-5.009635925292969;1.18365478515625;-10.160659790039062;1.1512908935546875
1445423883016;168.63011169433594;-89.56095123291016;-5.025544166564941;0.5167999267578125;-9.984146118164062;1.1709136962890625
1445423883050;168.72427368164062;-89.51424407958984;-5.047316551208496;1.6543731689453125;-10.297958374023438;0.01373291015625
1445423883081;168.3459014892578;-89.39293670654297;-5.048215389251709;1.53668212890625;-10.31756591796875;0.4059906005859375
1445423883116;167.4711151123047;-88.65029907226562;-5.353705406188965;-0.3854217529296875;-9.297683715820312;0.5432891845703125
1445423883148;167.5639190673828;-88.83425903320312;-5.531425952911377;0.5756378173828125;-10.729446411132812;0.6609649658203125
1445423883182;167.28514099121094;-88.90785217285156;-5.445265293121338;0.987518310546875;-10.5333251953125;0.4059906005859375
1445423883215;165.5274200439453;-86.79056549072266;-4.817758083343506;0.654083251953125;-10.925582885742188;-0.123565673828125
1445423883248;163.96202087402344;-85.34587097167969;-4.239940643310547;1.8897247314453125;-10.239120483398438;2.269256591796875
1445423883280;164.13941955566406;-83.99221801757812;-2.8878605365753174;3.046905517578125;-11.808181762695312;2.779205322265625
1445423883313;169.03675842285156;-86.80839538574219;-3.8097426891326904;1.556304931640625;-11.141326904296875;3.6814117431640625
1445423883346;170.2908935546875;-88.60679626464844;-4.496605396270752;1.928955078125;-10.7686767578125;2.5634613037109375
1445423883380;167.37771606445312;-90.97471618652344;-7.358419895172119;3.380340576171875;-8.4935302734375;0.58251953125
1445423883412;158.15284729003906;-93.65797424316406;-10.322251319885254;3.63531494140625;-9.317291259765625;-4.1835174560546875
1445423883446;152.3186798095703;-95.8917236328125;-11.498865127563477;4.439453125;-9.670333862304688;-5.1249542236328125
1445423883479;152.22723388671875;-103.5169906616211;-13.787056922912598;4.9101715087890625;-9.670333862304688;-0.810028076171875
1445423883511;156.7802276611328;-105.9880599975586;-14.026433944702148;2.5761871337890625;-12.41619873046875;2.4261627197265625
1445423883545;163.09100341796875;-106.77722930908203;-14.848065376281738;0.987518310546875;-11.259017944335938;0.896331787109375
1445423883579;165.40597534179688;-109.06224822998047;-17.53021812438965;0.1441497802734375;-7.4148101806640625;-4.105072021484375
1445423883610;167.00660705566406;-109.96940612792969;-18.44398307800293;1.928955078125;-8.003204345703125;-3.889312744140625
1445423883643;170.0212860107422;-109.90568542480469;-19.32841682434082;2.301605224609375;-8.983871459960938;-3.144012451171875
1445423883675;171.0087890625;-110.06383514404297;-20.078628540039062;3.4195709228515625;-8.179718017578125;-2.4771575927734375
1445423883709;171.84532165527344;-110.60639953613281;-20.613298416137695;4.125640869140625;-7.2186737060546875;-2.339874267578125
1445423883743;175.4130859375;-111.64179992675781;-21.52781105041504;4.9690093994140625;-7.2186737060546875;-1.771087646484375
1445423883775;177.55398559570312;-111.92147064208984;-21.62415885925293;3.046905517578125;-6.6498870849609375;-2.006439208984375
1445423883809;181.6793212890625;-111.87259674072266;-19.825809478759766;2.635040283203125;-5.9634246826171875;-1.712249755859375
1445423883841;184.35009765625;-111.02623748779297;-16.649879455566406;6.518463134765625;-10.376419067382812;-4.144287109375
1445423883874;184.75146484375;-109.67975616455078;-15.9887113571167;3.1449737548828125;-13.0438232421875;-1.6730194091796875
1445423883907;187.67462158203125;-108.62569427490234;-13.392047882080078;3.2822723388671875;-9.552658081054688;0.8374786376953125
1445423883941;193.68487548828125;-106.87065124511719;-9.68710708618164;2.242767333984375;-9.768402099609375;-0.6138916015625
1445423883973;196.4835205078125;-104.86357116699219;-7.914447784423828;-1.7191162109375;-10.631378173828125;0.2883148193359375
1445423884008;202.7335205078125;-100.58963775634766;-3.484668731689453;-1.9936981201171875;-9.925308227539062;-0.4373779296875
1445423884041;207.39569091796875;-96.40775299072266;0.08339749276638031;-0.3854217529296875;-9.68994140625;-0.4962158203125
1445423884078;210.3702392578125;-94.6780014038086;1.2861727476119995;1.1444244384765625;-9.90570068359375;-0.5942840576171875
1445423884109;217.6429443359375;-91.18475341796875;2.987851142883301;0.0656890869140625;-10.101821899414062;-0.0451202392578125
1445423884141;225.34857177734375;-88.28534698486328;4.534496784210205;-1.4837646484375;-10.356796264648438;0.8374786376953125
1445423884171;228.25714111328125;-87.2052001953125;5.062513828277588;-1.3856964111328125;-9.866470336914062;0.994384765625
1445423884204;232.87026977539062;-85.91094970703125;5.621639728546143;-1.0718841552734375;-9.591873168945312;0.562896728515625
1445423884238;235.462646484375;-85.47059631347656;5.667661190032959;-1.09149169921875;-10.121444702148438;1.0924530029296875
1445423884270;242.0330810546875;-84.66246032714844;5.216547966003418;-1.405303955078125;-10.042984008789062;1.56317138671875
1445423884303;245.26849365234375;-84.4039077758789;5.023273468017578;-1.6406707763671875;-9.631103515625;0.955169677734375
1445423884336;251.27194213867188;-83.32601165771484;4.7678375244140625;-0.8757476806640625;-9.06231689453125;1.190521240234375
1445423884370;256.89556884765625;-81.74563598632812;4.128411293029785;-0.4638671875;-9.101547241210938;1.249359130859375
1445423884402;259.4853515625;-80.85079956054688;3.476588726043701;-0.3657989501953125;-9.552658081054688;-0.2608642578125
1445423884437;263.7861633300781;-78.59291076660156;1.8113007545471191;-2.5036468505859375;-12.239669799804688;-1.96722412109375
1445423884468;265.87945556640625;-76.72042846679688;0.29349279403686523;-3.229339599609375;-12.690780639648438;-2.1829681396484375
1445423884503;266.3277282714844;-76.3542251586914;0.028336746618151665;-2.2094573974609375;-12.239669799804688;-2.8302001953125
1445423884534;267.9406433105469;-75.72551727294922;-0.5659586787223816;-3.3862457275390625;-13.514541625976562;-1.0257720947265625
1445423884567;268.8992919921875;-76.54141998291016;0.23307745158672333;-4.7199554443359375;-14.455978393554688;-0.241241455078125
1445423884602;266.96826171875;-77.69709014892578;1.452450156211853;-1.6406707763671875;-11.33746337890625;0.6609649658203125
1445423884633;261.831787109375;-81.84751892089844;2.5600757598876953;-0.3854217529296875;-10.749069213867188;1.072845458984375
1445423884666;259.95098876953125;-88.57185363769531;1.969232201576233;1.75244140625;-12.376968383789062;0.994384765625
1445423884699;259.57659912109375;-92.00242614746094;1.155956506729126;2.9488525390625;-13.357635498046875;2.896881103515625
1445423884732;253.53094482421875;-96.73004913330078;-1.050733208656311;1.2817230224609375;-11.670883178710938;0.2883148193359375
1445423884765;248.11276245117188;-97.15916442871094;-1.5994248390197754;-1.8760223388671875;-11.180557250976562;1.56317138671875
1445423884798;239.6358642578125;-101.42084503173828;-2.0171754360198975;-1.6798858642578125;-10.062606811523438;0.8571014404296875
1445423884832;235.53860473632812;-108.01482391357422;-2.400489330291748;-2.366363525390625;-8.297409057617188;-0.5354461669921875
1445423884864;230.32968139648438;-112.07820892333984;-3.9625558853149414;-1.8956451416015625;-7.669769287109375;0.19024658203125
1445423884898;227.241455078125;-113.38760375976562;-5.088601589202881;-1.09149169921875;-8.1405029296875;0.4844512939453125
1445423884930;222.40887451171875;-115.25838470458984;-6.216453552246094;0.7325439453125;-7.4148101806640625;0.19024658203125
1445423884964;220.78311157226562;-115.81343841552734;-6.0026750564575195;1.8897247314453125;-5.9634246826171875;-0.4962158203125
1445423884996;218.265625;-116.24134826660156;-4.876608848571777;1.7720489501953125;-5.786895751953125;-0.692352294921875
1445423885029;216.96844482421875;-115.09789276123047;-3.5290474891662598;1.7132110595703125;-6.2576141357421875;-1.96722412109375
1445423885063;216.93267822265625;-113.89906311035156;-3.0537872314453125;2.61541748046875;-9.140777587890625;-4.2423553466796875
1445423885096;215.65664672851562;-110.90721893310547;-3.103489398956299;1.3993988037109375;-13.239959716796875;-9.43988037109375
1445423885128;212.33984375;-109.79130554199219;-3.9317641258239746;-0.1892852783203125;-10.337188720703125;-7.2628021240234375
1445423885164;210.67901611328125;-110.43976593017578;-4.228151798248291;1.36016845703125;-10.964813232421875;-4.8699798583984375
1445423885195;206.81304931640625;-112.12994384765625;-4.773755073547363;2.8311614990234375;-18.888580322265625;-3.7324066162109375
1445423885228;206.0504150390625;-112.1655044555664;-5.609259128570557;3.1842041015625;-11.435531616210938;-1.8495330810546875
1445423885265;204.44476318359375;-112.96305847167969;-7.634379863739014;3.75299072265625;-6.0418701171875;8.015945434570312
1445423885294;206.3675537109375;-115.5484848022461;-5.9302978515625;2.2035369873046875;-6.66949462890625;2.955718994140625
1445423885326;213.01608276367188;-111.90467071533203;-2.4638664722442627;-5.01416015625;-12.730010986328125;4.8778228759765625
1445423885359;217.31866455078125;-109.28752899169922;-0.4264434278011322;-5.2691192626953125;-11.631668090820312;0.7982635498046875
1445423885393;219.96612548828125;-104.4830322265625;0.7262290120124817;-1.5818328857421875;-9.788009643554688;-0.3393096923828125
1445423885427;222.12588500976562;-101.09858703613281;-0.41965746879577637;1.6935882568359375;-9.788009643554688;-0.3393096923828125
1445423885459;224.7142333984375;-99.35408020019531;-0.6162741780281067;2.164306640625;-10.003753662109375;-0.515838623046875
1445423885494;228.40701293945312;-96.04400634765625;0.10890574008226395;-0.91497802734375;-10.160659790039062;0.4648284912109375
1445423885525;229.5438232421875;-94.54801940917969;0.4622090756893158;0.1833648681640625;-9.493820190429688;1.38665771484375
1445423885558;232.13339233398438;-92.12670135498047;0.6595000624656677;0.595245361328125;-8.94464111328125;1.56317138671875
1445423885591;236.7095947265625;-90.8658218383789;0.6970482468605042;-0.2481231689453125;-9.356521606445312;-0.0843353271484375
1445423885631;239.21942138671875;-90.09064483642578;0.46195295453071594;-1.6602783203125;-9.96453857421875;0.2883148193359375
1445423885659;240.169189453125;-89.46930694580078;0.22172215580940247;-1.7779541015625;-10.474472045898438;-0.2608642578125
1445423885689;241.88909912109375;-88.0242919921875;-0.368190735578537;-2.601715087890625;-11.180557250976562;-0.9080963134765625
1445423885723;242.57772827148438;-87.6747817993164;-0.3974553048610687;-3.033203125;-11.533599853515625;-1.18267822265625
1445423885758;242.475830078125;-87.60131072998047;-0.14770811796188354;-3.9746551513671875;-11.867019653320312;-1.5357208251953125
1445423885788;241.68804931640625;-87.55033111572266;-0.23712265491485596;-4.5826568603515625;-14.12255859375;-1.692626953125
1445423885821;239.33975219726562;-87.72864532470703;-0.46230632066726685;-3.7785186767578125;-13.867584228515625;-1.18267822265625
1445423885856;233.598876953125;-89.76142120361328;-0.6308422088623047;-2.22906494140625;-10.788284301757812;-0.4177703857421875
1445423885887;229.83526611328125;-91.34481811523438;-1.137608528137207;-0.6796112060546875;-9.533035278320312;1.0336151123046875
1445423885920;223.5430908203125;-95.62519073486328;-3.417980670928955;-1.346466064453125;-9.631103515625;1.0924530029296875
1445423885954;219.02120971679688;-100.78133392333984;-4.8705925941467285;-2.7586212158203125;-11.239395141601562;0.562896728515625
1445423885986;215.25341796875;-102.80219268798828;-5.31320858001709;-3.3274078369140625;-12.239669799804688;1.8377685546875
1445423886019;205.07275390625;-104.77274322509766;-6.176074981689453;-3.856964111328125;-12.828079223632812;1.1120758056640625
1445423886052;195.21533203125;-108.54342651367188;-6.4927077293396;-3.6412200927734375;-11.651275634765625;0.19024658203125
1445423886085;190.48193359375;-110.230712890625;-6.3237714767456055;-3.60198974609375;-11.474761962890625;0.81787109375
1445423886118;179.7528076171875;-111.56321716308594;-6.883312702178955;-3.6608428955078125;-10.552932739257812;2.151580810546875
1445423886151;174.3314971923828;-112.35409545898438;-7.683197498321533;1.105194091796875;-9.670333862304688;2.504608154296875
1445423886185;163.44070434570312;-113.15120697021484;-9.545056343078613;2.55657958984375;-9.278060913085938;2.6026763916015625
1445423886217;154.46185302734375;-113.1812973022461;-10.92168140411377;3.92950439453125;-8.5523681640625;2.1907958984375
1445423886250;151.16415405273438;-113.25003814697266;-11.237299919128418;4.2041015625;-6.72833251953125;0.680572509765625
1445423886283;147.0764923095703;-113.2620620727539;-10.995359420776367;3.7333831787109375;-6.0222625732421875;-0.123565673828125
1445423886316;145.7745819091797;-112.57133483886719;-9.771846771240234;1.9093475341796875;-7.0813751220703125;-3.8697052001953125
1445423886349;145.8416748046875;-111.95372009277344;-8.949020385742188;0.418731689453125;-9.06231689453125;-7.3412628173828125
1445423886382;146.20265197753906;-110.79064178466797;-7.384729862213135;-2.719390869140625;-10.9451904296875;-9.400650024414062
1445423886416;144.3445281982422;-110.79602813720703;-5.98970365524292;1.4582366943359375;-16.966476440429688;-4.9288177490234375
1445423886448;142.87969970703125;-110.93052673339844;-6.548441410064697;3.262664794921875;-21.791351318359375;-1.829925537109375
1445423886481;141.0519256591797;-111.52265930175781;-9.135634422302246;3.7922210693359375;-8.5523681640625;4.210968017578125
1445423886514;139.71273803710938;-113.03501892089844;-9.879570960998535;1.6543731689453125;-3.5706024169921875;2.7988128662109375
1445423886548;141.18984985351562;-113.92418670654297;-7.948336124420166;-2.1309967041015625;-8.866195678710938;0.58251953125
1445423886581;146.72789001464844;-110.2778549194336;-4.744433403015137;-3.229339599609375;-11.572830200195312;2.661529541015625
1445423886614;149.33505249023438;-108.6551284790039;-4.319660663604736;0.10491943359375;-10.219512939453125;-0.692352294921875
1445423886647;148.5642547607422;-104.98023223876953;-6.438563823699951;0.0656890869140625;-9.807632446289062;0.621734619140625
1445423886680;149.42523193359375;-102.13568115234375;-6.470863342285156;0.16375732421875;-10.08221435546875;0.621734619140625
1445423886714;151.74867248535156;-100.64032745361328;-5.3907151222229;-0.522705078125;-9.96453857421875;0.562896728515625
1445423886745;154.7703094482422;-97.2157211303711;-3.808189630508423;-0.836517333984375;-10.513702392578125;0.36676025390625
1445423886778;154.6255645751953;-94.39994049072266;-3.0147836208343506;1.222869873046875;-8.807342529296875;0.2883148193359375
1445423886811;155.96072387695312;-93.49694061279297;-2.7835075855255127;0.987518310546875;-9.023101806640625;1.6024017333984375
1445423886845;162.3568572998047;-92.34137725830078;-2.030870199203491;0.3206634521484375;-9.395751953125;1.50433349609375
1445423886877;164.36195373535156;-91.37041473388672;-1.7897849082946777;0.4971771240234375;-9.278060913085938;0.2883148193359375
1445423886911;165.99566650390625;-88.7513656616211;-1.6867188215255737;0.4383392333984375;-9.670333862304688;-0.2804718017578125
1445423886943;166.34767150878906;-86.12256622314453;-1.872078537940979;-0.8757476806640625;-10.435256958007812;-0.82965087890625
1445423886976;166.7877655029297;-85.28695678710938;-1.945125937461853;-2.660552978515625;-12.121994018554688;0.30792236328125
1445423887010;171.15841674804688;-84.53260803222656;-1.711944818496704;-3.0724334716796875;-12.455429077148438;0.01373291015625
1445423887041;174.3692626953125;-84.3480453491211;-1.4498438835144043;-1.169952392578125;-12.553482055664062;0.327545166015625
1445423887076;174.58729553222656;-84.06596374511719;-1.287815809249878;-2.7586212158203125;-13.475311279296875;-0.515838623046875
1445423887108;173.91864013671875;-84.02438354492188;-0.30339735746383667;-3.3862457275390625;-13.867584228515625;-1.18267822265625
1445423887142;172.53115844726562;-85.73947143554688;0.5030511617660522;-1.9348602294921875;-11.808181762695312;-0.5354461669921875
1445423887174;171.59837341308594;-87.82749938964844;0.5940555930137634;-0.3069610595703125;-10.25872802734375;0.5236663818359375
1445423887208;168.3636016845703;-93.3700942993164;-0.3922552168369293;2.419281005859375;-10.396026611328125;1.2297515869140625
1445423887240;164.91983032226562;-99.3670654296875;-2.085214853286743;1.6935882568359375;-12.043548583984375;1.9750518798828125
1445423887273;162.7752685546875;-102.06525421142578;-3.1008129119873047;0.6344757080078125;-12.180831909179688;0.07257080078125
1445423887307;154.50503540039062;-104.72428894042969;-5.831787109375;-1.20916748046875;-11.729736328125;0.4844512939453125
1445423887340;150.7646484375;-106.27233123779297;-7.16611385345459;-0.1304473876953125;-10.239120483398438;0.24908447265625
1445423887373;145.77166748046875;-110.9636459350586;-9.223797798156738;0.7717742919921875;-9.12115478515625;0.2098541259765625
1445423887408;140.5091094970703;-113.98978424072266;-11.165706634521484;1.438629150390625;-7.74822998046875;0.19024658203125
1445423887438;137.94439697265625;-115.19540405273438;-12.003889083862305;1.3405609130859375;-6.5910491943359375;0.4844512939453125
1445423887473;133.49652099609375;-116.792724609375;-13.068432807922363;1.41900634765625;-6.238006591796875;0.36676025390625
1445423887504;130.6982421875;-117.15167236328125;-13.016044616699219;0.987518310546875;-5.7672882080078125;-0.123565673828125
1445423887537;129.9070281982422;-116.79033660888672;-12.524864196777344;0.928680419921875;-5.7672882080078125;-0.7119598388671875
1445423887571;129.47232055664062;-114.9817886352539;-11.114784240722656;1.18365478515625;-6.983306884765625;-2.37908935546875
1445423887604;130.37124633789062;-112.47642517089844;-9.836335182189941;2.2819976806640625;-10.5333251953125;-6.41943359375
1445423887637;130.5413818359375;-111.14983367919922;-9.54559326171875;2.183929443359375;-12.514266967773438;-8.204238891601562
1445423887670;129.18316650390625;-110.00582885742188;-9.901169776916504;1.4582366943359375;-12.612335205078125;-8.06695556640625
1445423887705;128.28684997558594;-110.57270050048828;-9.834357261657715;2.7919464111328125;-8.846572875976562;-4.65423583984375
1445423887735;125.94700622558594;-111.97183227539062;-9.121562957763672;4.2041015625;-11.965087890625;-4.0462188720703125
1445423887768;122.65777587890625;-111.87728118896484;-10.200004577636719;4.243316650390625;-15.358184814453125;-4.026611328125
1445423887801;121.53897094726562;-111.8336181640625;-11.171250343322754;2.811553955078125;-5.0219879150390625;5.0151214599609375
1445423887834;120.63323974609375;-113.40705108642578;-9.76295280456543;2.4585113525390625;-4.865081787109375;4.85821533203125
1445423887868;125.58445739746094;-110.55904388427734;-6.205442905426025;-1.915252685546875;-11.317855834960938;0.6021270751953125
1445423887901;128.04225158691406;-108.2771224975586;-5.099981784820557;-4.1119384765625;-11.494369506835938;1.9358367919921875
1445423887933;132.72361755371094;-104.06192016601562;-2.8111870288848877;-3.111663818359375;-9.925308227539062;0.4648284912109375
1445423887966;132.05996704101562;-99.85063934326172;-2.112644910812378;-0.8757476806640625;-9.944915771484375;0.1706390380859375
1445423887999;132.56443786621094;-98.1395034790039;-1.8638280630111694;0.654083251953125;-10.02337646484375;-0.0254974365234375
1445423888033;136.51625061035156;-94.55841064453125;-0.6041055917739868;1.18365478515625;-9.68994140625;0.19024658203125
1445423888066;139.81158447265625;-91.25226593017578;0.37136682868003845;-0.1304473876953125;-9.552658081054688;0.7394256591796875
1445423888098;141.68817138671875;-90.06414031982422;0.6580638885498047;-0.091217041015625;-10.02337646484375;0.621734619140625
1445423888131;148.37120056152344;-88.78401947021484;1.1827006340026855;0.0853118896484375;-9.591873168945312;0.2098541259765625
1445423888165;151.44320678710938;-88.58615112304688;1.4684330224990845;-1.287628173828125;-9.846847534179688;0.2686920166015625
1445423888198;154.35313415527344;-87.99730682373047;2.3580710887908936;-1.6406707763671875;-9.984146118164062;0.1510162353515625
1445423888230;156.63986206054688;-86.38289642333984;2.945030927658081;-1.2483978271484375;-9.180007934570312;0.2294769287109375
1445423888264;157.62635803222656;-85.29124450683594;2.8896143436431885;0.5756378173828125;-8.846572875976562;0.7001953125
1445423888297;158.26229858398438;-83.0155258178711;2.2363474369049072;0.04608154296875;-9.591873168945312;0.5432891845703125
1445423888329;160.84445190429688;-80.95775604248047;1.321828007698059;-1.6995086669921875;-12.435806274414062;0.4844512939453125
1445423888363;163.08656311035156;-80.22315979003906;1.1707074642181396;-1.915252685546875;-11.925857543945312;-0.3197021484375
1445423888397;167.3451385498047;-79.58209228515625;1.3450170755386353;-0.3854217529296875;-12.828079223632812;-0.82965087890625
1445423888428;168.98764038085938;-79.54190063476562;1.4835593700408936;-4.3473052978515625;-14.377532958984375;-0.692352294921875
1445423888461;170.5494384765625;-79.96378326416016;2.9122064113616943;-4.700347900390625;-14.397140502929688;-1.202301025390625
1445423888494;168.6625213623047;-82.500732421875;4.203962326049805;-0.718841552734375;-10.749069213867188;0.386383056640625
1445423888528;167.38499450683594;-84.68212890625;4.257319927215576;2.5958099365234375;-10.631378173828125;1.1120758056640625
1445423888560;164.64891052246094;-90.69918060302734;2.7651309967041016;3.380340576171875;-11.39630126953125;1.1120758056640625
1445423888593;160.08457946777344;-96.88763427734375;-0.34859877824783325;3.321502685546875;-12.553482055664062;2.445770263671875
1445423888628;155.84994506835938;-98.89822387695312;-1.9067013263702393;-1.4249267578125;-12.808456420898438;0.36676025390625
1445423888663;146.39932250976562;-100.99972534179688;-4.130519390106201;-1.6406707763671875;-11.651275634765625;0.58251953125
1445423888693;142.110107421875;-106.86332702636719;-5.34683084487915;-0.640380859375;-9.258453369140625;-0.1039581298828125
1445423888726;140.19119262695312;-109.1824951171875;-6.305284023284912;0.1441497802734375;-8.650436401367188;-0.0451202392578125
1445423888758;135.63119506835938;-112.46492004394531;-8.61968994140625;0.5756378173828125;-7.80706787109375;-0.0843353271484375
1445423888791;131.09991455078125;-114.92163848876953;-10.30831527709961;0.3991241455078125;-6.3164520263671875;-0.1431732177734375
1445423888824;129.0587615966797;-115.76161193847656;-10.602218627929688;0.3795013427734375;-5.728057861328125;-0.1039581298828125
1445423888858;125.67794799804688;-116.19073486328125;-10.203022003173828;0.7717742919921875;-4.845458984375;-0.2608642578125
1445423888891;124.50299072265625;-115.74169921875;-9.452964782714844;0.8894500732421875;-4.904296875;-1.18267822265625
1445423888923;123.67367553710938;-113.43942260742188;-7.274575233459473;1.2032623291015625;-5.9045867919921875;-2.457550048828125
1445423888960;125.09701538085938;-110.01058959960938;-5.019423007965088;3.51763916015625;-12.965362548828125;-7.635467529296875
1445423888989;125.5079345703125;-108.29519653320312;-4.671294689178467;2.9096221923828125;-15.5543212890625;-10.557846069335938
1445423889027;123.53352355957031;-107.59532165527344;-5.197747707366943;2.2035369873046875;-11.808181762695312;-7.360870361328125
1445423889057;119.63798522949219;-109.34354400634766;-5.8207106590271;2.811553955078125;-12.102386474609375;-3.4970550537109375
1445423889089;118.32467651367188;-109.15037536621094;-6.5547685623168945;2.4781341552734375;-14.259841918945312;-3.1832427978515625
1445423889124;117.6639404296875;-108.44886016845703;-7.989838123321533;2.1446990966796875;-8.983871459960938;-2.7713623046875
1445423889154;117.33058166503906;-110.12664794921875;-6.3798441886901855;1.732818603515625;-4.355133056640625;4.4071044921875
1445423889187;119.20291137695312;-109.48150634765625;-4.6230316162109375;1.0855865478515625;-6.4537506103515625;2.269256591796875
1445423889220;122.42733764648438;-105.39545440673828;-2.922494649887085;-4.2100067138671875;-12.847686767578125;1.1709136962890625
1445423889253;123.7803955078125;-103.47567749023438;-2.0857036113739014;-2.5232696533203125;-9.729171752929688;0.5236663818359375
1445423889286;125.03103637695312;-99.97907257080078;-0.6813649535179138;-0.9934234619140625;-9.101547241210938;0.30792236328125
1445423889319;125.35879516601562;-96.84224700927734;-0.3288958966732025;0.654083251953125;-10.5333251953125;0.2294769287109375
1445423889352;126.58578491210938;-94.96033477783203;0.24273370206356049;0.928680419921875;-10.278350830078125;0.19024658203125
1445423889385;130.47964477539062;-91.63993835449219;1.4186010360717773;0.1441497802734375;-9.788009643554688;0.445220947265625
1445423889418;133.14117431640625;-88.9451904296875;1.880480170249939;-0.522705078125;-9.650726318359375;0.7982635498046875
1445423889452;134.64112854003906;-87.65138244628906;1.8295190334320068;0.242218017578125;-9.081939697265625;1.50433349609375
1445423889485;140.482666015625;-85.98687744140625;1.3122282028198242;-0.3657989501953125;-9.591873168945312;1.6808624267578125
1445423889517;144.564697265625;-84.6483383178711;1.1808764934539795;-0.3854217529296875;-9.434967041015625;0.4844512939453125
1445423889550;145.19093322753906;-83.53424835205078;1.1766715049743652;-0.3657989501953125;-9.611495971679688;0.24908447265625
1445423889584;146.46636962890625;-81.01910400390625;1.0127257108688354;-0.34619140625;-10.08221435546875;-0.7315826416015625
1445423889615;147.15301513671875;-79.58163452148438;0.7868283987045288;-1.9348602294921875;-11.415924072265625;-0.692352294921875
1445423889649;148.3212890625;-77.38359069824219;0.313070148229599;-2.8959197998046875;-12.102386474609375;-0.4177703857421875
1445423889682;153.09417724609375;-77.13870239257812;-0.010822434909641743;-1.7191162109375;-12.318130493164062;-0.0451202392578125
1445423889716;155.16444396972656;-77.27629852294922;0.021937714889645576;-0.228515625;-13.181106567382812;-0.5550537109375
1445423889748;157.4109344482422;-77.6321029663086;0.3664087951183319;-2.34674072265625;-13.67144775390625;-0.7315826416015625
1445423889781;156.98272705078125;-78.51752471923828;1.651209831237793;-3.9746551513671875;-12.965362548828125;-1.1630706787109375
1445423889814;155.9320831298828;-80.01580047607422;2.1603779792785645;0.4383392333984375;-10.003753662109375;0.5432891845703125
1445423889847;153.3046417236328;-85.16313934326172;2.0282750129699707;1.8308868408203125;-10.297958374023438;0.759033203125
1445423889880;151.770263671875;-88.09327697753906;1.404811978340149;2.7134857177734375;-12.004318237304688;0.7198028564453125
1445423889914;148.60792541503906;-94.04867553710938;-0.7156943082809448;2.4781341552734375;-12.435806274414062;2.0731201171875
1445423889946;140.81898498535156;-97.44649505615234;-2.0699806213378906;-1.2483978271484375;-13.1614990234375;0.36676025390625
1445423889979;136.2574920654297;-98.85687255859375;-2.3241071701049805;-1.5622100830078125;-11.062881469726562;0.7198028564453125
1445423890013;130.00479125976562;-104.14205932617188;-3.1236348152160645;-0.5030975341796875;-9.572265625;0.36676025390625
1445423890045;125.36640930175781;-108.77711486816406;-5.110249042510986;0.5167999267578125;-8.787734985351562;0.3471527099609375
1445423890077;122.61166381835938;-110.45219421386719;-6.251780986785889;-0.091217041015625;-7.7874603271484375;0.562896728515625
1445423890111;117.23100280761719;-112.95093536376953;-8.01851749420166;-0.4246368408203125;-7.061767578125;0.641357421875
1445423890144;112.48504638671875;-114.03410339355469;-8.771414756774902;0.0068511962890625;-5.4534759521484375;0.641357421875
1445423890178;110.41912841796875;-113.99763488769531;-8.767516136169434;0.5756378173828125;-4.5708770751953125;0.2294769287109375
1445423890210;107.82656860351562;-112.70133972167969;-7.46862268447876;0.8894500732421875;-4.78662109375;-0.515838623046875
1445423890243;108.64451599121094;-109.69256591796875;-5.194309711456299;2.752716064453125;-8.356246948242188;-4.105072021484375
1445423890276;109.80770874023438;-107.71063232421875;-4.685866355895996;3.7725982666015625;-12.945755004882812;-7.1451263427734375
1445423890310;110.61245727539062;-105.06458282470703;-4.873168468475342;2.55657958984375;-16.083877563476562;-10.204803466796875
1445423890343;109.174560546875;-105.23570251464844;-5.127053260803223;1.497467041015625;-9.866470336914062;-4.6934661865234375
1445423890376;106.01455688476562;-107.3914566040039;-5.470032215118408;2.301605224609375;-11.886642456054688;-4.0658416748046875
1445423890408;104.6529541015625;-107.49382781982422;-6.946417808532715;1.47784423828125;-13.239959716796875;-4.1246795654296875
1445423890442;103.91525268554688;-108.11473846435547;-7.272424221038818;2.2231597900390625;-5.7476806640625;4.093292236328125
1445423890473;104.1287841796875;-109.4206314086914;-5.387755870819092;2.164306640625;-5.6496124267578125;4.2305908203125
1445423890508;107.23751831054688;-106.17111206054688;-3.5814671516418457;-2.28790283203125;-11.200164794921875;1.2885894775390625
1445423890540;108.57809448242188;-104.09088897705078;-3.262813091278076;-1.915252685546875;-9.434967041015625;0.5236663818359375
1445423890573;110.7730712890625;-100.1816635131836;-2.9916419982910156;-0.7384490966796875;-9.709564208984375;0.2883148193359375
1445423890607;109.747314453125;-97.2645034790039;-3.543369770050049;0.4579620361328125;-11.33746337890625;0.4059906005859375
1445423890640;109.33233642578125;-95.82073211669922;-3.277897834777832;0.4383392333984375;-10.337188720703125;-0.0254974365234375
1445423890674;110.82696533203125;-93.03346252441406;-1.9565907716751099;0.16375732421875;-10.042984008789062;0.562896728515625
1445423890705;113.17095947265625;-90.98949432373047;-1.1565576791763306;0.6148681640625;-9.160385131835938;0.386383056640625
1445423890739;114.3736572265625;-90.074951171875;-0.9868027567863464;0.5756378173828125;-9.140777587890625;0.6021270751953125
1445423890771;117.674560546875;-89.2427749633789;-0.8618435859680176;-0.01275634765625;-9.611495971679688;1.131683349609375
1445423890804;119.58796691894531;-88.71015167236328;-0.8279058933258057;0.536407470703125;-9.474197387695312;1.190521240234375
1445423890838;121.26287841796875;-86.81896209716797;-1.1593619585037231;0.1833648681640625;-9.356521606445312;0.7394256591796875
1445423890870;122.83438110351562;-83.89143371582031;-1.5889414548873901;-0.1304473876953125;-9.768402099609375;-0.1627960205078125
1445423890904;123.98007202148438;-82.40153503417969;-1.905764102935791;0.2029876708984375;-11.533599853515625;-1.3592071533203125
1445423890936;125.21148681640625;-79.83028411865234;-2.654741048812866;-0.895355224609375;-12.082763671875;-1.3592071533203125
1445423890969;126.95083618164062;-79.083740234375;-3.1115620136260986;-2.05255126953125;-11.965087890625;-1.2219085693359375
1445423891002;128.82345581054688;-79.32608795166016;-3.261894941329956;-2.05255126953125;-12.59271240234375;-0.810028076171875
1445423891036;130.94583129882812;-80.32158660888672;-2.9675443172454834;-3.7196807861328125;-14.004867553710938;-1.00616455078125
1445423891068;128.572021484375;-82.15768432617188;-1.5424243211746216;-4.56304931640625;-12.828079223632812;-1.1630706787109375
1445423891101;126.050537109375;-83.77415466308594;-1.1449729204177856;-2.5232696533203125;-10.572540283203125;-0.005889892578125
1445423891134;121.4722900390625;-89.20942687988281;-1.4068377017974854;1.0071258544921875;-10.788284301757812;0.9159393310546875
1445423891168;118.23927307128906;-95.39452362060547;-2.972809314727783;2.0270233154296875;-12.59271240234375;0.876708984375
1445423891200;115.41500854492188;-97.73470306396484;-3.6960372924804688;1.0267486572265625;-12.886917114257812;1.9750518798828125
1445423891234;105.15640258789062;-98.97534942626953;-4.315526962280273;-2.6409454345703125;-13.475311279296875;0.5236663818359375
1445423891266;99.22314453125;-100.22332763671875;-4.550000190734863;-2.660552978515625;-10.631378173828125;0.7198028564453125
1445423891300;90.6378173828125;-104.8448715209961;-5.0357160568237305;-1.464141845703125;-9.101547241210938;1.014007568359375
1445423891332;82.85617065429688;-108.06053161621094;-6.015390396118164;-0.5030975341796875;-9.023101806640625;0.5432891845703125
1445423891366;78.51321411132812;-109.2210693359375;-6.250351905822754;-0.8169097900390625;-8.218948364257812;0.5236663818359375
1445423891398;69.76104736328125;-111.029296875;-6.146368980407715;-0.85614013671875;-7.826690673828125;0.81787109375
1445423891431;62.937774658203125;-111.8614273071289;-5.7549052238464355;0.16375732421875;-6.7675628662109375;0.562896728515625
1445423891464;60.549713134765625;-111.95657348632812;-5.212669849395752;0.928680419921875;-6.55181884765625;0.3471527099609375
1445423891498;57.273468017578125;-111.3596420288086;-3.989346504211426;1.850494384765625;-6.5714263916015625;-0.6138916015625
1445423891531;55.69854736328125;-109.78224182128906;-2.844292402267456;2.3408355712890625;-8.532760620117188;-2.281036376953125
1445423891563;55.253570556640625;-108.72610473632812;-2.7614643573760986;2.5761871337890625;-10.239120483398438;-3.39898681640625
1445423891597;54.4866943359375;-107.01911163330078;-3.2054197788238525;1.2817230224609375;-12.239669799804688;-8.18463134765625
1445423891630;53.144500732421875;-107.19328308105469;-3.380922794342041;-2.2486724853515625;-7.1009979248046875;-5.8898773193359375
1445423891662;50.0697021484375;-108.54949951171875;-2.838956594467163;-1.4837646484375;-7.35595703125;-4.2031402587890625
1445423891695;47.09130859375;-108.36262512207031;-2.344264268875122;2.635040283203125;-18.555160522460938;-1.6141815185546875
1445423891728;47.856903076171875;-107.90460968017578;-2.7403945922851562;3.1057586669921875;-11.39630126953125;-0.005889892578125
1445423891762;46.05267333984375;-107.54097747802734;-4.9507646560668945;2.693878173828125;-6.8264007568359375;5.230865478515625
1445423891795;46.177581787109375;-108.33068084716797;-4.587430953979492;-2.3271331787109375;-6.238006591796875;0.13140869140625
1445423891827;46.8907470703125;-106.46975708007812;-3.433150291442871;-5.4652557373046875;-12.004318237304688;0.759033203125
1445423891861;49.904205322265625;-101.59309387207031;-1.757830262184143;-3.562774658203125;-10.847137451171875;0.896331787109375
1445423891893;51.05242919921875;-99.70862579345703;-1.9812555313110352;0.34027099609375;-10.690231323242188;-0.005889892578125
1445423891926;49.47882080078125;-97.23529815673828;-3.9083871841430664;1.7132110595703125;-10.25872802734375;0.1706390380859375
1445423891960;47.547119140625;-95.82920837402344;-4.453451156616211;1.98779296875;-10.08221435546875;0.9159393310546875
1445423891992;47.4527587890625;-94.94024658203125;-4.033276557922363;0.026458740234375;-9.68994140625;0.4648284912109375
1445423892025;49.370330810546875;-92.72154235839844;-2.849947929382324;-0.0716094970703125;-9.788009643554688;0.36676025390625
1445423892058;52.3829345703125;-90.64289855957031;-1.8694469928741455;0.7913818359375;-9.06231689453125;0.621734619140625
1445423892093;54.657196044921875;-88.65279388427734;-1.6846084594726562;0.869842529296875;-9.572265625;1.190521240234375
1445423892124;55.7215576171875;-87.51171112060547;-1.7391581535339355;0.9678955078125;-9.866470336914062;0.2883148193359375
1445423892157;56.757720947265625;-85.09050750732422;-1.8234866857528687;0.3206634521484375;-10.121444702148438;-0.633514404296875
1445423892190;56.777801513671875;-83.80347442626953;-1.6416095495224;-0.208892822265625;-10.356796264648438;-0.3981475830078125
1445423892223;59.329559326171875;-81.25749206542969;-1.5491065979003906;-0.208892822265625;-10.7098388671875;-0.5942840576171875
1445423892258;61.42132568359375;-80.43087768554688;-1.9127520322799683;-1.6602783203125;-12.514266967773438;0.2883148193359375
1445423892290;63.5689697265625;-80.27423095703125;-2.2924420833587646;-2.28790283203125;-14.024490356445312;1.818145751953125
1445423892326;64.53219604492188;-80.7907485961914;-1.5367343425750732;-1.0718841552734375;-13.181106567382812;0.111785888671875
1445423892355;63.41558837890625;-80.7862548828125;-0.7742050290107727;-0.405029296875;-11.474761962890625;-2.8498077392578125
1445423892390;60.64300537109375;-81.35700988769531;-0.3640378713607788;-0.1696624755859375;-10.925582885742188;-2.5948486328125
1445423892425;60.6033935546875;-85.44940185546875;-1.8336502313613892;-0.1696624755859375;-9.846847534179688;-0.5354461669921875
1445423892454;60.33251953125;-88.44418334960938;-2.5716731548309326;-0.287353515625;-11.259017944335938;1.32781982421875
1445423892490;59.6282958984375;-94.20846557617188;-3.279494047164917;-0.0716094970703125;-11.572830200195312;1.4258880615234375
1445423892520;58.33837890625;-98.2428970336914;-3.368119716644287;-0.542327880859375;-12.29852294921875;0.7001953125
1445423892553;54.449249267578125;-99.3056869506836;-3.69930362701416;-1.4249267578125;-11.749343872070312;0.8374786376953125
1445423892586;45.897705078125;-102.21873474121094;-4.894741535186768;-1.1895599365234375;-10.749069213867188;0.7786407470703125
1445423892619;40.698486328125;-106.07315063476562;-6.044736862182617;0.4971771240234375;-9.552658081054688;0.621734619140625
1445423892653;38.427154541015625;-107.52740478515625;-6.473261833190918;0.536407470703125;-9.434967041015625;0.680572509765625
1445423892686;33.54296875;-109.84654235839844;-6.772127151489258;0.1833648681640625;-8.513153076171875;0.562896728515625
1445423892719;29.816070556640625;-111.3095932006836;-6.688897609710693;0.8894500732421875;-6.8852386474609375;0.2686920166015625
1445423892751;28.494140625;-111.63352966308594;-6.507828235626221;1.2032623291015625;-6.8264007568359375;0.0333404541015625
1445423892784;27.066253662109375;-111.41329956054688;-5.642886638641357;1.0071258544921875;-7.23828125;-0.82965087890625
1445423892818;26.869781494140625;-110.83432006835938;-5.142273902893066;2.046630859375;-8.611221313476562;-3.0655670166015625
1445423892851;27.31036376953125;-109.14007568359375;-4.785096168518066;2.38006591796875;-10.454864501953125;-4.1246795654296875
1445423892883;27.06610107421875;-107.24773406982422;-5.782078266143799;1.7132110595703125;-12.337738037109375;-6.556732177734375
1445423892916;25.93988037109375;-106.7072525024414;-6.482147693634033;-0.1108245849609375;-10.356796264648438;-5.1837921142578125
1445423892949;23.430999755859375;-107.40684509277344;-6.626312732696533;-0.01275634765625;-8.76812744140625;-4.47772216796875
1445423892982;23.611785888671875;-108.4073257446289;-5.381292343139648;2.5173492431640625;-14.377532958984375;-3.261688232421875
1445423893015;23.68951416015625;-108.5588607788086;-5.6706929206848145;3.63531494140625;-14.083328247070312;-3.026336669921875
1445423893048;23.042083740234375;-109.01055145263672;-7.276479721069336;3.8510589599609375;-7.4148101806640625;3.1714630126953125
1445423893081;27.0579833984375;-109.71829986572266;-6.6947784423828125;2.8507843017578125;-8.238555908203125;1.876983642578125
1445423893115;29.673309326171875;-108.36109161376953;-6.200752258300781;-0.954193115234375;-10.494094848632812;-1.1042327880859375
1445423893147;32.356414794921875;-104.48313903808594;-5.0930891036987305;-4.1511688232421875;-10.552932739257812;1.1512908935546875
1445423893181;35.4434814453125;-101.32666015625;-4.571916103363037;-2.17022705078125;-9.729171752929688;-0.5354461669921875
1445423893213;35.50982666015625;-99.76887512207031;-4.80307149887085;-1.5818328857421875;-10.337188720703125;-0.241241455078125
1445423893247;34.45367431640625;-97.2572021484375;-5.411850929260254;0.301055908203125;-10.494094848632812;0.24908447265625
1445423893279;34.55694580078125;-96.1939697265625;-5.154424667358398;0.7913818359375;-9.944915771484375;-0.241241455078125
1445423893312;35.561187744140625;-93.94491577148438;-4.359960556030273;0.6933135986328125;-9.68994140625;-0.064727783203125
1445423893345;38.525970458984375;-92.82180786132812;-3.4807851314544678;0.10491943359375;-9.748779296875;-0.2216339111328125
1445423893379;40.092620849609375;-92.20038604736328;-3.1269354820251465;-0.1304473876953125;-9.434967041015625;-0.064727783203125
1445423893412;42.19378662109375;-91.04426574707031;-2.8308627605438232;-0.4246368408203125;-9.552658081054688;-0.005889892578125
1445423893445;44.17755126953125;-90.1886978149414;-2.692626714706421;-0.4246368408203125;-9.827239990234375;-0.2804718017578125
1445423893477;45.28021240234375;-89.6379165649414;-2.6066761016845703;0.0656890869140625;-9.846847534179688;-0.2804718017578125
1445423893510;47.306396484375;-87.92361450195312;-2.551403045654297;0.6933135986328125;-9.729171752929688;-0.1431732177734375
1445423893544;49.564544677734375;-85.95001983642578;-2.73238205909729;-0.1304473876953125;-10.160659790039062;-0.88848876953125
1445423893577;50.808074951171875;-84.9234390258789;-2.856971263885498;-1.15032958984375;-10.31756591796875;-1.084625244140625
1445423893609;53.184356689453125;-83.70708465576172;-2.874620199203491;-2.935150146484375;-11.494369506835938;-0.574676513671875
1445423893643;53.61029052734375;-83.67926025390625;-2.7465059757232666;-2.05255126953125;-14.201004028320312;-0.1431732177734375
1445423893675;52.12420654296875;-83.7979736328125;-2.1501717567443848;-1.464141845703125;-13.926422119140625;-1.18267822265625
1445423893708;46.703521728515625;-84.76248931884766;-1.4312989711761475;-1.0718841552734375;-12.71038818359375;-2.5556182861328125
1445423893744;44.621917724609375;-86.1639175415039;-1.6972479820251465;-0.8169097900390625;-10.042984008789062;-0.77081298828125
1445423893775;41.7967529296875;-91.31974792480469;-2.9577419757843018;-0.3069610595703125;-10.356796264648438;0.30792236328125
1445423893807;40.39788818359375;-94.41098022460938;-3.797595500946045;0.0656890869140625;-11.945480346679688;0.896331787109375
1445423893841;37.496673583984375;-99.59947967529297;-4.952183723449707;0.28143310546875;-12.278900146484375;0.4256134033203125
1445423893875;28.3121337890625;-102.21756744384766;-6.243084907531738;-1.0522613525390625;-11.690505981445312;0.327545166015625
1445423893907;18.296722412109375;-104.86529541015625;-7.784630298614502;-0.01275634765625;-10.121444702148438;0.13140869140625
1445423893939;15.282196044921875;-106.67310333251953;-8.000499725341797;0.3206634521484375;-9.96453857421875;0.30792236328125
1445423893976;9.697235107421875;-109.01426696777344;-7.815119743347168;0.1833648681640625;-8.650436401367188;0.641357421875
1445423894006;6.806182861328125;-109.83861541748047;-7.656148910522461;0.04608154296875;-7.179443359375;0.6609649658203125
1445423894038;1.74969482421875;-111.26567077636719;-7.421706199645996;0.5756378173828125;-6.747955322265625;0.6021270751953125
1445423894074;357.9928283691406;-111.58417510986328;-6.901958465576172;1.0855865478515625;-6.5714263916015625;-0.0451202392578125
1445423894105;356.50006103515625;-111.2686767578125;-6.43996524810791;0.928680419921875;-6.944091796875;-0.515838623046875
1445423894137;354.126708984375;-110.01406860351562;-5.185219764709473;0.7913818359375;-8.042434692382812;-2.634063720703125
1445423894171;353.367919921875;-109.13851165771484;-4.450596332550049;0.7521514892578125;-10.729446411132812;-5.2818603515625
1445423894204;352.3030090332031;-107.69007110595703;-2.7186527252197266;-0.85614013671875;-10.278350830078125;-6.5763397216796875
1445423894237;351.0169372558594;-107.65292358398438;-0.6456987857818604;-1.3660736083984375;-9.140777587890625;-5.0661163330078125
1445423894269;350.08526611328125;-108.0028076171875;0.23984365165233612;0.477569580078125;-15.456253051757812;-4.399261474609375
1445423894302;349.76031494140625;-108.02076721191406;1.069005012512207;2.0074005126953125;-18.908203125;-3.908935546875
1445423894336;350.1976013183594;-108.4548568725586;0.20834685862064362;3.63531494140625;-9.081939697265625;2.328094482421875
1445423894369;350.4465637207031;-109.78765869140625;0.09038606286048889;3.5960845947265625;-4.78662109375;4.8189849853515625
1445423894401;353.1196594238281;-109.02488708496094;0.4531615376472473;2.7723236083984375;-7.552093505859375;0.4256134033203125
1445423894434;358.27001953125;-105.19438934326172;1.0174230337142944;-3.3274078369140625;-12.9849853515625;1.6808624267578125
1445423894466;1.257598876953125;-103.21502685546875;1.9081887006759644;-2.601715087890625;-12.631942749023438;-0.94732666015625
1445423894501;3.66876220703125;-99.92943572998047;3.500391721725464;0.359893798828125;-9.96453857421875;1.465118408203125
1445423894533;9.162933349609375;-96.37801361083984;5.362022399902344;1.3993988037109375;-9.709564208984375;1.131683349609375
1445423894567;11.259613037109375;-94.79271697998047;5.811738014221191;0.28143310546875;-10.042984008789062;0.8374786376953125
1445423894599;14.503509521484375;-92.3769760131836;6.610345363616943;-0.7972869873046875;-10.101821899414062;0.7982635498046875
1445423894632;16.916595458984375;-91.154052734375;7.034124374389648;-0.4246368408203125;-9.68994140625;0.8374786376953125
1445423894665;21.77972412109375;-88.80034637451172;7.418854236602783;-0.660003662109375;-10.160659790039062;0.9747772216796875
1445423894698;26.725311279296875;-87.14640808105469;7.374339580535889;-0.85614013671875;-10.454864501953125;0.621734619140625
1445423894732;29.275909423828125;-86.49283599853516;7.238554000854492;-1.0522613525390625;-10.02337646484375;1.014007568359375
1445423894765;34.14141845703125;-85.30133056640625;6.627492427825928;-1.2483978271484375;-9.807632446289062;0.9159393310546875
1445423894797;39.295440673828125;-84.26374053955078;5.785094261169434;-1.8956451416015625;-10.101821899414062;0.8374786376953125
1445423894832;41.955413818359375;-83.76599884033203;5.447490692138672;-1.7779541015625;-9.729171752929688;-0.3393096923828125
1445423894864;46.1937255859375;-82.69430541992188;4.889665126800537;-1.5818328857421875;-8.709274291992188;0.2686920166015625
1445423894896;50.59039306640625;-81.48310089111328;4.247167587280273;-0.85614013671875;-8.689666748046875;0.2294769287109375
1445423894929;52.699676513671875;-81.0547103881836;3.8058509826660156;-0.2481231689453125;-9.395751953125;0.2098541259765625
1445423894963;55.55279541015625;-80.23353576660156;2.9586312770843506;-0.0716094970703125;-11.925857543945312;-0.751190185546875
1445423894995;56.48065185546875;-79.80278778076172;2.489107847213745;-1.6798858642578125;-12.455429077148438;-1.810302734375
1445423895028;57.876922607421875;-79.29229736328125;1.3475549221038818;-2.739013671875;-13.1614990234375;-0.77081298828125
1445423895062;59.1033935546875;-79.87197875976562;1.1431301832199097;-3.856964111328125;-14.161773681640625;-1.319976806640625
1445423895095;59.015625;-80.76195526123047;1.6945762634277344;-0.522705078125;-9.846847534179688;-0.8492584228515625
1445423895127;55.42926025390625;-83.99011993408203;1.9787473678588867;0.6933135986328125;-9.493820190429688;-1.18267822265625
1445423895160;49.308990478515625;-90.08708953857422;0.27330252528190613;1.615142822265625;-12.53387451171875;0.327545166015625
1445423895194;46.918701171875;-93.35398864746094;-0.9064893126487732;-0.405029296875;-13.024200439453125;0.641357421875
1445423895226;45.127471923828125;-98.3028793334961;-2.0921967029571533;-2.032928466796875;-13.710678100585938;-0.3981475830078125
1445423895260;37.979400634765625;-101.2876205444336;-1.892836093902588;-0.777679443359375;-11.21978759765625;0.621734619140625
1445423895294;34.25439453125;-103.3141860961914;-2.1804802417755127;0.595245361328125;-8.571990966796875;-0.7119598388671875
1445423895326;28.1986083984375;-108.69896697998047;-3.5504775047302246;0.6344757080078125;-7.9639739990234375;-1.1630706787109375
1445423895360;25.49169921875;-110.98204803466797;-4.240559101104736;-0.1892852783203125;-7.5128631591796875;-0.9080963134765625
1445423895391;20.652801513671875;-113.97633361816406;-5.220347881317139;-0.091217041015625;-7.1402130126953125;-0.9080963134765625
1445423895424;16.874755859375;-115.8099365234375;-5.891629695892334;0.8109893798828125;-6.3164520263671875;-0.77081298828125
1445423895457;15.451690673828125;-116.2104263305664;-6.1146016120910645;1.12481689453125;-5.7672882080078125;-1.00616455078125
1445423895491;13.5067138671875;-116.01077270507812;-6.225451469421387;1.24249267578125;-5.728057861328125;-1.2807464599609375
1445423895523;12.830780029296875;-114.6939697265625;-5.695268154144287;1.850494384765625;-6.5125885009765625;-2.9478759765625
1445423895557;13.392120361328125;-113.69082641601562;-5.1337690353393555;2.2623748779296875;-9.434967041015625;-5.8114166259765625
1445423895600;14.5677490234375;-110.53297424316406;-3.9519734382629395;0.8306121826171875;-12.671173095703125;-8.6357421875
1445423895627;13.89825439453125;-110.26612091064453;-3.702544927597046;0.359893798828125;-12.082763671875;-8.557281494140625
1445423895656;12.79400634765625;-110.48748779296875;-3.5167388916015625;0.8306121826171875;-9.474197387695312;-5.1445770263671875
1445423895690;10.4271240234375;-111.00139617919922;-3.520618438720703;2.4781341552734375;-12.59271240234375;-4.41888427734375
1445423895722;10.822784423828125;-110.71969604492188;-3.672394275665283;3.7137603759765625;-15.201278686523438;-3.6147308349609375
1445423895754;12.99761962890625;-110.83634185791016;-3.54718279838562;3.380340576171875;-10.25872802734375;-2.006439208984375
1445423895788;15.791595458984375;-112.21548461914062;-2.1863601207733154;3.1842041015625;-5.218109130859375;4.662078857421875
1445423895820;17.8348388671875;-111.2532730102539;-1.2889347076416016;-2.5036468505859375;-11.27862548828125;0.7394256591796875
1445423895853;23.12103271484375;-106.85803985595703;0.5542187094688416;-4.3865203857421875;-13.475311279296875;1.38665771484375
1445423895886;25.86285400390625;-102.6568832397461;1.651702642440796;-2.7586212158203125;-10.297958374023438;-0.8492584228515625
1445423895920;26.022674560546875;-101.17002868652344;1.5938133001327515;0.34027099609375;-10.19989013671875;-0.2020263671875
1445423895952;29.29388427734375;-98.12483215332031;1.4686940908432007;0.654083251953125;-10.160659790039062;0.052947998046875
1445423895985;34.609130859375;-94.69329833984375;2.1974127292633057;0.6148681640625;-9.474197387695312;-0.515838623046875
1445423896018;35.491851806640625;-92.98453521728516;2.1294260025024414;0.3991241455078125;-9.317291259765625;-0.5550537109375
1445423896051;39.926666259765625;-91.08267211914062;1.6765897274017334;-1.0130462646484375;-9.297683715820312;0.4059906005859375
1445423896084;43.76470947265625;-90.64440155029297;1.5630913972854614;-1.228790283203125;-9.160385131835938;0.0921783447265625
1445423896117;49.776824951171875;-90.0063705444336;1.3180286884307861;-1.0718841552734375;-9.356521606445312;-0.0843353271484375
1445423896150;50.6324462890625;-88.54074096679688;0.8469265103340149;-1.15032958984375;-9.670333862304688;-0.9080963134765625
1445423896183;50.349212646484375;-87.40276336669922;0.5257082581520081;-1.6798858642578125;-9.68994140625;-0.5942840576171875
1445423896217;51.42926025390625;-84.76889038085938;-0.19347059726715088;-1.4445343017578125;-10.042984008789062;-0.810028076171875
1445423896250;51.879058837890625;-82.59165954589844;-0.9702628254890442;-1.464141845703125;-11.043258666992188;-0.4373779296875
1445423896283;51.815948486328125;-81.84668731689453;-1.1784887313842773;-0.640380859375;-11.612045288085938;-0.4177703857421875
1445423896315;53.11248779296875;-80.98436737060547;-1.3535107374191284;-0.0519866943359375;-11.592437744140625;-0.2216339111328125
1445423896348;53.38177490234375;-80.480224609375;-1.5854653120040894;-2.5036468505859375;-13.475311279296875;0.0333404541015625
1445423896383;53.138763427734375;-80.21319580078125;-1.4206935167312622;-3.798126220703125;-13.946029663085938;-0.6531219482421875
1445423896414;50.6746826171875;-80.82688903808594;-0.42534881830215454;-3.5823822021484375;-13.455703735351562;-1.712249755859375
1445423896447;45.706512451171875;-83.83492279052734;0.2823406755924225;-0.8169097900390625;-10.003753662109375;0.24908447265625
1445423896481;43.899871826171875;-86.62977600097656;0.27128586173057556;0.7129364013671875;-9.317291259765625;0.680572509765625
1445423896514;40.55438232421875;-92.60073852539062;-0.5103533864021301;2.0858612060546875;-10.670608520507812;0.9159393310546875
1445423896546;34.502593994140625;-97.44751739501953;-2.0528323650360107;1.3993988037109375;-11.984695434570312;1.6220245361328125
1445423896579;28.946197509765625;-98.60917663574219;-2.902543306350708;-1.6602783203125;-12.730010986328125;-0.7904205322265625
1445423896612;16.956329345703125;-101.96765899658203;-4.106390476226807;-4.68072509765625;-13.298797607421875;-0.1431732177734375
1445423896644;12.958953857421875;-104.90824127197266;-4.550329208374023;-0.9934234619140625;-10.9451904296875;0.0333404541015625
1445423896678;6.578582763671875;-108.83671569824219;-5.963979721069336;0.5167999267578125;-9.376129150390625;-0.0254974365234375
1445423896711;359.2904052734375;-111.99366760253906;-7.329342842102051;-0.01275634765625;-7.35595703125;0.2098541259765625
1445423896744;355.7961120605469;-113.25663757324219;-7.753408432006836;0.4579620361328125;-6.43414306640625;0.504058837890625
1445423896778;350.5270080566406;-114.67526245117188;-8.169816017150879;0.7129364013671875;-5.7672882080078125;0.504058837890625
1445423896811;347.5534973144531;-114.89397430419922;-7.668761253356934;1.9093475341796875;-5.17889404296875;0.052947998046875
1445423896845;346.8125305175781;-114.4570541381836;-7.004693508148193;2.183929443359375;-5.9634246826171875;-1.8495330810546875
1445423896876;345.99700927734375;-112.60566711425781;-5.441160678863525;2.2035369873046875;-7.74822998046875;-3.0459442138671875
1445423896909;344.8464660644531;-110.02470397949219;-4.963966369628906;2.693878173828125;-12.161224365234375;-6.2036895751953125
1445423896942;343.5733642578125;-109.10657501220703;-5.022568702697754;2.0858612060546875;-12.730010986328125;-8.51806640625
1445423896976;339.4457702636719;-109.51355743408203;-4.625138282775879;-0.777679443359375;-9.395751953125;-6.8901519775390625
1445423897010;336.2588806152344;-109.72486114501953;-3.800257444381714;1.47784423828125;-16.593826293945312;-3.3009185791015625
1445423897042;336.0510559082031;-109.58541107177734;-4.012328624725342;3.2234344482421875;-13.55377197265625;-4.458099365234375
1445423897074;335.4442138671875;-110.20732879638672;-5.640798568725586;4.0471954345703125;-6.66949462890625;4.9954986572265625
1445423897108;335.9670104980469;-111.30361938476562;-5.815909385681152;-1.0130462646484375;-7.316741943359375;-0.4962158203125
1445423897142;337.6678466796875;-109.55106353759766;-4.394972801208496;-5.4848785400390625;-10.337188720703125;0.19024658203125
1445423897174;341.77752685546875;-104.96469116210938;-1.6136610507965088;-3.621612548828125;-10.8275146484375;0.4844512939453125
1445423897207;343.8267822265625;-102.92831420898438;-1.0415117740631104;-0.542327880859375;-10.984420776367188;-0.0254974365234375
1445423897240;342.55633544921875;-99.4157943725586;-1.8106523752212524;1.164031982421875;-10.396026611328125;0.0921783447265625
1445423897275;340.2574157714844;-96.84095764160156;-2.783663749694824;2.635040283203125;-9.90570068359375;0.504058837890625
1445423897305;340.3013916015625;-95.58098602294922;-2.5225939750671387;1.811279296875;-9.748779296875;-0.2608642578125
1445423897338;342.27874755859375;-93.29485321044922;-1.7554607391357422;-0.1108245849609375;-10.02337646484375;0.13140869140625
1445423897371;345.4632873535156;-91.4388198852539;-0.8446854948997498;0.16375732421875;-9.3369140625;0.955169677734375
1445423897404;347.030029296875;-90.42375183105469;-0.5762659311294556;0.3206634521484375;-8.983871459960938;1.131683349609375
1445423897439;349.65472412109375;-88.00289154052734;-0.6448790431022644;0.5167999267578125;-9.3369140625;1.9554443359375
1445423897470;350.858154296875;-86.72514343261719;-0.7952964901924133;1.24249267578125;-9.631103515625;0.2098541259765625
1445423897503;351.72735595703125;-83.69039916992188;-0.9796776175498962;1.164031982421875;-9.96453857421875;-0.4962158203125
1445423897536;350.0621643066406;-80.11358642578125;-0.6969509124755859;0.34027099609375;-10.925582885742188;-2.08489990234375
1445423897569;349.57672119140625;-78.62625885009766;-0.8015335202217102;-1.9348602294921875;-11.749343872070312;-0.82965087890625
1445423897603;352.63922119140625;-77.78308868408203;-1.6168650388717651;-2.8370819091796875;-11.847412109375;0.0921783447265625
1445423897635;357.35186767578125;-78.82780456542969;-1.8566538095474243;-2.621337890625;-13.867584228515625;0.7394256591796875
1445423897675;357.3787841796875;-78.97695922851562;-1.7391643524169922;-2.8959197998046875;-13.828353881835938;0.5432891845703125
1445423897701;353.8331298828125;-78.84447479248047;-0.46279433369636536;-3.3274078369140625;-13.78912353515625;-1.692626953125
1445423897734;350.8233337402344;-81.0841293334961;0.5471922755241394;-0.97381591796875;-10.278350830078125;-0.94732666015625
1445423897768;350.03472900390625;-83.50730895996094;0.7808420658111572;0.5560302734375;-9.513427734375;0.386383056640625
1445423897800;348.7967529296875;-89.33008575439453;0.8069426417350769;2.55657958984375;-11.317855834960938;1.3474273681640625
1445423897833;348.28985595703125;-92.45476531982422;0.5273420214653015;2.5173492431640625;-12.808456420898438;1.21014404296875
1445423897866;345.74151611328125;-98.26305389404297;-0.3611597418785095;1.8308868408203125;-12.53387451171875;2.1319580078125
1445423897900;335.27239990234375;-100.85684967041016;-1.7770484685897827;-1.915252685546875;-12.965362548828125;0.1706390380859375
1445423897936;330.2267150878906;-103.24056243896484;-2.4891316890716553;-2.17022705078125;-10.454864501953125;0.2686920166015625
1445423897965;324.2974853515625;-108.6039047241211;-3.591326951980591;-1.169952392578125;-9.356521606445312;0.58251953125
1445423897997;321.8070983886719;-110.51480865478516;-4.28220272064209;-0.208892822265625;-8.689666748046875;0.13140869140625
1445423898034;316.0965270996094;-113.6520767211914;-5.464966773986816;-0.542327880859375;-7.12060546875;0.2686920166015625
1445423898064;310.29998779296875;-115.55060577392578;-6.040133476257324;-0.3657989501953125;-6.5125885009765625;0.641357421875
1445423898097;305.92510986328125;-116.29634094238281;-6.117156028747559;1.0267486572265625;-4.845458984375;0.386383056640625
1445423898130;304.4990539550781;-116.2030029296875;-5.743178844451904;1.47784423828125;-4.904296875;-0.2020263671875
1445423898163;303.2614440917969;-114.80610656738281;-4.155384540557861;1.850494384765625;-7.552093505859375;-2.692901611328125
1445423898196;303.4223327636719;-113.52815246582031;-3.1779627799987793;2.5958099365234375;-13.298797607421875;-6.674407958984375
1445423898229;303.10870361328125;-110.70083618164062;-2.102708578109741;1.8701171875;-14.495208740234375;-9.106460571289062
1445423898262;300.5506286621094;-109.68019104003906;-1.7351094484329224;-0.58154296875;-10.729446411132812;-7.125518798828125
1445423898295;298.48052978515625;-110.42979431152344;-1.735396385192871;0.5756378173828125;-11.121719360351562;-4.2031402587890625
1445423898329;295.66552734375;-111.28846740722656;-2.2565672397613525;2.183929443359375;-16.083877563476562;-3.45782470703125
1445423898362;297.2594299316406;-110.40758514404297;-3.3054862022399902;2.929229736328125;-12.180831909179688;-3.7324066162109375
1445423898394;297.6724548339844;-110.45545196533203;-3.4381449222564697;2.10546875;-4.4335784912109375;4.6424713134765625
1445423898427;300.1955871582031;-111.77052307128906;-1.455155849456787;0.987518310546875;-4.727783203125;3.60296630859375
1445423898460;302.2417297363281;-110.63267517089844;-0.06702295690774918;-3.7588958740234375;-11.965087890625;1.2297515869140625
1445423898493;306.97265625;-106.21642303466797;0.83729487657547;-3.7785186767578125;-11.27862548828125;1.44549560546875
1445423898526;308.591552734375;-102.4159927368164;1.0907464027404785;-1.5033721923828125;-10.376419067382812;-0.1431732177734375
1445423898559;307.78643798828125;-100.62178039550781;0.8579789400100708;0.5560302734375;-10.062606811523438;0.0921783447265625
1445423898593;308.373046875;-97.77580261230469;1.0814231634140015;0.595245361328125;-10.278350830078125;0.2098541259765625
1445423898626;311.2647705078125;-94.54178619384766;1.948813557624817;0.16375732421875;-9.493820190429688;0.052947998046875
1445423898661;311.8498840332031;-93.26129913330078;2.0320451259613037;-0.1108245849609375;-9.90570068359375;-0.4766082763671875
1445423898691;314.0673828125;-91.50470733642578;2.110720634460449;-0.01275634765625;-9.434967041015625;-0.2020263671875
1445423898724;319.3374328613281;-90.18635559082031;2.242845296859741;0.16375732421875;-9.258453369140625;1.1512908935546875
1445423898758;322.0840759277344;-89.47359466552734;2.2682766914367676;-0.091217041015625;-9.45458984375;0.641357421875
1445423898791;323.7329406738281;-87.5839614868164;2.2823188304901123;-0.405029296875;-9.06231689453125;0.2294769287109375
1445423898824;323.7088317871094;-84.87818908691406;2.2291369438171387;-0.6796112060546875;-9.434967041015625;-0.7904205322265625
1445423898856;324.0272521972656;-83.41264343261719;1.9571000337600708;-1.0718841552734375;-9.925308227539062;-0.6727447509765625
1445423898890;324.9827575683594;-81.30286407470703;1.2806954383850098;-3.229339599609375;-11.16094970703125;1.4847259521484375
1445423898922;326.3691711425781;-80.93450927734375;1.2213627099990845;-2.17022705078125;-12.906524658203125;0.621734619140625
1445423898957;329.7210388183594;-80.41961669921875;1.1117470264434814;-0.0519866943359375;-13.298797607421875;-0.9865570068359375
1445423898988;329.87744140625;-80.16419982910156;1.128673791885376;-1.6210479736328125;-13.67144775390625;-1.6533966064453125
1445423899022;329.34912109375;-80.55280303955078;1.5058740377426147;-2.5036468505859375;-13.396865844726562;-1.574951171875
1445423899054;327.62860107421875;-82.9775161743164;2.583163022994995;-0.895355224609375;-12.02392578125;-0.751190185546875
1445423899087;326.6835021972656;-88.44857025146484;2.8740456104278564;2.4585113525390625;-10.278350830078125;0.955169677734375
1445423899120;326.6020202636719;-91.87337493896484;2.240182876586914;4.439453125;-12.769241333007812;0.8571014404296875
1445423899153;326.73822021484375;-98.63983917236328;0.21610599756240845;4.576751708984375;-12.788848876953125;0.30792236328125
1445423899186;321.3579406738281;-103.07964324951172;-1.7749309539794922;0.301055908203125;-12.47503662109375;-0.300079345703125
1445423899220;316.1158142089844;-104.24588012695312;-2.8993241786956787;-0.9934234619140625;-10.984420776367188;0.7982635498046875
1445423899252;310.3763427734375;-109.2109603881836;-4.840339183807373;-0.0716094970703125;-7.493255615234375;0.6021270751953125
1445423899284;309.1418762207031;-111.50628662109375;-6.299483299255371;2.0858612060546875;-7.0029296875;-1.0453948974609375
1445423899318;306.8828125;-115.1866683959961;-9.876291275024414;2.1446990966796875;-7.2186737060546875;-1.3003692626953125
1445423899352;304.52850341796875;-117.37454223632812;-11.858431816101074;1.105194091796875;-6.8264007568359375;-0.7119598388671875
1445423899385;303.07073974609375;-117.5630874633789;-12.21325969696045;0.9678955078125;-5.3161773681640625;-1.084625244140625
1445423899416;300.73773193359375;-117.35443115234375;-11.645294189453125;1.0855865478515625;-4.982757568359375;-1.810302734375
1445423899451;300.19183349609375;-116.06232452392578;-9.141804695129395;1.8701171875;-5.1396636962890625;-3.4185943603515625
1445423899483;300.79449462890625;-114.97199249267578;-7.490792274475098;3.9883575439453125;-7.9051361083984375;-5.595672607421875
1445423899516;304.25726318359375;-111.97425079345703;-4.709568977355957;4.694427490234375;-11.729736328125;-6.164459228515625
1445423899549;305.51519775390625;-110.50141906738281;-4.22117805480957;3.0076904296875;-14.044097900390625;-8.106185913085938
1445423899582;303.8687438964844;-109.47498321533203;-4.569344997406006;1.7720489501953125;-11.004043579101562;-7.4589385986328125
1445423899615;300.3158874511719;-110.98802185058594;-5.110159873962402;1.9093475341796875;-11.435531616210938;-4.163909912109375
1445423899649;301.00390625;-111.2870101928711;-5.623245716094971;3.4195709228515625;-15.5543212890625;-3.6735687255859375
1445423899682;301.2203674316406;-111.16184997558594;-6.325464725494385;3.6745452880859375;-9.886077880859375;-2.7713623046875
1445423899714;303.0660400390625;-112.76891326904297;-5.6995744705200195;3.8510589599609375;-5.0612030029296875;5.3289337158203125
1445423899747;306.4136962890625;-112.25926971435547;-4.017261505126953;-1.3856964111328125;-11.670883178710938;0.19024658203125
1445423899781;311.8260498046875;-107.6722412109375;-1.7412697076797485;-4.0727081298828125;-12.612335205078125;1.9750518798828125
1445423899814;317.02264404296875;-103.36089324951172;0.026231342926621437;-2.8370819091796875;-10.02337646484375;0.935546875
1445423899848;316.9623107910156;-101.3462905883789;0.13164688646793365;-0.326568603515625;-10.062606811523438;-0.123565673828125
1445423899879;317.220947265625;-97.85964965820312;-0.4960538148880005;0.7325439453125;-10.337188720703125;-0.2608642578125
1445423899912;323.0138854980469;-94.53620910644531;0.13894155621528625;0.5167999267578125;-10.02337646484375;-0.0451202392578125
1445423899947;326.2094421386719;-92.8167495727539;0.5492478609085083;-0.91497802734375;-9.807632446289062;0.327545166015625
1445423899979;329.073974609375;-89.78448486328125;0.7108564972877502;-0.5619354248046875;-9.572265625;-0.0451202392578125
1445423900012;329.92626953125;-88.61546325683594;0.6885432004928589;0.2618255615234375;-8.964248657226562;-0.0451202392578125
1445423900044;334.46612548828125;-87.17013549804688;0.25491970777511597;-0.0716094970703125;-9.101547241210938;1.014007568359375
1445423900078;338.91168212890625;-85.77391052246094;-0.3193471431732178;-0.1304473876953125;-9.415359497070312;0.641357421875
1445423900113;339.21099853515625;-84.62226867675781;-0.5389713644981384;-0.542327880859375;-9.45458984375;-0.064727783203125
1445423900143;339.16839599609375;-81.7635269165039;-0.6112400889396667;-0.601165771484375;-9.768402099609375;-0.3589324951171875
1445423900176;339.9269104003906;-79.40291595458984;-1.4213535785675049;-1.169952392578125;-11.16094970703125;-1.5357208251953125
1445423900209;340.3115539550781;-79.15397644042969;-1.7484863996505737;-2.05255126953125;-11.867019653320312;-0.1039581298828125
1445423900242;342.3370361328125;-79.90455627441406;-1.9241399765014648;-2.032928466796875;-12.043548583984375;0.30792236328125
1445423900276;341.9499206542969;-80.175048828125;-1.7887884378433228;-2.032928466796875;-14.024490356445312;0.4256134033203125
1445423900311;340.04248046875;-80.48445129394531;-1.293091058731079;-3.8765869140625;-12.631942749023438;-2.065277099609375
1445423900343;333.9735107421875;-82.46517181396484;-0.21345756947994232;-2.2094573974609375;-10.042984008789062;-0.3197021484375
1445423900374;331.54779052734375;-84.74727630615234;-0.1116010919213295;0.9090576171875;-9.356521606445312;1.2297515869140625
1445423900407;328.1310729980469;-90.23016357421875;-0.8092676997184753;1.222869873046875;-10.5333251953125;1.641632080078125
1445423900440;326.0875244140625;-96.10786437988281;-1.7226300239562988;0.5167999267578125;-12.376968383789062;1.38665771484375
1445423900475;323.0420837402344;-98.59642028808594;-1.8892823457717896;-2.2682952880859375;-13.534149169921875;0.4648284912109375
1445423900506;311.81939697265625;-101.20881652832031;-2.5861167907714844;-3.1312713623046875;-12.631942749023438;0.445220947265625
1445423900540;301.6083679199219;-105.78478240966797;-3.751817464828491;-2.34674072265625;-10.807907104492188;-0.2804718017578125
1445423900572;297.9463806152344;-108.37003326416016;-4.007112503051758;-2.05255126953125;-9.258453369140625;0.935546875
1445423900605;289.8077392578125;-111.38825225830078;-4.9201507568359375;-1.522979736328125;-8.728897094726562;1.0924530029296875
1445423900643;282.6392822265625;-114.19876098632812;-6.128078460693359;0.5167999267578125;-8.218948364257812;0.8374786376953125
1445423900677;277.8926696777344;-116.0386734008789;-6.284738540649414;2.360443115234375;-6.5125885009765625;0.2883148193359375
1445423900707;276.2703552246094;-116.5008773803711;-5.767764091491699;2.4781341552734375;-5.9241943359375;0.1510162353515625
1445423900737;273.68792724609375;-116.3661117553711;-4.934497356414795;2.0858612060546875;-5.7084503173828125;-0.94732666015625
1445423900770;273.0502014160156;-115.85684204101562;-4.624685287475586;2.301605224609375;-6.7087249755859375;-1.9083709716796875
1445423900803;272.5294494628906;-113.75940704345703;-4.781945705413818;3.2430419921875;-10.121444702148438;-3.9481658935546875
1445423900836;270.9203186035156;-111.17535400390625;-5.528566837310791;1.0267486572265625;-11.670883178710938;-7.94927978515625
1445423900868;269.2659912109375;-110.5959243774414;-5.778526782989502;-0.4442596435546875;-10.8275146484375;-8.027725219726562
1445423900903;266.15185546875;-111.58757781982422;-5.334384918212891;-1.4445343017578125;-6.9636993408203125;-5.7133636474609375
1445423900935;264.79583740234375;-111.67698669433594;-4.768665790557861;2.7134857177734375;-15.6131591796875;-3.791259765625
1445423900968;264.42706298828125;-110.55865478515625;-5.174476146697998;4.4786834716796875;-20.241897583007812;-1.457275390625
1445423901002;264.49560546875;-109.75274658203125;-6.975334644317627;3.7137603759765625;-11.16094970703125;0.58251953125
1445423901034;264.47796630859375;-110.4591293334961;-7.562887668609619;0.1245269775390625;-4.15899658203125;5.1327972412109375
1445423901067;268.5448303222656;-109.94356536865234;-5.6550469398498535;-1.9348602294921875;-6.43414306640625;1.4258880615234375
1445423901099;273.53521728515625;-105.21637725830078;-3.9205410480499268;-4.935699462890625;-11.592437744140625;1.8573760986328125
1445423901136;275.54693603515625;-103.22547149658203;-3.7095344066619873;-1.8956451416015625;-10.670608520507812;0.6609649658203125
