sep=;
timestamp;gyro-alpha;gyro-beta;gyro-gamma;accel-x;accel-y;accel-z
1445423524733;323.0019226074219;-112.97936248779297;-17.359840393066406;1.6347503662109375;-5.35540771484375;-2.4379425048828125
1445423524767;321.078369140625;-112.13304138183594;-17.391016006469727;1.3797760009765625;-5.0612030029296875;-2.5556182861328125
1445423524800;315.1944580078125;-109.95072174072266;-17.798063278198242;1.3993988037109375;-5.1200408935546875;-3.0655670166015625
1445423524832;307.69268798828125;-106.72820281982422;-18.924205780029297;3.1253662109375;-8.1993408203125;-3.202850341796875
1445423524866;305.39190673828125;-105.03995513916016;-19.54377555847168;6.341949462890625;-13.73028564453125;-3.653961181640625
1445423524899;302.2281799316406;-104.15425872802734;-19.60602569580078;4.694427490234375;-15.024765014648438;-4.8307647705078125
1445423524932;302.2728271484375;-103.903564453125;-18.002897262573242;0.418731689453125;-8.042434692382812;1.8966064453125
1445423524965;302.4121398925781;-102.79180908203125;-17.772567749023438;2.360443115234375;-7.92474365234375;2.151580810546875
1445423524997;297.8870544433594;-101.04643249511719;-18.93185806274414;1.98779296875;-11.121719360351562;-0.9865570068359375
1445423525030;295.005859375;-100.68487548828125;-19.48235321044922;1.7132110595703125;-11.10211181640625;-1.4768829345703125
1445423525064;291.3044128417969;-100.02678680419922;-19.453092575073242;2.73309326171875;-10.454864501953125;-1.202301025390625
1445423525097;288.7240905761719;-98.92872619628906;-18.9290714263916;2.752716064453125;-9.06231689453125;-0.9669342041015625
1445423525130;287.3537902832031;-98.42633819580078;-18.718496322631836;2.38006591796875;-9.434967041015625;-1.810302734375
1445423525163;284.4034729003906;-98.09881591796875;-18.598222732543945;2.2035369873046875;-9.533035278320312;-1.96722412109375
1445423525196;282.20880126953125;-98.4306869506836;-18.556276321411133;2.066253662109375;-9.572265625;-1.5945587158203125
1445423525229;281.7030029296875;-99.01884460449219;-18.45682716369629;2.43890380859375;-9.434967041015625;-1.6141815185546875
1445423525262;281.66070556640625;-100.38140869140625;-18.262184143066406;2.43890380859375;-9.552658081054688;-0.5550537109375
1445423525295;282.49261474609375;-100.75556182861328;-17.736433029174805;2.43890380859375;-10.19989013671875;0.8571014404296875
1445423525328;282.9244384765625;-100.50899505615234;-17.39134407043457;3.0272979736328125;-10.552932739257812;0.8571014404296875
1445423525361;282.73883056640625;-99.64302825927734;-17.136924743652344;3.556854248046875;-10.239120483398438;-0.064727783203125
1445423525394;282.5348205566406;-99.32508850097656;-17.196521759033203;3.3999481201171875;-9.846847534179688;-0.4766082763671875
1445423525427;281.5816955566406;-98.52548217773438;-17.330263137817383;3.3607330322265625;-9.670333862304688;-0.77081298828125
1445423525459;280.48248291015625;-97.5263900756836;-17.559860229492188;3.831451416015625;-9.00347900390625;-1.574951171875
1445423525494;279.92529296875;-97.22196197509766;-17.726703643798828;2.5958099365234375;-9.552658081054688;-2.3006439208984375
1445423525526;278.89251708984375;-96.85643768310547;-18.068695068359375;1.928955078125;-9.984146118164062;-2.457550048828125
1445423525559;278.2912292480469;-97.00810241699219;-18.022584915161133;0.9678955078125;-10.337188720703125;-2.6144561767578125
1445423525593;278.3032531738281;-97.23043060302734;-17.85316276550293;1.24249267578125;-10.180282592773438;-1.2415313720703125
1445423525625;279.36004638671875;-97.56729888916016;-17.449880599975586;2.0074005126953125;-10.02337646484375;-0.241241455078125
1445423525659;281.140380859375;-97.34620666503906;-17.07286834716797;3.5372467041015625;-10.003753662109375;-0.1039581298828125
1445423525691;281.74554443359375;-96.86249542236328;-17.053075790405273;3.3018798828125;-10.160659790039062;-0.2804718017578125
1445423525724;282.1365661621094;-95.67501831054688;-17.026077270507812;1.6347503662109375;-10.19989013671875;-0.3981475830078125
1445423525757;282.05706787109375;-94.88919067382812;-16.842668533325195;1.046356201171875;-10.121444702148438;-0.6727447509765625
1445423525790;281.48101806640625;-93.05314636230469;-16.300071716308594;1.4582366943359375;-9.96453857421875;-0.7119598388671875
1445423525825;281.231689453125;-91.47112274169922;-15.588398933410645;2.635040283203125;-9.768402099609375;-0.7904205322265625
1445423525855;281.33367919921875;-90.79761505126953;-15.29908275604248;2.9096221923828125;-9.925308227539062;0.0921783447265625
1445423525891;282.8555908203125;-89.62714385986328;-14.62470817565918;3.1449737548828125;-9.788009643554688;0.30792236328125
1445423525925;286.0028076171875;-88.19819641113281;-14.138777732849121;3.046905517578125;-9.278060913085938;1.50433349609375
1445423525956;287.4715576171875;-87.36992645263672;-14.0729341506958;2.870391845703125;-9.434967041015625;1.56317138671875
1445423525988;289.2901306152344;-85.9057846069336;-14.398381233215332;2.5761871337890625;-9.45458984375;1.6808624267578125
1445423526024;291.000732421875;-84.90454864501953;-14.941401481628418;2.5369720458984375;-9.866470336914062;1.6808624267578125
1445423526054;291.68212890625;-84.46905517578125;-15.286304473876953;2.419281005859375;-10.14105224609375;1.3670501708984375
1445423526087;292.61102294921875;-84.26276397705078;-15.93851089477539;1.98779296875;-10.513702392578125;1.131683349609375
1445423526121;294.29046630859375;-84.81340789794922;-16.331968307495117;2.183929443359375;-10.278350830078125;1.8377685546875
1445423526153;295.2747802734375;-85.26277160644531;-16.50786781311035;2.32122802734375;-10.08221435546875;1.9358367919921875
1445423526185;297.1082763671875;-86.26980590820312;-16.939516067504883;3.2822723388671875;-10.042984008789062;1.8573760986328125
1445423526218;298.10858154296875;-86.80821990966797;-17.22513771057129;4.2041015625;-9.788009643554688;1.818145751953125
1445423526251;300.7037658691406;-88.10961151123047;-17.822782516479492;4.5375213623046875;-9.768402099609375;1.700469970703125
1445423526285;303.75579833984375;-89.64732360839844;-18.422700881958008;5.00823974609375;-9.45458984375;0.7786407470703125
1445423526318;305.3033752441406;-90.56497955322266;-18.74022102355957;4.145263671875;-7.885528564453125;-0.1431732177734375
1445423526350;309.6160583496094;-93.18058013916016;-19.1491641998291;3.3018798828125;-7.5913238525390625;-0.1431732177734375
1445423526384;313.31231689453125;-96.12930297851562;-19.345516204833984;2.301605224609375;-9.238845825195312;0.2294769287109375
1445423526416;314.6917419433594;-97.5153579711914;-19.356260299682617;2.5761871337890625;-10.19989013671875;0.052947998046875
1445423526449;317.2882385253906;-99.78446197509766;-19.025331497192383;3.890289306640625;-10.807907104492188;-0.868865966796875
1445423526483;318.62847900390625;-100.53665924072266;-18.7828426361084;4.812103271484375;-10.866744995117188;-1.12384033203125
1445423526515;321.447509765625;-101.58887481689453;-18.55084228515625;4.7336578369140625;-10.552932739257812;-1.1630706787109375
1445423526549;324.5455322265625;-102.84767150878906;-18.57652473449707;4.517913818359375;-9.238845825195312;-1.3592071533203125
1445423526582;325.9642639160156;-103.40804290771484;-18.63548469543457;3.439178466796875;-8.238555908203125;-1.6337890625
1445423526615;327.8446044921875;-103.87118530273438;-18.78314971923828;2.811553955078125;-8.003204345703125;-1.574951171875
1445423526647;328.6407470703125;-103.75736236572266;-18.884992599487305;1.5955352783203125;-7.257904052734375;-0.94732666015625
1445423526681;328.98004150390625;-103.7740249633789;-18.764917373657227;1.3797760009765625;-7.0813751220703125;-0.751190185546875
1445423526714;331.08514404296875;-104.24031829833984;-18.127519607543945;2.929229736328125;-8.120880126953125;-1.6533966064453125
1445423526748;335.8256530761719;-105.02001190185547;-17.05345344543457;4.5571441650390625;-10.14105224609375;-3.4185943603515625
1445423526779;338.45135498046875;-105.2857666015625;-16.534923553466797;4.71405029296875;-10.6510009765625;-3.653961181640625
1445423526813;343.6012878417969;-105.21647644042969;-15.69390869140625;5.1063079833984375;-12.318130493164062;-3.1047821044921875
1445423526846;346.3590087890625;-105.00472259521484;-15.534671783447266;5.1063079833984375;-10.9451904296875;-2.8105926513671875
1445423526879;351.4184875488281;-104.42013549804688;-15.862098693847656;4.184478759765625;-10.08221435546875;-2.26141357421875
1445423526911;354.7796325683594;-103.52973937988281;-16.512939453125;1.8897247314453125;-8.3170166015625;-1.0453948974609375
1445423526945;356.4686584472656;-103.2755126953125;-16.75006103515625;1.615142822265625;-7.0029296875;-0.241241455078125
1445423526978;0.2010498046875;-103.04084014892578;-17.45913314819336;2.32122802734375;-6.5714263916015625;-0.2608642578125
1445423527011;3.498291015625;-103.02320861816406;-19.033506393432617;3.2430419921875;-6.944091796875;-0.692352294921875
1445423527045;4.855682373046875;-103.25335693359375;-20.230812072753906;4.3021697998046875;-8.866195678710938;-1.6533966064453125
1445423527077;8.68487548828125;-104.74311065673828;-22.426633834838867;4.2041015625;-9.650726318359375;-2.575225830078125
1445423527111;12.45684814453125;-105.2983627319336;-23.54540252685547;4.3413848876953125;-11.10211181640625;-2.8498077392578125
1445423527149;15.325103759765625;-103.9701156616211;-24.14410972595215;5.3416748046875;-10.631378173828125;-2.575225830078125
1445423527175;17.02166748046875;-102.95431518554688;-24.146970748901367;5.4593505859375;-9.886077880859375;-2.1045074462890625
1445423527209;18.996124267578125;-101.7908935546875;-23.947202682495117;5.6750946044921875;-8.866195678710938;-0.751190185546875
1445423527242;24.252838134765625;-99.30432891845703;-23.139890670776367;5.7535552978515625;-8.670059204101562;-0.3589324951171875
1445423527275;28.5604248046875;-96.551025390625;-23.019134521484375;4.6551971435546875;-7.80706787109375;-0.241241455078125
1445423527307;29.944061279296875;-95.53388214111328;-23.088909149169922;2.43890380859375;-7.9051361083984375;0.4059906005859375
1445423527341;31.639373779296875;-94.02904510498047;-22.561683654785156;2.0074005126953125;-8.356246948242188;1.072845458984375
1445423527374;33.6280517578125;-91.87574768066406;-20.955080032348633;2.183929443359375;-9.631103515625;0.621734619140625
1445423527406;34.7672119140625;-90.6796646118164;-20.154312133789062;0.7913818359375;-9.748779296875;1.2885894775390625
1445423527440;34.60260009765625;-88.12779235839844;-19.01594352722168;1.0267486572265625;-11.121719360351562;1.4847259521484375
1445423527473;34.9136962890625;-85.83867645263672;-17.816116333007812;1.0071258544921875;-12.082763671875;0.30792236328125
1445423527506;35.94769287109375;-85.23023986816406;-17.068326950073242;0.8306121826171875;-11.33746337890625;0.9159393310546875
1445423527540;38.977020263671875;-84.59837341308594;-15.030207633972168;1.105194091796875;-9.886077880859375;2.0731201171875
1445423527572;40.731201171875;-83.40223693847656;-13.28606128692627;1.7132110595703125;-9.768402099609375;2.40655517578125
1445423527608;41.655914306640625;-82.75350189208984;-12.757577896118164;2.0270233154296875;-8.807342529296875;1.3670501708984375
1445423527637;43.980682373046875;-81.72867584228516;-12.344082832336426;2.183929443359375;-8.277786254882812;1.582794189453125
1445423527670;45.47564697265625;-81.35476684570312;-12.286014556884766;3.0861358642578125;-8.591598510742188;1.7397003173828125
1445423527704;49.262420654296875;-80.50555419921875;-12.318965911865234;3.321502685546875;-9.807632446289062;1.50433349609375
1445423527737;54.198883056640625;-79.78309631347656;-13.10318660736084;1.497467041015625;-11.670883178710938;0.4648284912109375
1445423527771;56.124420166015625;-79.54097747802734;-13.472125053405762;-1.3660736083984375;-11.376693725585938;0.759033203125
1445423527803;57.6915283203125;-79.55445098876953;-13.342109680175781;-1.915252685546875;-11.612045288085938;0.955169677734375
1445423527835;57.80841064453125;-80.18661499023438;-12.020560264587402;-0.3657989501953125;-11.651275634765625;1.1709136962890625
1445423527868;58.313018798828125;-80.58512115478516;-11.439706802368164;1.0267486572265625;-11.39630126953125;1.131683349609375
1445423527902;59.511962890625;-81.66947937011719;-10.989336013793945;2.5958099365234375;-10.670608520507812;0.5432891845703125
1445423527935;58.75152587890625;-82.79794311523438;-11.048657417297363;1.4582366943359375;-8.866195678710938;1.0336151123046875
1445423527968;57.340545654296875;-83.48361206054688;-11.023231506347656;0.987518310546875;-7.86590576171875;1.8377685546875
1445423528001;52.278656005859375;-84.39035034179688;-10.89669418334961;0.536407470703125;-5.5711517333984375;4.1325225830078125
1445423528034;49.200225830078125;-84.39798736572266;-10.919299125671387;1.8897247314453125;-6.179168701171875;5.3681640625
1445423528067;46.061798095703125;-83.19012451171875;-10.929985046386719;3.380340576171875;-8.807342529296875;4.4659423828125
1445423528099;49.24456787109375;-80.98886108398438;-10.842071533203125;5.3612823486328125;-16.495758056640625;0.3471527099609375
1445423528132;53.051177978515625;-80.29713439941406;-10.873201370239258;0.0853118896484375;-13.749893188476562;-1.2415313720703125
1445423528166;53.38519287109375;-81.43539428710938;-11.296624183654785;-1.3072357177734375;-12.41619873046875;2.64190673828125
1445423528199;47.320648193359375;-83.65473937988281;-10.947209358215332;2.164306640625;-11.749343872070312;3.406829833984375
1445423528231;46.11572265625;-84.13459014892578;-10.970732688903809;3.2430419921875;-10.14105224609375;2.7988128662109375
1445423528265;46.70928955078125;-84.9139175415039;-11.247401237487793;3.57647705078125;-7.4736480712890625;1.6808624267578125
1445423528297;47.267333984375;-85.01992797851562;-12.079385757446289;2.046630859375;-5.786895751953125;2.210418701171875
1445423528331;47.1199951171875;-84.70602416992188;-12.498927116394043;1.41900634765625;-5.29656982421875;2.3084869384765625
1445423528364;45.42095947265625;-82.75666046142578;-13.000730514526367;1.0659637451171875;-7.92474365234375;2.896881103515625
1445423528397;45.05462646484375;-80.23016357421875;-13.276495933532715;2.73309326171875;-11.90625;2.3673248291015625
1445423528430;48.214080810546875;-78.93042755126953;-13.637846946716309;5.655487060546875;-15.3778076171875;0.7394256591796875
1445423528462;52.38702392578125;-76.96208953857422;-14.770896911621094;1.0855865478515625;-11.494369506835938;0.562896728515625
1445423528495;51.60791015625;-76.61161804199219;-15.090909004211426;-0.3657989501953125;-9.572265625;2.720367431640625
1445423528528;49.3260498046875;-75.76392364501953;-14.899247169494629;0.34027099609375;-9.356521606445312;2.6026763916015625
1445423528562;49.775726318359375;-74.57756042480469;-14.718360900878906;1.98779296875;-9.474197387695312;1.7200775146484375
1445423528596;51.06793212890625;-73.9605941772461;-14.987603187561035;2.67425537109375;-10.121444702148438;0.2098541259765625
1445423528628;55.1414794921875;-73.62356567382812;-16.12091636657715;2.5958099365234375;-10.474472045898438;0.0333404541015625
1445423528661;57.235107421875;-73.86845397949219;-17.547489166259766;1.046356201171875;-10.415634155273438;1.1120758056640625
1445423528693;57.158905029296875;-73.99340057373047;-18.217254638671875;0.4971771240234375;-10.415634155273438;1.50433349609375
1445423528726;58.513427734375;-74.13563537597656;-19.183391571044922;2.1446990966796875;-11.121719360351562;0.8374786376953125
1445423528760;62.743621826171875;-74.94647216796875;-19.821870803833008;5.027862548828125;-12.396575927734375;1.1512908935546875
1445423528793;65.681396484375;-75.94223022460938;-20.15635871887207;6.1654205322265625;-13.475311279296875;0.935546875
1445423528826;71.54547119140625;-78.93631744384766;-21.001140594482422;4.9297943115234375;-11.200164794921875;-1.06500244140625
1445423528859;74.194091796875;-80.74199676513672;-21.511892318725586;3.57647705078125;-9.768402099609375;-2.1241302490234375
1445423528893;78.83731079101562;-86.12275695800781;-22.369606018066406;2.4585113525390625;-9.434967041015625;-2.457550048828125
1445423528925;72.06427001953125;-93.6338882446289;-21.209291458129883;-1.8171844482421875;-9.160385131835938;3.15185546875
1445423528957;62.16693115234375;-96.17951965332031;-19.832836151123047;0.4579620361328125;-6.944091796875;4.3286590576171875
1445423528991;54.438690185546875;-98.82858276367188;-17.050851821899414;2.046630859375;-7.1009979248046875;1.1512908935546875
1445423529023;57.34014892578125;-102.11076354980469;-15.403470039367676;5.596649169921875;-9.866470336914062;-2.5556182861328125
1445423529057;58.882080078125;-104.14031982421875;-15.086906433105469;10.343063354492188;-12.004318237304688;-2.8498077392578125
1445423529090;59.527008056640625;-107.6566162109375;-16.18255615234375;8.793609619140625;-12.376968383789062;-2.7517547607421875
1445423529123;54.4349365234375;-110.58244323730469;-16.82216453552246;4.517913818359375;-13.141891479492188;-1.829925537109375
1445423529156;52.08526611328125;-111.25171661376953;-16.755178451538086;4.066802978515625;-11.572830200195312;-1.9279937744140625
1445423529189;46.900848388671875;-111.93279266357422;-17.109725952148438;2.752716064453125;-7.57171630859375;-2.26141357421875
1445423529222;43.97589111328125;-112.29198455810547;-17.673940658569336;1.6543731689453125;-5.100433349609375;-1.6337890625
1445423529256;39.2994384765625;-113.52262878417969;-18.978755950927734;1.8701171875;-4.923919677734375;-2.339874267578125
1445423529288;37.96221923828125;-115.62413787841797;-20.041725158691406;3.4587860107421875;-5.9241943359375;-4.222747802734375
1445423529321;37.98583984375;-117.01396942138672;-20.618305206298828;5.439727783203125;-7.5913238525390625;-6.0860137939453125
1445423529354;37.921875;-120.18468475341797;-22.052600860595703;7.3814544677734375;-9.788009643554688;-6.0860137939453125
1445423529386;35.7362060546875;-123.49317169189453;-24.70927619934082;7.479522705078125;-9.631103515625;-4.8699798583984375
1445423529420;33.99566650390625;-125.24281311035156;-26.494054794311523;5.2239837646484375;-7.86590576171875;-5.301483154296875
1445423529452;28.2037353515625;-127.35015869140625;-30.372432708740234;4.1648712158203125;-6.7871856689453125;-4.4973297119140625
1445423529486;20.890869140625;-127.54898834228516;-34.05820846557617;1.5955352783203125;-2.6880035400390625;-2.8890380859375
1445423529519;18.050628662109375;-126.96385955810547;-35.39474105834961;0.7521514892578125;-1.0404815673828125;-1.947601318359375
1445423529552;14.61700439453125;-124.32241821289062;-36.33481216430664;1.18365478515625;-3.02142333984375;-2.1045074462890625
1445423529586;8.89849853515625;-119.06198120117188;-35.60590362548828;3.57647705078125;-7.92474365234375;-3.57550048828125
1445423529618;7.307403564453125;-115.36389923095703;-35.27348709106445;8.98974609375;-8.4935302734375;-4.222747802734375
1445423529650;7.047607421875;-110.80731964111328;-35.432769775390625;16.423187255859375;-13.73028564453125;-0.3393096923828125
1445423529683;5.260223388671875;-111.96235656738281;-35.849937438964844;8.165985107421875;-10.239120483398438;-10.753982543945312
1445423529717;358.519287109375;-113.61255645751953;-34.4994010925293;2.49774169921875;-16.829193115234375;-3.7324066162109375
1445423529750;354.0046081542969;-113.22517395019531;-32.8303108215332;2.929229736328125;-10.9451904296875;-3.28131103515625
1445423529782;352.0674133300781;-113.16690063476562;-31.783157348632812;2.8311614990234375;-10.297958374023438;-2.20257568359375
1445423529815;348.8527526855469;-111.84683990478516;-29.98786735534668;4.4002227783203125;-10.513702392578125;-1.712249755859375
1445423529849;350.6808166503906;-109.60298156738281;-27.519866943359375;6.400787353515625;-8.670059204101562;-0.4962158203125
1445423529883;352.7342529296875;-108.17560577392578;-26.069021224975586;6.1654205322265625;-8.101272583007812;-1.3592071533203125
1445423529915;355.91326904296875;-105.0520248413086;-24.05104637145996;4.94940185546875;-7.9835968017578125;-1.888763427734375
1445423529948;356.779541015625;-103.27377319335938;-23.477371215820312;2.183929443359375;-7.6501617431640625;-3.144012451171875
1445423529981;355.62481689453125;-102.90522003173828;-23.34245491027832;1.046356201171875;-9.238845825195312;-4.6346282958984375
1445423530013;351.1061706542969;-103.49959564208984;-23.045032501220703;0.2618255615234375;-8.4346923828125;-2.3006439208984375
1445423530047;349.2872009277344;-104.19634246826172;-23.142778396606445;2.67425537109375;-10.121444702148438;-1.51611328125
1445423530079;346.5684814453125;-105.61648559570312;-23.799619674682617;3.2234344482421875;-11.376693725585938;-1.0453948974609375
1445423530113;345.65069580078125;-106.88101196289062;-24.065847396850586;3.498016357421875;-10.6510009765625;-0.7904205322265625
1445423530146;345.19287109375;-107.07140350341797;-24.030048370361328;3.63531494140625;-11.27862548828125;-0.9669342041015625
1445423530179;344.6854248046875;-106.59730529785156;-23.655702590942383;4.0864105224609375;-10.984420776367188;-1.3984375
1445423530212;344.1360778808594;-105.47612762451172;-23.254430770874023;3.615692138671875;-9.513427734375;-1.96722412109375
1445423530246;343.8012390136719;-104.85169982910156;-23.068769454956055;3.2234344482421875;-8.94464111328125;-2.3594818115234375
1445423530278;342.6434631347656;-103.7194595336914;-22.784217834472656;2.8507843017578125;-7.826690673828125;-3.0655670166015625
1445423530311;341.90673828125;-103.29108428955078;-22.689111709594727;3.4195709228515625;-7.7286224365234375;-3.5558929443359375
1445423530344;340.73492431640625;-102.78857421875;-22.630615234375;4.0471954345703125;-8.925033569335938;-3.653961181640625
1445423530377;340.6563720703125;-103.35980224609375;-22.42654037475586;3.7922210693359375;-8.5523681640625;-2.9478759765625
1445423530410;340.6900634765625;-103.83343505859375;-22.253007888793945;3.0272979736328125;-8.238555908203125;-1.9868316650390625
1445423530443;340.93695068359375;-104.60042572021484;-22.064762115478516;3.4195709228515625;-9.513427734375;-2.1241302490234375
1445423530476;341.1763000488281;-104.99424743652344;-21.703765869140625;2.929229736328125;-9.081939697265625;-1.829925537109375
1445423530508;341.2823791503906;-104.97652435302734;-21.360210418701172;3.439178466796875;-9.415359497070312;-2.02606201171875
1445423530541;342.47576904296875;-104.74964904785156;-20.63450813293457;3.9883575439453125;-9.670333862304688;-2.20257568359375
1445423530575;344.0177001953125;-104.19002532958984;-20.058517456054688;3.92950439453125;-9.297683715820312;-2.0456695556640625
1445423530608;344.7651672363281;-103.81385040283203;-19.790687561035156;3.831451416015625;-9.023101806640625;-2.1829681396484375
1445423530641;345.9439697265625;-102.91958618164062;-19.43828582763672;3.890289306640625;-8.591598510742188;-2.4967803955078125
1445423530674;346.5653991699219;-102.25846862792969;-19.348712921142578;3.2038116455078125;-8.748504638671875;-3.22247314453125
1445423530707;347.0010986328125;-102.15481567382812;-19.273710250854492;2.7919464111328125;-8.689666748046875;-4.0658416748046875
1445423530740;347.2841491699219;-102.40538024902344;-18.7838134765625;1.4582366943359375;-8.395462036132812;-3.2420806884765625
1445423530773;346.852294921875;-102.72999572753906;-18.406858444213867;1.3405609130859375;-8.336624145507812;-1.96722412109375
1445423530807;347.5059814453125;-103.031005859375;-17.77939224243164;4.4002227783203125;-11.435531616210938;-0.0451202392578125
1445423530840;348.32562255859375;-102.41104125976562;-18.29561996459961;4.184478759765625;-11.808181762695312;0.58251953125
1445423530877;348.57733154296875;-102.03768157958984;-18.490882873535156;3.3999481201171875;-9.729171752929688;-0.123565673828125
1445423530906;348.9258728027344;-100.67098999023438;-18.54831314086914;3.0076904296875;-9.591873168945312;-0.8492584228515625
1445423530940;348.40667724609375;-98.62261199951172;-18.837581634521484;2.1446990966796875;-9.45458984375;-2.006439208984375
1445423530971;347.9678955078125;-97.683837890625;-18.95452117919922;1.98779296875;-9.023101806640625;-2.26141357421875
1445423531003;347.4959716796875;-96.14308166503906;-18.983898162841797;2.046630859375;-8.983871459960938;-2.3006439208984375
1445423531037;347.44696044921875;-95.72889709472656;-19.002897262573242;1.8308868408203125;-8.76812744140625;-3.8697052001953125
1445423531070;348.4297180175781;-96.53260803222656;-18.563846588134766;1.732818603515625;-9.140777587890625;-5.3995513916015625
1445423531103;347.7362060546875;-98.34666442871094;-18.010940551757812;1.6347503662109375;-11.27862548828125;0.445220947265625
1445423531136;347.5075378417969;-99.0186538696289;-17.986774444580078;3.6745452880859375;-10.376419067382812;2.40655517578125
1445423531168;349.0315856933594;-99.98844909667969;-17.947500228881836;4.0471954345703125;-10.9451904296875;2.2496490478515625
1445423531202;349.4628601074219;-100.3432846069336;-18.10787010192871;3.0076904296875;-11.965087890625;2.838043212890625
1445423531234;350.4649963378906;-100.05987548828125;-17.934789657592773;4.0471954345703125;-10.219512939453125;1.50433349609375
1445423531268;353.4373779296875;-99.11300659179688;-17.82475471496582;3.8510589599609375;-9.3369140625;0.24908447265625
1445423531301;355.3072509765625;-97.68589782714844;-18.416982650756836;2.43890380859375;-8.650436401367188;-1.06500244140625
1445423531334;355.88690185546875;-97.0585708618164;-18.7952938079834;1.5170745849609375;-9.611495971679688;-2.1045074462890625
1445423531366;356.6440734863281;-96.5706558227539;-19.630475997924805;1.7132110595703125;-10.02337646484375;-2.281036376953125
1445423531399;357.5230712890625;-97.68466186523438;-21.011754989624023;2.0858612060546875;-10.003753662109375;-1.6337890625
1445423531433;358.54638671875;-98.94009399414062;-21.55460548400879;1.7132110595703125;-9.729171752929688;-0.3785400390625
1445423531466;1.4246826171875;-101.94295501708984;-21.66152000427246;1.5759124755859375;-9.238845825195312;0.562896728515625
1445423531499;4.614532470703125;-103.913818359375;-20.838485717773438;2.988067626953125;-9.552658081054688;-1.3395843505859375
1445423531532;5.531524658203125;-104.37045288085938;-20.724140167236328;3.81182861328125;-10.337188720703125;-3.0067291259765625
1445423531565;6.159027099609375;-104.78723907470703;-21.30042266845703;5.4985809326171875;-11.690505981445312;-4.36004638671875
1445423531597;6.46759033203125;-104.9678955078125;-21.700807571411133;5.8516082763671875;-12.749618530273438;-4.9484405517578125
1445423531631;8.253997802734375;-106.24005126953125;-21.945344924926758;5.7927703857421875;-13.2203369140625;-5.987945556640625
1445423531664;10.99725341796875;-108.9188461303711;-21.17375946044922;4.5375213623046875;-9.513427734375;-5.4583892822265625
1445423531697;10.991546630859375;-110.31721496582031;-21.089073181152344;3.4784088134765625;-6.6498870849609375;-1.5945587158203125
1445423531729;9.285430908203125;-113.54649353027344;-21.485200881958008;0.8894500732421875;-4.27667236328125;-1.771087646484375
1445423531763;10.47857666015625;-117.19303131103516;-20.88222312927246;1.75244140625;-4.5708770751953125;-3.771636962890625
1445423531797;11.693695068359375;-118.95391845703125;-20.65064811706543;2.8507843017578125;-4.904296875;-4.47772216796875
1445423531829;13.266876220703125;-123.14729309082031;-20.430347442626953;3.6745452880859375;-5.786895751953125;-6.478271484375
1445423531862;13.760284423828125;-125.60125732421875;-20.019350051879883;3.6745452880859375;-8.218948364257812;-7.0274505615234375
1445423531895;15.6871337890625;-130.3516387939453;-17.613933563232422;3.3411102294921875;-8.454315185546875;-7.5962371826171875
1445423531927;16.240509033203125;-134.0802764892578;-16.30263900756836;3.5960845947265625;-8.336624145507812;-8.223861694335938
1445423531961;15.273468017578125;-135.6040496826172;-16.84246063232422;4.243316650390625;-8.454315185546875;-7.184356689453125
1445423531994;13.03680419921875;-138.29861450195312;-17.90675163269043;4.5375213623046875;-7.86590576171875;-7.0078277587890625
1445423532026;10.6737060546875;-139.30068969726562;-18.32304573059082;3.0861358642578125;-6.7871856689453125;-6.0663909912109375
1445423532060;9.24884033203125;-139.34791564941406;-18.554941177368164;1.8701171875;-4.2374420166015625;-4.5757904052734375
1445423532094;6.9068603515625;-139.29501342773438;-18.991594314575195;1.928955078125;-2.648773193359375;-4.144287109375
1445423532125;5.885284423828125;-139.2582244873047;-18.39645004272461;1.7720489501953125;-1.7857818603515625;-3.7324066162109375
1445423532158;6.081756591796875;-139.05125427246094;-17.353412628173828;1.5759124755859375;-2.079986572265625;-3.261688232421875
1445423532191;7.6119384765625;-138.06222534179688;-14.111689567565918;1.3993988037109375;-3.217559814453125;-3.0459442138671875
1445423532225;8.963623046875;-136.36170959472656;-10.688505172729492;2.242767333984375;-5.7476806640625;-4.6150054931640625
1445423532258;9.5242919921875;-134.97161865234375;-9.217973709106445;2.811553955078125;-8.473922729492188;-5.3406982421875
1445423532290;10.387969970703125;-130.93309020996094;-7.406768798828125;2.73309326171875;-12.455429077148438;-5.1445770263671875
1445423532324;10.310211181640625;-128.46795654296875;-6.980151653289795;2.8507843017578125;-12.278900146484375;-5.5172271728515625
1445423532356;10.196502685546875;-122.96537017822266;-6.374684810638428;2.5958099365234375;-12.631942749023438;-5.536834716796875
1445423532390;10.786224365234375;-116.88451385498047;-5.825407028198242;2.38006591796875;-10.454864501953125;-4.47772216796875
1445423532422;11.06396484375;-113.7292709350586;-5.760664939880371;1.164031982421875;-7.63055419921875;-3.0459442138671875
1445423532459;11.516204833984375;-108.0716781616211;-5.687578201293945;0.536407470703125;-6.37530517578125;-2.516387939453125
1445423532489;11.933074951171875;-105.564208984375;-5.639524459838867;0.34027099609375;-5.5123138427734375;-1.2415313720703125
1445423532524;12.09246826171875;-101.0401840209961;-5.981786251068115;0.7717742919921875;-8.101272583007812;0.445220947265625
1445423532556;10.55816650390625;-98.0250015258789;-6.703080177307129;0.8502197265625;-10.337188720703125;-0.1431732177734375
1445423532589;9.872772216796875;-97.08568572998047;-6.862410068511963;3.831451416015625;-13.67144775390625;-1.1042327880859375
1445423532622;11.31488037109375;-93.6170654296875;-7.141587734222412;5.4593505859375;-15.142440795898438;-1.2807464599609375
1445423532654;11.583404541015625;-90.69322204589844;-8.304705619812012;3.3607330322265625;-16.397689819335938;-1.0453948974609375
1445423532686;11.926605224609375;-89.68029022216797;-8.639520645141602;1.9485626220703125;-13.141891479492188;-1.143463134765625
1445423532720;13.027923583984375;-87.89757537841797;-9.117782592773438;1.6543731689453125;-10.964813232421875;-0.9277191162109375
1445423532753;13.33056640625;-86.82247924804688;-10.216194152832031;0.7717742919921875;-7.9639739990234375;-1.261138916015625
1445423532786;13.287200927734375;-86.46278381347656;-10.856904029846191;0.869842529296875;-8.728897094726562;-0.9669342041015625
1445423532819;12.442108154296875;-86.34355926513672;-12.07761287689209;0.654083251953125;-8.983871459960938;-0.8492584228515625
1445423532853;12.69757080078125;-86.73680877685547;-12.719891548156738;-0.3854217529296875;-9.886077880859375;0.052947998046875
1445423532886;13.09344482421875;-86.52312469482422;-12.717635154724121;-4.0334930419921875;-9.768402099609375;-1.7318572998046875
1445423532918;13.110076904296875;-86.42599487304688;-12.080419540405273;-4.62188720703125;-11.729736328125;-3.3597564697265625
1445423532950;9.623565673828125;-86.22124481201172;-12.669388771057129;2.7134857177734375;-13.298797607421875;-0.3981475830078125
1445423532984;8.72723388671875;-86.56090545654297;-12.703880310058594;4.262939453125;-13.651840209960938;-0.6138916015625
1445423533017;8.7423095703125;-87.2164077758789;-12.544844627380371;0.5756378173828125;-12.945755004882812;1.38665771484375
1445423533050;8.7879638671875;-87.38056182861328;-12.30491828918457;0.7913818359375;-11.121719360351562;0.2883148193359375
1445423533083;10.014068603515625;-87.76728820800781;-11.761499404907227;0.869842529296875;-9.45458984375;0.0921783447265625
1445423533116;9.791473388671875;-88.47747039794922;-11.590502738952637;0.4383392333984375;-6.9636993408203125;-0.2608642578125
1445423533149;9.59088134765625;-88.85842895507812;-11.50682544708252;0.7521514892578125;-6.120330810546875;-0.4962158203125
1445423533181;9.277557373046875;-88.81200408935547;-11.564504623413086;1.3405609130859375;-6.924468994140625;-1.3395843505859375
1445423533215;8.013916015625;-88.81600189208984;-12.21017837524414;1.53668212890625;-9.709564208984375;-2.02606201171875
1445423533248;7.177215576171875;-89.1821060180664;-12.541260719299316;1.18365478515625;-11.317855834960938;0.111785888671875
1445423533281;5.480987548828125;-89.91590881347656;-13.020238876342773;1.3405609130859375;-12.71038818359375;-0.3197021484375
1445423533314;2.36346435546875;-90.36991882324219;-13.542364120483398;0.4971771240234375;-12.9849853515625;0.935546875
1445423533347;0.96856689453125;-90.66695404052734;-13.623554229736328;0.7913818359375;-11.847412109375;2.328094482421875
1445423533380;358.150390625;-89.95671844482422;-13.46597957611084;1.0855865478515625;-10.376419067382812;2.5634613037109375
1445423533413;356.2650451660156;-87.83891296386719;-13.168545722961426;2.4781341552734375;-9.533035278320312;0.955169677734375
1445423533446;355.5384216308594;-86.60455322265625;-13.226982116699219;3.1057586669921875;-8.925033569335938;0.19024658203125
1445423533479;353.2054138183594;-84.19154357910156;-13.960322380065918;2.67425537109375;-8.120880126953125;-0.3981475830078125
1445423533512;351.8179931640625;-83.16975402832031;-14.52236270904541;1.791656494140625;-9.395751953125;-0.2608642578125
1445423533544;348.37188720703125;-81.0058364868164;-15.938447952270508;1.0659637451171875;-10.219512939453125;0.1706390380859375
1445423533578;343.336669921875;-78.78533172607422;-17.379119873046875;-1.0522613525390625;-10.6510009765625;0.9747772216796875
1445423533611;341.24322509765625;-77.89032745361328;-17.833763122558594;-0.58154296875;-10.337188720703125;1.9358367919921875
1445423533644;338.10137939453125;-76.23735809326172;-18.253681182861328;0.6933135986328125;-10.631378173828125;1.876983642578125
1445423533676;333.2328796386719;-75.33789825439453;-18.2485408782959;3.1842041015625;-11.435531616210938;0.7786407470703125
1445423533709;330.7073669433594;-75.62523651123047;-18.177650451660156;4.0275726318359375;-11.357070922851562;0.2098541259765625
1445423533742;327.84686279296875;-77.8869400024414;-18.586538314819336;5.4005126953125;-12.631942749023438;-0.064727783203125
1445423533775;325.88641357421875;-81.3404541015625;-19.836559295654297;2.5958099365234375;-10.08221435546875;0.052947998046875
1445423533809;324.7368469238281;-83.36840057373047;-20.492597579956055;1.811279296875;-8.866195678710938;0.111785888671875
1445423533841;321.7370910644531;-88.24100494384766;-21.4196720123291;1.0659637451171875;-7.5913238525390625;0.2098541259765625
1445423533876;319.122314453125;-93.993408203125;-21.861812591552734;1.5170745849609375;-7.552093505859375;0.19024658203125
1445423533907;317.6218566894531;-96.55521392822266;-21.806421279907227;1.0071258544921875;-8.4935302734375;-0.005889892578125
1445423533941;312.8164367675781;-99.637939453125;-21.262557983398438;2.8311614990234375;-11.768951416015625;0.994384765625
1445423533975;310.67779541015625;-100.90811157226562;-20.5653133392334;5.1063079833984375;-13.141891479492188;-0.064727783203125
1445423534007;308.4786376953125;-103.12053680419922;-18.42044448852539;5.322052001953125;-12.828079223632812;-0.5550537109375
1445423534039;307.49267578125;-103.55267333984375;-17.238826751708984;4.5963592529296875;-11.827789306640625;-0.868865966796875
1445423534073;304.9905090332031;-104.05387115478516;-15.081250190734863;4.1060333251953125;-9.729171752929688;-0.300079345703125
1445423534106;301.21728515625;-104.6424789428711;-13.562492370605469;4.1060333251953125;-8.297409057617188;-0.3589324951171875
1445423534141;297.24365234375;-105.51282501220703;-12.871685028076172;3.615692138671875;-6.120330810546875;-0.7119598388671875
1445423534172;295.3986511230469;-106.14969635009766;-12.854958534240723;3.556854248046875;-5.0808258056640625;-0.94732666015625
1445423534206;292.92388916015625;-108.15535736083984;-13.569418907165527;3.439178466796875;-4.7473907470703125;-1.7906951904296875
1445423534238;292.38873291015625;-109.45457458496094;-14.079957962036133;6.08697509765625;-9.06231689453125;-4.2619781494140625
1445423534271;291.57379150390625;-112.1941909790039;-15.305537223815918;6.832275390625;-11.474761962890625;-4.458099365234375
1445423534303;290.0986328125;-114.19847106933594;-17.143409729003906;4.8513336181640625;-12.631942749023438;-4.4973297119140625
1445423534338;289.2352294921875;-114.71381378173828;-17.86236000061035;3.2234344482421875;-11.39630126953125;-4.53656005859375
1445423534369;287.50830078125;-115.70345306396484;-19.00600242614746;3.1449737548828125;-10.435256958007812;-4.340423583984375
1445423534403;284.5892639160156;-116.27286529541016;-20.637866973876953;3.6745452880859375;-8.2581787109375;-3.477447509765625
1445423534436;282.7466735839844;-116.24398040771484;-21.722623825073242;3.5960845947265625;-7.1009979248046875;-2.5359954833984375
1445423534469;280.06817626953125;-116.05491638183594;-23.806331634521484;3.4195709228515625;-4.5708770751953125;-1.319976806640625
1445423534502;279.70367431640625;-116.08583068847656;-24.594375610351562;2.3996734619140625;-2.9821929931640625;-1.06500244140625
1445423534535;281.02532958984375;-116.42936706542969;-25.52178382873535;1.9485626220703125;-2.766448974609375;-1.143463134765625
1445423534568;281.3756103515625;-115.76423645019531;-26.20832633972168;2.4781341552734375;-4.9435272216796875;-1.4768829345703125
1445423534602;279.16400146484375;-112.67742919921875;-26.4599609375;5.3024444580078125;-9.984146118164062;-1.4768829345703125
1445423534633;277.53753662109375;-110.47691345214844;-26.381778717041016;6.32232666015625;-11.023651123046875;-1.7318572998046875
1445423534666;274.9413757324219;-106.63634490966797;-25.827796936035156;8.0875244140625;-13.2203369140625;-2.4379425048828125
1445423534700;274.70025634765625;-105.236083984375;-25.546104431152344;9.166259765625;-12.867294311523438;-2.8302001953125
1445423534867;271.583740234375;-96.80952453613281;-22.764301300048828;1.30133056640625;-6.7087249755859375;-2.20257568359375
1445423534868;271.583740234375;-96.80952453613281;-22.764301300048828;1.30133056640625;-6.7087249755859375;-2.20257568359375
1445423534901;270.1463928222656;-96.7501449584961;-22.68035316467285;3.9098968505859375;-14.75018310546875;-7.0078277587890625
1445423534933;267.87939453125;-97.672119140625;-22.07635498046875;3.6745452880859375;-15.5543212890625;-5.360321044921875
1445423534966;273.22637939453125;-100.48666381835938;-21.443620681762695;1.556304931640625;-9.317291259765625;3.9952239990234375
1445423534999;277.5223693847656;-102.33363342285156;-20.54283905029297;2.3408355712890625;-10.8863525390625;3.7598724365234375
1445423535032;279.37457275390625;-102.25431060791016;-19.06391143798828;-0.640380859375;-14.044097900390625;-1.084625244140625
1445423535065;279.4244384765625;-101.32035064697266;-17.29098892211914;1.164031982421875;-11.533599853515625;-0.8492584228515625
1445423535099;278.97613525390625;-100.83822631835938;-16.37924575805664;3.1842041015625;-9.631103515625;-1.6141815185546875
1445423535131;278.0265808105469;-99.32291412353516;-15.291768074035645;2.1446990966796875;-9.709564208984375;-2.7909698486328125
1445423535165;277.5103454589844;-98.3458251953125;-14.930782318115234;2.43890380859375;-8.748504638671875;-3.7324066162109375
1445423535196;275.005859375;-96.65467834472656;-14.068727493286133;3.380340576171875;-7.68939208984375;-4.2619781494140625
1445423535230;271.002685546875;-95.91880798339844;-13.96850872039795;3.1057586669921875;-6.55181884765625;-5.477996826171875
1445423535263;267.97442626953125;-96.024169921875;-14.028399467468262;1.3797760009765625;-7.3951873779296875;-4.6346282958984375
1445423535296;266.06744384765625;-97.8515396118164;-13.792798042297363;0.6737060546875;-7.8462982177734375;-2.2418060302734375
1445423535329;270.0764465332031;-99.53700256347656;-13.091268539428711;2.8311614990234375;-11.45513916015625;0.58251953125
1445423535362;271.55145263671875;-99.99261474609375;-13.192218780517578;1.8308868408203125;-13.49493408203125;2.7399749755859375
1445423535396;275.3890380859375;-99.63583374023438;-13.259568214416504;2.066253662109375;-13.298797607421875;2.5438385009765625
1445423535428;279.4906311035156;-98.49272918701172;-13.621780395507812;1.2817230224609375;-12.847686767578125;2.838043212890625
1445423535462;281.2767639160156;-97.7367935180664;-13.858916282653809;0.0853118896484375;-12.494644165039062;2.46539306640625
1445423535494;284.40435791015625;-95.31559753417969;-13.976083755493164;0.4579620361328125;-11.023651123046875;0.955169677734375
1445423535527;285.7372131347656;-94.13475036621094;-14.009099960327148;3.0076904296875;-8.650436401367188;-1.771087646484375
1445423535560;287.94952392578125;-92.65785217285156;-14.51053524017334;3.3999481201171875;-7.5128631591796875;-2.575225830078125
1445423535592;291.73724365234375;-92.76207733154297;-15.535088539123535;2.32122802734375;-6.2576141357421875;-2.281036376953125
1445423535626;294.823974609375;-93.38652801513672;-15.923168182373047;1.615142822265625;-8.82696533203125;-2.32025146484375
1445423535659;299.9112854003906;-94.61182403564453;-16.699359893798828;2.2231597900390625;-11.78857421875;-2.6536865234375
1445423535692;305.02093505859375;-97.00617218017578;-17.324844360351562;1.7132110595703125;-13.61260986328125;-0.5354461669921875
1445423535725;310.01080322265625;-99.03901672363281;-17.50149917602539;3.75299072265625;-11.592437744140625;2.64190673828125
1445423535758;316.4046936035156;-102.12635040283203;-19.073434829711914;6.4988555908203125;-11.553207397460938;0.5236663818359375
1445423535791;321.72198486328125;-104.64739990234375;-20.393564224243164;4.2041015625;-9.96453857421875;-0.5550537109375
1445423535826;322.7962951660156;-105.28241729736328;-20.93997573852539;0.869842529296875;-8.670059204101562;-1.7318572998046875
1445423535860;320.63641357421875;-104.69103240966797;-22.37554359436035;1.53668212890625;-8.238555908203125;-2.5556182861328125
1445423535890;320.2857666015625;-103.92449951171875;-23.0545711517334;3.3411102294921875;-7.493255615234375;-3.85009765625
1445423535922;319.58367919921875;-103.3935546875;-23.400148391723633;2.55657958984375;-6.9636993408203125;-3.9481658935546875
1445423535958;317.4604797363281;-102.07357788085938;-23.898632049560547;1.438629150390625;-5.7476806640625;-2.6536865234375
1445423535989;316.7496032714844;-100.83575439453125;-23.52523422241211;2.49774169921875;-6.49298095703125;-2.1829681396484375
1445423536023;316.48016357421875;-100.17945861816406;-23.174348831176758;3.4195709228515625;-8.4346923828125;-2.2221832275390625
1445423536057;315.2007751464844;-98.31043243408203;-22.0555362701416;5.086700439453125;-12.435806274414062;-2.32025146484375
1445423536088;315.1502685546875;-97.67186737060547;-21.274938583374023;5.06707763671875;-13.416473388671875;-2.8498077392578125
1445423536121;315.8380126953125;-97.02742767333984;-20.04220199584961;4.94940185546875;-13.024200439453125;-1.9868316650390625
1445423536154;315.71917724609375;-95.92719268798828;-19.469858169555664;4.2041015625;-10.984420776367188;-0.9865570068359375
1445423536187;315.10235595703125;-95.46466827392578;-19.264278411865234;2.55657958984375;-8.611221313476562;-1.3984375
1445423536220;312.51409912109375;-94.82118225097656;-18.706741333007812;1.6347503662109375;-7.316741943359375;-1.6730194091796875
1445423536254;308.8912048339844;-94.29206085205078;-18.044662475585938;1.3993988037109375;-5.551544189453125;-2.1633453369140625
1445423536287;307.31951904296875;-94.37548828125;-17.860183715820312;1.8308868408203125;-5.47308349609375;-2.339874267578125
1445423536320;304.9736633300781;-95.1467056274414;-17.57964515686035;3.380340576171875;-7.23828125;-2.006439208984375
1445423536352;304.6521911621094;-95.70355987548828;-17.49306869506836;6.9303436279296875;-13.181106567382812;-2.006439208984375
1445423536385;304.7789306640625;-97.07705688476562;-17.519325256347656;6.7538299560546875;-13.61260986328125;-2.6536865234375
1445423536418;302.1306457519531;-98.68912506103516;-18.72231101989746;4.576751708984375;-12.553482055664062;-2.14373779296875
1445423536451;301.0224609375;-99.47303771972656;-19.36151123046875;2.49774169921875;-12.239669799804688;-0.5942840576171875
1445423536484;299.5638427734375;-101.24243927001953;-20.097789764404297;2.2623748779296875;-10.866744995117188;-0.5550537109375
1445423536517;296.1206359863281;-102.17589569091797;-20.62812614440918;1.5170745849609375;-8.3758544921875;-0.574676513671875
1445423536550;293.14739990234375;-102.26483917236328;-20.92706298828125;1.2817230224609375;-7.2775115966796875;-0.7119598388671875
1445423536582;286.49066162109375;-102.47480773925781;-21.22956657409668;1.2817230224609375;-5.041595458984375;-1.75146484375
1445423536616;279.50750732421875;-102.63412475585938;-20.729768753051758;1.5759124755859375;-5.0219879150390625;-3.1244049072265625
1445423536649;276.3387756347656;-102.68708038330078;-20.16683006286621;2.5173492431640625;-5.6299896240234375;-2.9478759765625
1445423536681;272.1696472167969;-102.05421447753906;-18.715795516967773;4.83172607421875;-10.31756591796875;-0.633514404296875
1445423536715;268.87286376953125;-100.10919189453125;-17.819923400878906;5.06707763671875;-12.514266967773438;0.994384765625
1445423536748;267.3960876464844;-99.10369110107422;-17.599702835083008;4.6159820556640625;-11.768951416015625;1.818145751953125
1445423536781;266.34100341796875;-96.85745239257812;-16.709453582763672;5.00823974609375;-10.690231323242188;2.3084869384765625
1445423536815;263.64239501953125;-95.61990356445312;-16.494361877441406;5.3612823486328125;-9.729171752929688;-1.5945587158203125
1445423536848;253.6693115234375;-94.02206420898438;-16.965648651123047;4.576751708984375;-9.160385131835938;-1.829925537109375
1445423536880;247.81427001953125;-93.6529769897461;-16.59829330444336;0.8502197265625;-7.826690673828125;-1.947601318359375
1445423536913;247.11746215820312;-93.3280258178711;-16.10957145690918;-0.1108245849609375;-9.68994140625;-0.123565673828125
1445423536946;246.43389892578125;-93.3456039428711;-15.038190841674805;2.0074005126953125;-11.651275634765625;-0.2020263671875
1445423536979;242.95660400390625;-93.16064453125;-14.362900733947754;3.1842041015625;-14.318679809570312;-1.888763427734375
1445423537012;241.16067504882812;-92.90725708007812;-14.245748519897461;2.419281005859375;-13.90679931640625;-1.5945587158203125
1445423537045;241.51223754882812;-93.28315734863281;-13.90626049041748;0.8502197265625;-10.964813232421875;0.7394256591796875
1445423537078;242.42901611328125;-93.0382080078125;-12.941763877868652;0.0656890869140625;-10.552932739257812;-0.1431732177734375
1445423537111;241.76544189453125;-92.3675537109375;-12.590322494506836;-0.150054931640625;-10.19989013671875;-0.6138916015625
1445423537144;238.89996337890625;-90.80875396728516;-11.800089836120605;1.3405609130859375;-8.571990966796875;-1.1042327880859375
1445423537177;236.61529541015625;-89.96772766113281;-11.480733871459961;3.2234344482421875;-7.8462982177734375;-1.9083709716796875
1445423537210;231.12994384765625;-88.23309326171875;-11.48858642578125;3.0076904296875;-7.885528564453125;-2.0456695556640625
1445423537243;227.40850830078125;-87.16645812988281;-11.884394645690918;1.9093475341796875;-8.591598510742188;-2.0456695556640625
1445423537279;226.592041015625;-86.90763854980469;-12.07612419128418;1.18365478515625;-10.31756591796875;-0.123565673828125
1445423537309;227.60101318359375;-87.29566192626953;-12.495123863220215;0.6344757080078125;-10.7686767578125;1.190521240234375
1445423537342;231.096435546875;-88.38951873779297;-12.495759963989258;0.7913818359375;-11.435531616210938;3.857940673828125
1445423537382;234.45449829101562;-88.50523376464844;-12.096647262573242;3.0861358642578125;-11.827789306640625;3.5441131591796875
1445423537409;235.057373046875;-88.1710433959961;-12.008134841918945;3.046905517578125;-11.827789306640625;2.8772735595703125
1445423537441;236.36868286132812;-87.24581146240234;-12.063706398010254;2.360443115234375;-11.082489013671875;2.0338897705078125
1445423537474;237.67822265625;-86.90618133544922;-12.093952178955078;2.61541748046875;-10.474472045898438;1.6024017333984375
1445423537506;240.22036743164062;-86.24779510498047;-12.259542465209961;2.0858612060546875;-8.905410766601562;0.7394256591796875
1445423537539;241.52273559570312;-85.99302673339844;-12.30256462097168;1.0267486572265625;-7.68939208984375;0.1510162353515625
1445423537573;244.593017578125;-85.75943756103516;-12.280363082885742;1.18365478515625;-7.434417724609375;0.0333404541015625
1445423537606;246.92617797851562;-86.03317260742188;-12.640581130981445;1.811279296875;-7.885528564453125;0.2098541259765625
1445423537640;247.8594970703125;-86.38255310058594;-13.060158729553223;2.8899993896484375;-11.631668090820312;0.9747772216796875
1445423537672;250.4959716796875;-87.27854919433594;-14.28491497039795;2.8507843017578125;-13.357635498046875;0.896331787109375
1445423537704;252.98309326171875;-88.06224822998047;-15.502427101135254;0.7521514892578125;-12.200454711914062;0.9747772216796875
1445423537738;255.5264892578125;-88.64762878417969;-15.872169494628906;0.3206634521484375;-11.749343872070312;2.9164886474609375
1445423537774;262.95758056640625;-90.02782440185547;-15.831088066101074;1.8308868408203125;-11.945480346679688;3.2499237060546875
1445423537804;265.6286315917969;-90.3118667602539;-15.829204559326172;2.9096221923828125;-10.31756591796875;1.6220245361328125
1445423537839;269.0594787597656;-90.58189392089844;-16.166175842285156;2.929229736328125;-9.297683715820312;1.014007568359375
1445423537870;273.52276611328125;-91.66404724121094;-16.662696838378906;3.2234344482421875;-7.179443359375;-0.0843353271484375
1445423537902;276.0981140136719;-92.62832641601562;-16.902420043945312;3.3607330322265625;-5.610382080078125;-1.712249755859375
1445423537936;281.9263000488281;-95.12328338623047;-17.10106086730957;3.1842041015625;-5.7084503173828125;-1.8495330810546875
1445423537969;288.6807861328125;-97.48446655273438;-17.37312889099121;3.1057586669921875;-9.042709350585938;-0.633514404296875
1445423538003;292.241455078125;-98.68889617919922;-17.634971618652344;3.3607330322265625;-11.925857543945312;-1.0257720947265625
1445423538036;298.48529052734375;-101.28795623779297;-17.92454719543457;4.3021697998046875;-12.808456420898438;-2.26141357421875
1445423538068;304.7966613769531;-103.11493682861328;-18.237716674804688;6.714599609375;-13.004592895507812;-3.653961181640625
1445423538104;308.121337890625;-104.64569854736328;-18.850370407104492;4.5571441650390625;-11.21978759765625;-3.45782470703125
1445423538134;311.6426696777344;-108.92327117919922;-21.458703994750977;2.4585113525390625;-10.415634155273438;-2.2221832275390625
1445423538167;313.7329406738281;-112.18305206298828;-23.696125030517578;1.5955352783203125;-7.7089996337890625;-1.00616455078125
1445423538200;315.17596435546875;-113.25572967529297;-24.293943405151367;1.24249267578125;-6.4537506103515625;-1.6141815185546875
1445423538233;317.791015625;-115.56031799316406;-25.46213722229004;1.12481689453125;-4.531646728515625;-2.02606201171875
1445423538267;319.406982421875;-116.65279388427734;-25.871976852416992;2.164306640625;-5.47308349609375;-2.20257568359375
1445423538299;323.3992919921875;-118.20004272460938;-26.191213607788086;2.8507843017578125;-6.630279541015625;-2.516387939453125
1445423538331;327.84881591796875;-118.71356964111328;-26.166879653930664;4.9886322021484375;-9.788009643554688;-2.967498779296875
1445423538365;330.2112731933594;-118.2579574584961;-25.94732666015625;5.2828216552734375;-11.612045288085938;-2.908660888671875
1445423538399;332.8478088378906;-116.0956802368164;-25.969491958618164;4.7924957275390625;-10.454864501953125;-3.1832427978515625
1445423538431;335.90887451171875;-113.30323791503906;-25.815553665161133;4.5963592529296875;-9.023101806640625;-2.8498077392578125
1445423538464;337.5913391113281;-111.4448013305664;-25.70093536376953;3.890289306640625;-8.2581787109375;-2.6536865234375
1445423538496;339.36309814453125;-107.19223022460938;-25.962890625;3.615692138671875;-7.610931396484375;-2.8890380859375
1445423538530;339.3958740234375;-105.20658111572266;-26.458295822143555;3.0665283203125;-7.2775115966796875;-3.1832427978515625
1445423538564;339.22943115234375;-102.45923614501953;-27.522865295410156;2.61541748046875;-6.8852386474609375;-3.51666259765625
1445423538596;341.3993225097656;-102.11930847167969;-27.91396713256836;2.2035369873046875;-5.8653564453125;-3.8108673095703125
1445423538628;343.15093994140625;-102.67396545410156;-27.758821487426758;2.0858612060546875;-9.101547241210938;-3.0459442138671875
1445423538662;344.8452453613281;-103.54017639160156;-26.50961685180664;3.3018798828125;-10.670608520507812;-2.634063720703125
1445423538695;348.0940246582031;-102.9590835571289;-25.109827041625977;7.9698486328125;-13.0438232421875;-3.144012451171875
1445423538728;350.6144714355469;-102.23553466796875;-24.690900802612305;7.6756439208984375;-12.396575927734375;-4.105072021484375
1445423538761;354.33221435546875;-101.10668182373047;-24.215238571166992;6.26348876953125;-11.200164794921875;-3.0655670166015625
1445423538794;356.5621337890625;-99.72154998779297;-23.200260162353516;3.5960845947265625;-7.35595703125;-0.123565673828125
1445423538829;358.7545166015625;-98.73104858398438;-22.243989944458008;2.693878173828125;-5.7476806640625;0.935546875
1445423538860;5.140594482421875;-97.09027099609375;-20.352460861206055;2.5958099365234375;-5.728057861328125;0.9747772216796875
1445423538893;5.482421875;-94.88683319091797;-19.68854331970215;2.49774169921875;-7.4736480712890625;1.0924530029296875
1445423538927;3.25262451171875;-93.174560546875;-19.273283004760742;2.55657958984375;-9.866470336914062;0.621734619140625
1445423538959;2.6671142578125;-90.3290786743164;-17.554597854614258;3.615692138671875;-14.377532958984375;0.7001953125
1445423538992;4.753509521484375;-89.15992736816406;-16.49186134338379;1.850494384765625;-11.043258666992188;0.1510162353515625
1445423539029;5.377593994140625;-89.62068176269531;-15.567429542541504;0.2029876708984375;-11.27862548828125;2.0731201171875
1445423539058;7.22821044921875;-89.04608154296875;-12.641365051269531;0.1441497802734375;-11.39630126953125;2.70074462890625
1445423539092;9.698089599609375;-87.28740692138672;-10.086175918579102;0.8502197265625;-10.278350830078125;0.7394256591796875
1445423539124;13.165496826171875;-86.31658172607422;-9.241683006286621;2.6546478271484375;-9.258453369140625;-0.4177703857421875
1445423539159;21.81011962890625;-85.13034057617188;-8.528645515441895;3.7137603759765625;-8.160110473632812;-0.4177703857421875
1445423539191;25.249114990234375;-84.9629135131836;-8.574992179870605;2.3408355712890625;-7.6501617431640625;1.3670501708984375
1445423539223;30.061065673828125;-85.31945037841797;-9.015708923339844;1.791656494140625;-8.748504638671875;1.56317138671875
1445423539257;30.721832275390625;-86.04774475097656;-9.550662994384766;0.3206634521484375;-11.729736328125;2.2496490478515625
1445423539288;30.5133056640625;-86.22416687011719;-9.59598445892334;-0.405029296875;-12.494644165039062;1.9358367919921875
1445423539323;29.599945068359375;-86.47216033935547;-9.171541213989258;-1.8171844482421875;-11.494369506835938;1.8966064453125
1445423539358;31.74676513671875;-86.73841094970703;-8.45245361328125;0.242218017578125;-11.45513916015625;2.4261627197265625
1445423539388;34.565765380859375;-86.68527221679688;-8.00593090057373;1.53668212890625;-11.062881469726562;1.9750518798828125
1445423539424;41.98199462890625;-86.00048828125;-7.524964809417725;2.67425537109375;-9.748779296875;1.1120758056640625
1445423539454;45.350616455078125;-85.74474334716797;-7.675737380981445;0.987518310546875;-8.925033569335938;0.7786407470703125
1445423539487;49.057861328125;-85.65816497802734;-8.150345802307129;0.10491943359375;-8.571990966796875;0.7394256591796875
1445423539519;50.7437744140625;-85.69263458251953;-8.27629566192627;-0.326568603515625;-7.0029296875;1.4258880615234375
1445423539553;51.926727294921875;-85.78961181640625;-8.347746849060059;2.046630859375;-9.748779296875;1.3670501708984375
1445423539586;55.326507568359375;-85.91090393066406;-9.149685859680176;2.61541748046875;-12.730010986328125;0.935546875
1445423539619;56.018096923828125;-85.43161010742188;-10.811902046203613;-1.15032958984375;-12.141616821289062;0.896331787109375
1445423539653;55.32025146484375;-85.37162017822266;-11.425654411315918;-2.0721588134765625;-11.376693725585938;1.700469970703125
1445423539685;55.1068115234375;-85.15836334228516;-12.15958023071289;-0.1892852783203125;-10.6510009765625;2.1711883544921875
1445423539718;58.54705810546875;-84.71844482421875;-12.476707458496094;2.2819976806640625;-11.435531616210938;1.190521240234375
1445423539752;60.9552001953125;-84.63258361816406;-12.654928207397461;2.8899993896484375;-11.494369506835938;0.7394256591796875
1445423539785;68.1954345703125;-85.7183837890625;-13.065996170043945;3.92950439453125;-10.219512939453125;-0.3785400390625
1445423539817;73.57308959960938;-86.80630493164062;-13.303240776062012;4.1648712158203125;-8.2581787109375;-1.261138916015625
1445423539850;83.90084838867188;-90.06365966796875;-13.726909637451172;4.0275726318359375;-7.1402130126953125;-1.202301025390625
1445423539883;94.31671142578125;-94.41950988769531;-13.929479598999023;4.3610076904296875;-6.944091796875;-1.692626953125
1445423539917;96.2025146484375;-96.46800994873047;-14.441287994384766;1.98779296875;-9.042709350585938;-0.7119598388671875
1445423539949;97.29608154296875;-100.59723663330078;-15.061625480651855;1.0267486572265625;-9.552658081054688;-0.6531219482421875
1445423539982;98.5797119140625;-103.20964813232422;-14.389669418334961;2.9096221923828125;-11.141326904296875;-1.692626953125
1445423540015;98.59762573242188;-103.68397521972656;-14.001043319702148;3.1057586669921875;-12.494644165039062;-2.516387939453125
1445423540048;99.29104614257812;-104.33826446533203;-12.788485527038574;3.63531494140625;-12.612335205078125;-2.4379425048828125
1445423540081;100.59060668945312;-105.1477279663086;-11.453267097473145;5.0474700927734375;-11.180557250976562;-2.065277099609375
1445423540115;102.185546875;-105.10360717773438;-11.102753639221191;5.1651458740234375;-8.415084838867188;-2.5948486328125
1445423540147;106.07456970214844;-105.16020965576172;-11.397031784057617;3.556854248046875;-6.8460235595703125;-2.9871063232421875
1445423540180;107.79078674316406;-105.59661865234375;-12.131197929382324;2.870391845703125;-6.473358154296875;-2.575225830078125
1445423540213;110.54464721679688;-107.35933685302734;-14.021169662475586;2.5958099365234375;-6.61065673828125;-2.4967803955078125
1445423540246;113.36270141601562;-109.22606658935547;-15.691864967346191;2.5369720458984375;-7.042144775390625;-2.8302001953125
1445423540279;114.42945861816406;-110.17158508300781;-16.58065414428711;2.9096221923828125;-8.76812744140625;-2.8694305419921875
1445423540312;115.02984619140625;-111.73487091064453;-18.240758895874023;4.2237091064453125;-10.376419067382812;-2.9871063232421875
1445423540345;116.49089050292969;-112.44083404541016;-18.465177536010742;4.9101715087890625;-10.690231323242188;-3.712799072265625
1445423540379;117.812255859375;-112.19975280761719;-18.408811569213867;4.4198455810546875;-9.140777587890625;-3.085174560546875
1445423540411;120.87014770507812;-110.87129974365234;-18.357576370239258;3.890289306640625;-8.297409057617188;-2.692901611328125
1445423540444;124.51214599609375;-109.05292510986328;-18.22108268737793;2.870391845703125;-6.72833251953125;-2.4379425048828125
1445423540478;126.33172607421875;-108.09485626220703;-18.046018600463867;2.7134857177734375;-6.473358154296875;-2.6732940673828125
1445423540510;130.26731872558594;-106.25203704833984;-17.750343322753906;2.49774169921875;-6.7871856689453125;-3.3205413818359375
1445423540543;132.24856567382812;-105.42434692382812;-17.746274948120117;2.164306640625;-7.316741943359375;-3.8108673095703125
1445423540577;136.2503204345703;-104.33499908447266;-17.77558135986328;2.73309326171875;-8.76812744140625;-4.399261474609375
1445423540609;138.4611053466797;-103.97776794433594;-17.939817428588867;5.3024444580078125;-13.710678100585938;-3.9873809814453125
1445423540643;139.22695922851562;-103.96516418457031;-17.942794799804688;2.1446990966796875;-13.063430786132812;-3.3009185791015625
1445423540675;139.56715393066406;-103.3086166381836;-16.761146545410156;2.38006591796875;-10.9451904296875;-1.6533966064453125
1445423540708;139.45318603515625;-101.30015563964844;-15.30579662322998;3.57647705078125;-8.591598510742188;0.4844512939453125
1445423540741;140.01661682128906;-99.78820037841797;-14.715028762817383;2.8507843017578125;-8.94464111328125;0.052947998046875
1445423540775;142.14471435546875;-95.8463363647461;-13.703571319580078;2.125091552734375;-9.258453369140625;-0.2216339111328125
1445423540807;144.90863037109375;-91.2182846069336;-12.020888328552246;0.8502197265625;-8.395462036132812;0.386383056640625
1445423540840;146.28822326660156;-89.25516510009766;-10.89031982421875;0.6933135986328125;-7.57171630859375;0.680572509765625
1445423540875;148.405517578125;-85.70157623291016;-9.115652084350586;1.53668212890625;-8.120880126953125;1.56317138671875
1445423540907;149.22021484375;-82.29629516601562;-8.277626037597656;3.615692138671875;-11.121719360351562;2.6026763916015625
1445423540940;149.4699249267578;-81.01404571533203;-8.350449562072754;5.2239837646484375;-14.35791015625;1.6220245361328125
1445423540974;153.08555603027344;-79.69245910644531;-8.797489166259766;1.222869873046875;-11.651275634765625;1.759307861328125
1445423541005;156.66258239746094;-79.57131958007812;-8.749747276306152;-2.032928466796875;-10.670608520507812;4.662078857421875
1445423541038;162.00599670410156;-79.32212829589844;-7.641543388366699;-1.464141845703125;-11.592437744140625;4.152130126953125
1445423541070;166.31300354003906;-79.002685546875;-6.697630882263184;1.438629150390625;-10.847137451171875;3.073394775390625
1445423541103;167.99813842773438;-78.69256591796875;-6.7394890785217285;2.419281005859375;-9.140777587890625;2.0142822265625
1445423541137;171.8495635986328;-77.99214172363281;-7.6752824783325195;1.222869873046875;-8.866195678710938;2.092742919921875
1445423541170;177.29815673828125;-77.18524932861328;-8.252839088439941;-0.4638671875;-7.944366455078125;1.6808624267578125
1445423541206;179.3072509765625;-76.5878677368164;-8.41016960144043;0.3991241455078125;-7.8462982177734375;1.50433349609375
1445423541236;182.05181884765625;-75.257080078125;-9.043890953063965;1.046356201171875;-9.042709350585938;1.8966064453125
1445423541269;182.72454833984375;-74.58345794677734;-9.600448608398438;1.75244140625;-10.435256958007812;0.2294769287109375
1445423541302;184.483642578125;-73.1212158203125;-11.241169929504395;0.6933135986328125;-11.27862548828125;-0.633514404296875
1445423541336;188.715576171875;-72.60406494140625;-12.904581069946289;-1.797576904296875;-12.141616821289062;-0.3589324951171875
1445423541368;190.55670166015625;-72.76472473144531;-13.393329620361328;-1.3856964111328125;-13.514541625976562;0.2686920166015625
1445423541401;192.4561767578125;-72.8620376586914;-14.08970832824707;-1.0718841552734375;-14.887466430664062;1.072845458984375
1445423541434;190.45513916015625;-72.950927734375;-14.14745807647705;1.850494384765625;-15.338577270507812;-0.123565673828125
1445423541467;188.124755859375;-73.58493041992188;-13.601542472839355;3.2430419921875;-11.768951416015625;-1.6730194091796875
1445423541500;183.626220703125;-77.00148010253906;-13.014402389526367;2.811553955078125;-10.003753662109375;-1.6337890625
1445423541532;182.94696044921875;-83.37018585205078;-13.607417106628418;0.418731689453125;-9.081939697265625;0.621734619140625
1445423541567;183.2900390625;-87.30719757080078;-13.797309875488281;-0.91497802734375;-10.180282592773438;2.720367431640625
1445423541599;181.40008544921875;-93.68212890625;-14.393441200256348;-1.1307220458984375;-9.866470336914062;3.0537872314453125
1445423541633;179.41781616210938;-96.41950225830078;-14.661285400390625;0.242218017578125;-9.042709350585938;2.40655517578125
1445423541665;175.0941162109375;-102.00308990478516;-14.740809440612793;1.1444244384765625;-9.90570068359375;1.0532379150390625
1445423541698;171.16844177246094;-107.9255142211914;-14.779801368713379;2.164306640625;-14.828628540039062;-1.5357208251953125
1445423541731;170.35986328125;-111.17284393310547;-14.053030014038086;0.987518310546875;-16.534988403320312;-2.457550048828125
1445423541764;166.2290496826172;-115.58484649658203;-11.707664489746094;-1.4837646484375;-16.397689819335938;-2.339874267578125
1445423541797;157.39019775390625;-118.04750061035156;-9.806838035583496;-2.739013671875;-13.475311279296875;-2.967498779296875
1445423541830;152.37750244140625;-119.2673110961914;-9.556065559387207;-2.621337890625;-10.905975341796875;-2.8105926513671875
1445423541863;140.9345703125;-121.88590240478516;-10.762832641601562;-1.09149169921875;-10.160659790039062;-1.7318572998046875
1445423541896;126.86680603027344;-124.36747741699219;-13.562926292419434;0.3206634521484375;-7.257904052734375;2.70074462890625
1445423541930;120.06724548339844;-125.406005859375;-14.837148666381836;2.2231597900390625;-4.6689453125;4.4071044921875
1445423541962;107.63720703125;-126.35137939453125;-17.031808853149414;2.6546478271484375;-4.0020904541015625;3.83831787109375
1445423541995;96.91351318359375;-126.44558715820312;-19.76216697692871;-1.287628173828125;-5.100433349609375;1.1512908935546875
1445423542028;90.09457397460938;-126.06669616699219;-21.336790084838867;-2.993988037109375;-8.003204345703125;0.504058837890625
1445423542061;74.15057373046875;-124.41511535644531;-22.685365676879883;2.2035369873046875;-11.27862548828125;-1.2415313720703125
1445423542094;67.19781494140625;-123.34834289550781;-22.73636817932129;5.3416748046875;-11.78857421875;-2.4379425048828125
1445423542127;56.31903076171875;-122.042724609375;-21.755773544311523;6.7734375;-12.161224365234375;-3.0067291259765625
1445423542160;50.522308349609375;-121.55773162841797;-21.28820037841797;9.127029418945312;-12.455429077148438;-4.9876708984375
1445423542193;47.14398193359375;-121.01509857177734;-21.684619903564453;6.3027191162109375;-11.51397705078125;-2.339874267578125
1445423542226;39.7530517578125;-118.669921875;-23.386167526245117;7.0676422119140625;-8.277786254882812;-0.9865570068359375
1445423542259;35.159332275390625;-115.76953125;-24.769630432128906;5.380889892578125;-6.3164520263671875;0.052947998046875
1445423542291;33.484344482421875;-113.94801330566406;-25.132526397705078;4.2237091064453125;-4.2570648193359375;2.4261627197265625
1445423542326;31.272491455078125;-109.53278350830078;-24.98383140563965;3.1449737548828125;-4.531646728515625;1.6024017333984375
1445423542362;29.11810302734375;-106.44463348388672;-24.78815269470215;0.16375732421875;-5.8065185546875;1.700469970703125
1445423542392;21.5472412109375;-98.33763885498047;-24.474950790405273;3.7137603759765625;-8.689666748046875;0.2294769287109375
1445423542424;21.065521240234375;-91.27241516113281;-22.471406936645508;13.069305419921875;-22.026718139648438;-19.717254638671875
1445423542456;20.335845947265625;-87.13919067382812;-22.85589599609375;7.51873779296875;-13.1614990234375;1.818145751953125
1445423542490;14.55224609375;-87.7249526977539;-25.01266860961914;2.066253662109375;-14.201004028320312;2.0731201171875
1445423542523;11.07708740234375;-89.71402740478516;-22.923185348510742;-0.777679443359375;-14.965927124023438;2.6222991943359375
1445423542556;4.468994140625;-88.68540954589844;-22.041061401367188;0.1833648681640625;-13.122268676757812;1.6612396240234375
1445423542591;356.3744812011719;-86.76445007324219;-19.65838050842285;2.125091552734375;-11.690505981445312;1.4062652587890625
1445423542623;353.8856201171875;-86.2059326171875;-18.353559494018555;1.9093475341796875;-9.827239990234375;1.6220245361328125
1445423542656;352.4189453125;-85.57376861572266;-17.982812881469727;3.046905517578125;-7.944366455078125;1.4847259521484375
1445423542695;350.59295654296875;-83.98113250732422;-17.747835159301758;3.51763916015625;-7.0813751220703125;1.1120758056640625
1445423542721;348.2684631347656;-82.51354217529297;-18.12906837463379;2.2623748779296875;-7.297119140625;1.0924530029296875
1445423542757;346.788330078125;-81.78665161132812;-18.21675682067871;0.4383392333984375;-6.944091796875;1.9750518798828125
1445423542787;345.42120361328125;-80.37683868408203;-18.347597122192383;0.9482879638671875;-7.297119140625;2.4850006103515625
1445423542820;342.6075134277344;-78.7219009399414;-18.247995376586914;0.0853118896484375;-9.356521606445312;2.75958251953125
1445423542853;340.8436279296875;-77.90190124511719;-17.984102249145508;0.0656890869140625;-13.436080932617188;2.3477020263671875
1445423542886;334.98773193359375;-75.97801971435547;-17.396854400634766;-0.4442596435546875;-14.416748046875;-0.633514404296875
1445423542919;331.09259033203125;-75.15821838378906;-17.260459899902344;1.2032623291015625;-11.45513916015625;1.8377685546875
1445423542952;327.5673828125;-75.61182403564453;-17.273225784301758;1.5170745849609375;-11.10211181640625;2.9164886474609375
1445423542985;325.392333984375;-76.00347137451172;-17.043197631835938;1.046356201171875;-10.101821899414062;4.0540618896484375
1445423543018;324.05914306640625;-75.5776596069336;-17.03206443786621;1.791656494140625;-8.4346923828125;2.0731201171875
1445423543051;320.9298095703125;-74.82743835449219;-17.526538848876953;2.046630859375;-8.120880126953125;1.2297515869140625
1445423543084;318.64111328125;-74.90419006347656;-18.48751449584961;0.6148681640625;-7.7089996337890625;1.6220245361328125
1445423543117;317.4720153808594;-74.8943862915039;-18.93069076538086;-0.8169097900390625;-7.375579833984375;2.75958251953125
1445423543150;313.9800720214844;-74.34754180908203;-19.507280349731445;0.10491943359375;-8.4935302734375;2.779205322265625
1445423543182;310.63677978515625;-73.76119232177734;-20.370311737060547;1.6935882568359375;-11.376693725585938;3.2303009033203125
1445423543216;309.0685119628906;-73.45105743408203;-20.794214248657227;2.164306640625;-12.102386474609375;3.5048980712890625
1445423543249;303.9066467285156;-72.35423278808594;-21.138282775878906;3.6549224853515625;-13.024200439453125;2.6811370849609375
1445423543282;300.6407470703125;-72.05966186523438;-21.240325927734375;4.3610076904296875;-11.33746337890625;0.0333404541015625
1445423543315;294.86126708984375;-72.79736328125;-21.88138771057129;3.9098968505859375;-10.454864501953125;-0.2216339111328125
1445423543348;290.9966735839844;-75.44915008544922;-23.062177658081055;2.7919464111328125;-8.964248657226562;-0.0451202392578125
1445423543381;289.79473876953125;-77.31243896484375;-23.6597957611084;1.615142822265625;-7.7678375244140625;0.58251953125
1445423543414;288.42852783203125;-82.05182647705078;-24.64261817932129;1.2817230224609375;-7.316741943359375;0.9159393310546875
1445423543447;288.12042236328125;-87.37456512451172;-25.203542709350586;1.2621002197265625;-6.8852386474609375;1.32781982421875
1445423543480;287.66802978515625;-89.801025390625;-25.239173889160156;1.8701171875;-9.317291259765625;0.445220947265625
1445423543513;285.48724365234375;-93.81221008300781;-24.763944625854492;3.1057586669921875;-12.043548583984375;0.111785888671875
1445423543546;281.8937683105469;-96.89813995361328;-23.641847610473633;4.7336578369140625;-13.769515991210938;-0.8492584228515625
1445423543579;280.0395812988281;-98.05230712890625;-23.00607681274414;5.1847686767578125;-13.632217407226562;-1.3003692626953125
1445423543612;277.4585876464844;-99.93875122070312;-21.44301414489746;5.06707763671875;-14.004867553710938;-1.261138916015625
1445423543645;276.09130859375;-100.6765365600586;-20.60774040222168;4.635589599609375;-11.729736328125;-0.1039581298828125
1445423543678;272.934814453125;-102.18343353271484;-18.896209716796875;3.8510589599609375;-10.297958374023438;0.4648284912109375
1445423543711;269.6410217285156;-104.11405181884766;-17.488805770874023;2.2231597900390625;-6.66949462890625;0.4256134033203125
1445423543743;268.0102844238281;-105.01053619384766;-17.297832489013672;2.164306640625;-4.021697998046875;-0.1039581298828125
1445423543776;265.1850891113281;-106.32951354980469;-17.75336265563965;2.066253662109375;-3.7667236328125;-0.3197021484375
1445423543810;262.6543273925781;-107.06258392333984;-18.50298500061035;2.4585113525390625;-5.23773193359375;-0.77081298828125
1445423543843;261.2926025390625;-107.50848388671875;-18.818506240844727;4.3610076904296875;-9.395751953125;-2.8498077392578125
1445423543877;257.81768798828125;-108.2032470703125;-19.969606399536133;5.8123931884765625;-10.376419067382812;-3.261688232421875
1445423543909;254.55905151367188;-108.3276596069336;-21.23180389404297;5.8712310791015625;-11.200164794921875;-3.6735687255859375
1445423543942;253.337158203125;-108.16632843017578;-21.38970375061035;5.4201202392578125;-11.259017944335938;-3.653961181640625
1445423543975;250.56396484375;-107.64969635009766;-20.969011306762695;5.0474700927734375;-10.003753662109375;-3.771636962890625
1445423544008;248.59149169921875;-107.29130554199219;-20.52256965637207;3.9687347412109375;-7.92474365234375;-3.8108673095703125
1445423544045;244.14617919921875;-106.18854522705078;-19.449132919311523;3.3411102294921875;-6.7871856689453125;-2.0456695556640625
1445423544074;241.38821411132812;-104.3712158203125;-19.014934539794922;3.3607330322265625;-6.473358154296875;-1.3984375
1445423544108;240.39364624023438;-103.25019073486328;-19.033655166625977;3.6745452880859375;-6.5322113037109375;-1.437652587890625
1445423544141;238.49749755859375;-101.13851928710938;-19.334716796875;3.5372467041015625;-6.4537506103515625;-1.7906951904296875
1445423544174;237.2879638671875;-99.62068176269531;-19.788772583007812;2.2819976806640625;-7.1990509033203125;-1.7906951904296875
1445423544210;239.72119140625;-98.40807342529297;-19.092741012573242;2.8899993896484375;-13.239959716796875;-0.868865966796875
1445423544243;241.70794677734375;-97.59001922607422;-18.368295669555664;2.61541748046875;-13.887191772460938;-0.5354461669921875
1445423544274;245.6126708984375;-96.1533432006836;-17.07602310180664;2.9096221923828125;-12.65155029296875;0.876708984375
1445423544310;250.82232666015625;-94.15473937988281;-16.438732147216797;2.7919464111328125;-13.259567260742188;1.190521240234375
1445423544342;253.108154296875;-93.15812683105469;-15.932633399963379;1.732818603515625;-11.121719360351562;0.8571014404296875
1445423544371;257.1833190917969;-91.18138122558594;-14.247387886047363;0.7325439453125;-9.709564208984375;0.935546875
1445423544404;258.83837890625;-90.17182159423828;-13.314408302307129;0.2029876708984375;-9.12115478515625;0.680572509765625
1445423544437;259.4259948730469;-88.05476379394531;-11.884256362915039;0.7129364013671875;-7.74822998046875;-0.2804718017578125
1445423544470;259.7275390625;-86.30785369873047;-10.960785865783691;0.7913818359375;-6.9048614501953125;-0.2020263671875
1445423544503;260.6078186035156;-85.72248077392578;-10.662881851196289;1.0267486572265625;-7.7089996337890625;0.36676025390625
1445423544536;262.63323974609375;-85.12854766845703;-10.199825286865234;1.5759124755859375;-10.494094848632812;1.1512908935546875
1445423544569;263.4525146484375;-85.02240753173828;-9.972867012023926;0.8894500732421875;-11.670883178710938;1.38665771484375
1445423544602;265.5951232910156;-84.7436294555664;-9.593552589416504;0.8109893798828125;-12.671173095703125;1.759307861328125
1445423544635;268.3262634277344;-84.53108978271484;-9.136505126953125;0.2618255615234375;-13.1026611328125;1.818145751953125
1445423544668;269.3851623535156;-84.33748626708984;-8.854537963867188;-0.0716094970703125;-12.769241333007812;1.0532379150390625
1445423544702;270.3897705078125;-84.24224090576172;-8.28321647644043;0.2618255615234375;-12.161224365234375;0.5432891845703125
1445423544734;273.4283752441406;-84.81138610839844;-7.65555477142334;1.1444244384765625;-10.25872802734375;0.81787109375
1445423544767;275.79913330078125;-85.34590911865234;-7.291136264801025;1.850494384765625;-9.258453369140625;0.9747772216796875
1445423544800;279.9302978515625;-86.1965103149414;-6.962066650390625;3.51763916015625;-7.316741943359375;0.0921783447265625
1445423544833;282.334228515625;-87.03865814208984;-7.955346584320068;1.8701171875;-5.845733642578125;-0.3785400390625
1445423544867;282.72540283203125;-87.58399200439453;-8.62315845489502;-0.4246368408203125;-5.3358001708984375;-0.2020263671875
1445423544899;282.8772277832031;-88.65608215332031;-9.139449119567871;-2.366363525390625;-9.081939697265625;0.562896728515625
1445423544932;282.3175048828125;-88.82161712646484;-8.874733924865723;-0.3069610595703125;-13.455703735351562;0.19024658203125
1445423544966;279.1282653808594;-88.11241912841797;-8.623815536499023;0.595245361328125;-13.67144775390625;0.01373291015625
1445423544999;277.1841735839844;-87.7627944946289;-8.781832695007324;1.0267486572265625;-13.632217407226562;-0.064727783203125
1445423545031;277.6435546875;-87.96305847167969;-8.87919807434082;0.7521514892578125;-12.749618530273438;0.7786407470703125
1445423545064;279.5181579589844;-88.39398193359375;-8.698043823242188;0.418731689453125;-11.710113525390625;1.3474273681640625
1445423545097;281.03692626953125;-88.51838684082031;-8.250555038452148;0.1441497802734375;-9.493820190429688;1.32781982421875
1445423545130;281.4297180175781;-88.50442504882812;-8.037005424499512;0.8894500732421875;-8.356246948242188;0.8571014404296875
1445423545164;281.7784118652344;-88.33262634277344;-8.09232234954834;1.4582366943359375;-6.43414306640625;0.7394256591796875
1445423545196;282.636962890625;-88.18263244628906;-8.434362411499023;1.4582366943359375;-5.35540771484375;1.1512908935546875
1445423545229;282.5052490234375;-88.09099578857422;-8.747749328613281;2.55657958984375;-7.0029296875;0.7001953125
1445423545262;279.7344970703125;-87.80782318115234;-10.08285903930664;1.8701171875;-10.9451904296875;0.01373291015625
1445423545295;278.4617614746094;-87.78008270263672;-10.759286880493164;0.359893798828125;-16.731124877929688;-1.2219085693359375
1445423545327;273.19970703125;-87.87981414794922;-11.976788520812988;-1.8171844482421875;-14.671722412109375;-1.574951171875
1445423545361;275.23956298828125;-89.90834045410156;-12.368502616882324;-1.3072357177734375;-11.768951416015625;2.5634613037109375
1445423545394;279.05316162109375;-91.00220489501953;-12.190387725830078;3.1057586669921875;-9.415359497070312;1.9358367919921875
1445423545428;281.34649658203125;-90.84390258789062;-12.55814266204834;2.5173492431640625;-8.846572875976562;1.072845458984375
1445423545460;279.97576904296875;-90.39056396484375;-13.858765602111816;1.556304931640625;-7.8462982177734375;0.5236663818359375
1445423545494;279.76171875;-90.65975189208984;-14.529452323913574;2.5958099365234375;-8.003204345703125;-0.2804718017578125
1445423545526;280.06451416015625;-91.83023071289062;-15.988401412963867;3.1057586669921875;-8.473922729492188;-0.6531219482421875
1445423545559;281.0356140136719;-93.69467163085938;-17.5261173248291;2.9488525390625;-10.297958374023438;-0.6727447509765625
1445423545593;281.07122802734375;-94.7406997680664;-18.325361251831055;2.9684600830078125;-11.21978759765625;-0.868865966796875
1445423545625;282.7388916015625;-97.72689819335938;-19.66600799560547;4.5571441650390625;-11.827789306640625;-1.0257720947265625
1445423545667;286.02838134765625;-101.85021209716797;-20.830228805541992;6.5576934814453125;-10.337188720703125;-2.7909698486328125
1445423545691;287.16278076171875;-104.25250244140625;-21.521024703979492;6.283111572265625;-10.19989013671875;-3.9677734375
1445423545738;287.356201171875;-110.07292938232422;-25.187240600585938;5.00823974609375;-10.631378173828125;-3.51666259765625
1445423545770;287.76617431640625;-111.45833587646484;-26.105772018432617;5.8712310791015625;-9.807632446289062;-3.830474853515625
1445423545790;288.85675048828125;-112.919189453125;-26.76511001586914;5.7927703857421875;-8.76812744140625;-3.9481658935546875
1445423545823;293.74261474609375;-116.10083770751953;-27.18997573852539;4.439453125;-7.1009979248046875;-2.908660888671875
1445423545867;297.7137451171875;-117.406005859375;-27.12412452697754;2.4781341552734375;-5.551544189453125;-1.692626953125
1445423545902;300.26416015625;-117.41177368164062;-26.27044105529785;1.2621002197265625;-4.0020904541015625;-1.1042327880859375
1445423545934;301.74249267578125;-117.12992858886719;-25.592281341552734;1.164031982421875;-3.394073486328125;-0.94732666015625
1445423545958;303.7420654296875;-116.71517944335938;-24.736366271972656;2.3996734619140625;-3.3156280517578125;-0.7904205322265625
1445423546002;313.22772216796875;-114.28355407714844;-22.8855037689209;3.949127197265625;-6.1399383544921875;-1.12384033203125
1445423546021;316.02313232421875;-113.03142547607422;-22.836139678955078;4.439453125;-8.3170166015625;-1.810302734375
1445423546054;317.9324035644531;-111.4394760131836;-23.060752868652344;4.6159820556640625;-10.494094848632812;-1.8495330810546875
1445423546087;318.8359680175781;-107.99848937988281;-23.699575424194336;4.262939453125;-13.710678100585938;-2.065277099609375
1445423546122;318.2066345214844;-104.60409545898438;-23.433202743530273;4.9297943115234375;-14.86785888671875;-2.8498077392578125
1445423546192;321.0577392578125;-99.63040924072266;-21.421688079833984;4.125640869140625;-11.965087890625;-2.6732940673828125
1445423546200;321.0577392578125;-99.63040924072266;-21.421688079833984;3.498016357421875;-10.435256958007812;-2.1241302490234375
1445423546225;324.523681640625;-97.02104949951172;-20.63376808166504;2.9684600830078125;-8.76812744140625;-1.6337890625
1445423546258;326.3465576171875;-95.97225952148438;-20.381210327148438;2.301605224609375;-7.297119140625;-1.0453948974609375
1445423546290;327.8386535644531;-93.6967544555664;-20.04049301147461;0.654083251953125;-5.9634246826171875;-0.123565673828125
1445423546324;325.52069091796875;-91.19659423828125;-19.59617805480957;0.242218017578125;-8.062042236328125;-0.3197021484375
1445423546357;323.603271484375;-90.13860321044922;-19.101177215576172;0.359893798828125;-8.88580322265625;-0.515838623046875
1445423546390;322.46600341796875;-88.6873550415039;-17.716312408447266;2.2819976806640625;-10.5333251953125;-0.2608642578125
1445423546423;323.6346130371094;-87.74537658691406;-16.38720703125;3.321502685546875;-12.220062255859375;0.504058837890625
1445423546457;324.1147766113281;-87.40119934082031;-15.777398109436035;3.380340576171875;-13.318405151367188;0.2883148193359375
1445423546490;322.9363708496094;-86.29439544677734;-14.866429328918457;1.0267486572265625;-12.35736083984375;0.876708984375
1445423546523;321.549560546875;-85.718994140625;-14.387577056884766;1.222869873046875;-10.513702392578125;0.9159393310546875
1445423546562;319.6514587402344;-84.3556900024414;-13.236715316772461;2.242767333984375;-9.925308227539062;0.896331787109375
1445423546590;318.9486389160156;-82.84076690673828;-12.20699691772461;3.439178466796875;-8.709274291992188;0.445220947265625
1445423546623;318.86761474609375;-82.21803283691406;-11.82728099822998;2.8899993896484375;-8.3758544921875;0.386383056640625
1445423546656;318.408935546875;-81.50346374511719;-11.366538047790527;0.34027099609375;-8.532760620117188;1.0924530029296875
1445423546687;317.3622741699219;-81.4122085571289;-10.859646797180176;0.654083251953125;-9.533035278320312;1.38665771484375
1445423546720;316.1371765136719;-81.35476684570312;-10.615427017211914;1.3209381103515625;-10.180282592773438;0.58251953125
1445423546753;313.0595397949219;-81.15106201171875;-10.420792579650879;1.556304931640625;-10.964813232421875;0.0333404541015625
1445423546786;312.49896240234375;-81.44123077392578;-10.548322677612305;0.026458740234375;-10.866744995117188;0.896331787109375
1445423546820;310.74945068359375;-82.55427551269531;-10.385064125061035;-1.20916748046875;-11.043258666992188;0.81787109375
1445423546852;306.8829040527344;-83.40839385986328;-9.451739311218262;-1.522979736328125;-12.102386474609375;0.562896728515625
1445423546886;305.97918701171875;-83.79292297363281;-8.891395568847656;0.477569580078125;-11.729736328125;0.994384765625
1445423546919;305.6220703125;-84.2770004272461;-8.061615943908691;1.41900634765625;-11.180557250976562;0.896331787109375
1445423546953;304.1761474609375;-84.26481628417969;-7.70607328414917;2.43890380859375;-10.219512939453125;0.1706390380859375
1445423546984;303.64898681640625;-84.34488677978516;-7.7545576095581055;1.8897247314453125;-9.12115478515625;0.111785888671875
1445423547017;303.9698181152344;-85.00445556640625;-8.1241455078125;1.164031982421875;-8.611221313476562;0.641357421875
1445423547050;304.8790283203125;-85.50276184082031;-8.391483306884766;0.654083251953125;-8.003204345703125;1.190521240234375
1445423547083;304.84271240234375;-85.46170043945312;-8.43394947052002;0.5167999267578125;-7.8462982177734375;1.0924530029296875
1445423547117;304.9350891113281;-85.12306213378906;-8.53511905670166;1.3797760009765625;-9.415359497070312;1.190521240234375
1445423547150;304.7521667480469;-84.43722534179688;-8.808396339416504;1.222869873046875;-10.219512939453125;1.6612396240234375
1445423547182;304.5826416015625;-84.0540542602539;-9.091732025146484;1.30133056640625;-10.749069213867188;1.32781982421875
1445423547215;303.4916076660156;-83.5208969116211;-9.932723999023438;0.026458740234375;-12.278900146484375;1.38665771484375
1445423547247;302.87017822265625;-83.43267059326172;-10.241968154907227;-0.091217041015625;-12.318130493164062;1.6612396240234375
1445423547281;302.11273193359375;-83.54039764404297;-10.806920051574707;0.16375732421875;-11.965087890625;1.700469970703125
1445423547314;301.8386535644531;-83.78801727294922;-11.428647994995117;0.10491943359375;-10.5921630859375;2.092742919921875
1445423547347;301.93994140625;-83.83800506591797;-11.67577075958252;1.0071258544921875;-9.06231689453125;2.092742919921875
1445423547380;302.56158447265625;-83.75995635986328;-12.28539752960205;1.3209381103515625;-8.454315185546875;1.9946746826171875
1445423547413;303.503173828125;-83.63020324707031;-13.235292434692383;1.3993988037109375;-7.885528564453125;1.8966064453125
1445423547447;304.062744140625;-83.56169891357422;-13.80622386932373;1.24249267578125;-8.454315185546875;1.4847259521484375
1445423547479;304.90704345703125;-83.43134307861328;-14.857063293457031;1.2032623291015625;-8.983871459960938;1.3670501708984375
1445423547512;305.5015563964844;-83.41890716552734;-15.730692863464355;1.7720489501953125;-11.45513916015625;1.26898193359375
1445423547546;306.14007568359375;-83.5121841430664;-16.21429443359375;2.2231597900390625;-11.749343872070312;1.3474273681640625
1445423547579;307.39471435546875;-83.982421875;-17.150577545166016;3.498016357421875;-11.710113525390625;0.7982635498046875
1445423547611;307.7967834472656;-84.4570541381836;-17.620595932006836;3.9687347412109375;-10.788284301757812;0.052947998046875
1445423547644;308.8711242675781;-86.02915954589844;-18.513166427612305;4.1060333251953125;-9.96453857421875;-0.3393096923828125
1445423547677;310.5487365722656;-88.47850036621094;-19.304706573486328;4.2825469970703125;-8.454315185546875;-1.18267822265625
1445423547709;311.1780700683594;-89.91051483154297;-19.782976150512695;3.321502685546875;-8.218948364257812;-1.947601318359375
1445423547743;311.68206787109375;-93.25007629394531;-20.88513946533203;2.67425537109375;-8.630828857421875;-1.947601318359375
1445423547777;311.8887023925781;-96.67060852050781;-21.582595825195312;1.6543731689453125;-8.160110473632812;-0.94732666015625
1445423547809;311.6786804199219;-98.03205108642578;-21.653669357299805;1.928955078125;-7.4736480712890625;-0.123565673828125
1445423547842;312.2383117675781;-100.73086547851562;-21.063222885131836;2.360443115234375;-8.179718017578125;-0.2020263671875
1445423547875;313.4284362792969;-102.53152465820312;-19.61836051940918;3.4195709228515625;-10.572540283203125;-1.51611328125
1445423547908;313.6767272949219;-102.92241668701172;-18.816936492919922;3.92950439453125;-11.690505981445312;-2.37908935546875
1445423547942;312.3967590332031;-103.24325561523438;-17.581710815429688;3.87066650390625;-12.41619873046875;-2.7125244140625
1445423547974;310.11944580078125;-102.96823120117188;-16.468976974487305;4.184478759765625;-10.925582885742188;-2.1045074462890625
1445423548007;309.74072265625;-102.72582244873047;-15.889782905578613;4.517913818359375;-9.827239990234375;-2.006439208984375
1445423548041;309.00848388671875;-102.27415466308594;-15.252663612365723;3.63531494140625;-7.9639739990234375;-2.1241302490234375
1445423548081;307.20648193359375;-101.94874572753906;-15.152652740478516;2.2231597900390625;-7.1990509033203125;-2.37908935546875
1445423548107;305.8331604003906;-101.90264129638672;-15.26628589630127;1.98779296875;-6.9636993408203125;-2.4967803955078125
1445423548140;302.803955078125;-102.49071502685547;-15.656876564025879;1.850494384765625;-7.3363494873046875;-2.692901611328125
1445423548173;301.2154846191406;-103.06619262695312;-15.890918731689453;2.360443115234375;-8.4935302734375;-2.5359954833984375
1445423548206;298.160400390625;-104.64205932617188;-16.50714874267578;3.0076904296875;-9.199615478515625;-2.3594818115234375
1445423548238;296.081787109375;-106.58120727539062;-17.443872451782227;4.3021697998046875;-10.121444702148438;-2.32025146484375
1445423548272;295.6754150390625;-107.5789566040039;-17.887027740478516;4.9101715087890625;-10.572540283203125;-2.692901611328125
1445423548306;295.3284606933594;-108.8939208984375;-18.43593978881836;5.027862548828125;-10.749069213867188;-3.1244049072265625
1445423548339;295.1253967285156;-109.13197326660156;-18.550607681274414;4.262939453125;-9.533035278320312;-2.9871063232421875
1445423548370;294.4371643066406;-108.82835388183594;-18.76776885986328;3.7725982666015625;-8.728897094726562;-2.7321319580078125
1445423548403;293.4207458496094;-107.78894805908203;-19.1499080657959;3.0665283203125;-7.669769287109375;-2.4183197021484375
1445423548436;292.8006896972656;-107.06378936767578;-19.313201904296875;2.4585113525390625;-6.8852386474609375;-2.339874267578125
1445423548469;291.8011474609375;-105.54393768310547;-19.25236701965332;2.7919464111328125;-6.473358154296875;-2.3006439208984375
1445423548502;290.85052490234375;-104.522705078125;-18.84766960144043;3.2430419921875;-6.8852386474609375;-2.26141357421875
1445423548536;290.7115478515625;-104.28170013427734;-18.50360870361328;4.145263671875;-10.180282592773438;-1.4768829345703125
1445423548568;292.4864501953125;-103.73210906982422;-17.68885612487793;5.06707763671875;-13.083053588867188;-1.18267822265625
1445423548601;294.5110778808594;-103.27388000488281;-17.061582565307617;4.2041015625;-11.90625;0.0921783447265625
1445423548636;300.0918884277344;-101.70762634277344;-15.33657169342041;3.2038116455078125;-11.043258666992188;1.5435638427734375
1445423548667;307.12872314453125;-99.37480926513672;-13.821747779846191;2.046630859375;-10.788284301757812;1.6612396240234375
1445423548702;310.2393798828125;-97.9304428100586;-13.120737075805664;0.7521514892578125;-9.68994140625;1.1709136962890625
1445423548733;314.3113098144531;-94.89183807373047;-11.554071426391602;0.6148681640625;-8.925033569335938;1.1512908935546875
1445423548767;318.34197998046875;-92.4770736694336;-9.881767272949219;0.6933135986328125;-7.7874603271484375;1.190521240234375
1445423548799;320.6966857910156;-91.32347869873047;-9.017841339111328;1.30133056640625;-8.160110473632812;1.56317138671875
1445423548832;325.4062194824219;-89.27144622802734;-7.917871952056885;1.2621002197265625;-9.650726318359375;1.7789306640625
1445423548865;327.86572265625;-87.997314453125;-7.18134880065918;0.2029876708984375;-12.690780639648438;1.308197021484375
1445423548898;329.16668701171875;-87.5704574584961;-6.898567199707031;-0.0716094970703125;-12.631942749023438;0.935546875
1445423548932;332.6324462890625;-87.06147766113281;-6.8328447341918945;0.026458740234375;-11.592437744140625;1.7200775146484375
1445423548964;336.5607604980469;-87.26070404052734;-6.994709491729736;-0.091217041015625;-11.023651123046875;2.5634613037109375
1445423548997;338.3343811035156;-87.17390441894531;-6.940690517425537;-0.0716094970703125;-10.788284301757812;1.6024017333984375
1445423549030;341.2565612792969;-86.53884887695312;-6.777856349945068;0.2618255615234375;-10.356796264648438;1.014007568359375
1445423549063;342.7432556152344;-86.17745208740234;-6.801805019378662;0.22259521484375;-8.630828857421875;0.876708984375
1445423549096;345.5707702636719;-85.6699447631836;-7.074781894683838;-0.01275634765625;-8.297409057617188;0.58251953125
1445423549129;347.4351806640625;-85.01472473144531;-7.515979290008545;-1.03265380859375;-7.552093505859375;0.7001953125
1445423549162;348.4861145019531;-84.77840423583984;-7.6803297996521;-0.522705078125;-8.76812744140625;0.7394256591796875
1445423549196;351.014404296875;-84.07258605957031;-7.9815497398376465;-0.01275634765625;-10.003753662109375;0.7394256591796875
1445423549228;351.73309326171875;-82.99601745605469;-8.797380447387695;0.9090576171875;-12.259292602539062;0.445220947265625
1445423549262;351.0592956542969;-82.35201263427734;-9.442678451538086;-0.3854217529296875;-12.53387451171875;0.2686920166015625
1445423549294;348.0482177734375;-81.5176773071289;-10.723443984985352;-1.464141845703125;-12.318130493164062;0.896331787109375
1445423549327;345.47027587890625;-80.96627807617188;-11.411027908325195;-0.1304473876953125;-12.29852294921875;1.6612396240234375
1445423549361;344.6998596191406;-80.68836212158203;-11.718582153320312;1.673980712890625;-10.925582885742188;0.36676025390625
1445423549393;342.5440979003906;-80.27890014648438;-12.718025207519531;1.53668212890625;-10.08221435546875;0.445220947265625
1445423549426;340.35357666015625;-80.36996459960938;-13.862298011779785;0.987518310546875;-8.728897094726562;1.0924530029296875
1445423549462;339.5514221191406;-80.33194732666016;-14.391219139099121;1.24249267578125;-8.101272583007812;1.44549560546875
1445423549493;337.2143249511719;-79.97203826904297;-15.400294303894043;1.1444244384765625;-8.022811889648438;1.7985382080078125
1445423549524;335.7894592285156;-79.78398132324219;-15.834883689880371;1.75244140625;-8.709274291992188;1.38665771484375
1445423549559;333.1018371582031;-79.72239685058594;-16.531023025512695;2.693878173828125;-9.415359497070312;1.0532379150390625
1445423549592;331.3866271972656;-81.13504028320312;-16.809001922607422;4.4002227783203125;-11.298233032226562;-0.0254974365234375
1445423549625;330.66339111328125;-82.426513671875;-16.842451095581055;3.8510589599609375;-12.945755004882812;0.2686920166015625
1445423549658;328.92877197265625;-85.68544006347656;-16.932003021240234;3.4195709228515625;-12.573104858398438;0.7982635498046875
1445423549691;325.7998046875;-89.24955749511719;-17.138736724853516;1.5955352783203125;-11.259017944335938;0.7982635498046875
1445423549723;323.9152526855469;-90.8053207397461;-17.058195114135742;0.0068511962890625;-8.94464111328125;1.0532379150390625
1445423549757;319.2904357910156;-92.88824462890625;-16.436433792114258;-0.3657989501953125;-7.57171630859375;1.190521240234375
1445423549790;316.62542724609375;-93.59229278564453;-16.013587951660156;-0.522705078125;-5.9634246826171875;1.131683349609375
1445423549822;311.3318786621094;-94.79158020019531;-14.885198593139648;-0.1304473876953125;-5.9241943359375;0.6609649658203125
1445423549857;306.441650390625;-95.853515625;-13.972273826599121;1.0071258544921875;-7.6501617431640625;0.30792236328125
1445423549891;303.33831787109375;-96.3406753540039;-13.704268455505371;2.2231597900390625;-12.063156127929688;0.58251953125
1445423549924;298.061767578125;-97.43067169189453;-12.977778434753418;3.321502685546875;-14.338302612304688;-0.3981475830078125
1445423549953;294.3174133300781;-98.8319320678711;-11.607930183410645;2.0858612060546875;-14.455978393554688;-0.1431732177734375
1445423549988;291.9626770019531;-99.18757629394531;-10.848922729492188;1.3797760009765625;-14.455978393554688;0.4844512939453125
1445423550020;286.67724609375;-99.97540283203125;-9.707178115844727;1.9681854248046875;-13.1614990234375;0.3471527099609375
1445423550053;280.7567138671875;-101.1984634399414;-9.488000869750977;2.61541748046875;-9.474197387695312;-0.5354461669921875
1445423550087;277.72979736328125;-101.78931427001953;-9.56894588470459;1.9485626220703125;-7.0029296875;-1.1630706787109375
1445423550119;271.3871765136719;-102.2464599609375;-10.430022239685059;1.497467041015625;-6.3360748291015625;-1.00616455078125
1445423550152;268.2582702636719;-102.15245819091797;-11.292824745178223;0.928680419921875;-5.9045867919921875;-0.2020263671875
1445423550185;263.0234375;-102.22671508789062;-13.388158798217773;0.869842529296875;-6.4537506103515625;-0.4962158203125
1445423550217;258.0665283203125;-102.70645141601562;-15.493497848510742;1.12481689453125;-7.2186737060546875;-1.319976806640625
1445423550251;254.5572509765625;-103.413330078125;-16.87116050720215;3.046905517578125;-8.76812744140625;-0.8492584228515625
1445423550284;253.175048828125;-103.59840393066406;-17.37092399597168;4.5963592529296875;-10.454864501953125;-0.9865570068359375
1445423550317;249.56024169921875;-103.95580291748047;-19.270286560058594;7.2637786865234375;-13.61260986328125;-0.7119598388671875
1445423550350;249.8243408203125;-104.87285614013672;-20.23653221130371;4.3021697998046875;-9.493820190429688;1.9946746826171875
1445423550383;254.41009521484375;-105.72914123535156;-19.67262077331543;4.8709564208984375;-10.042984008789062;0.7982635498046875
1445423550416;260.9165954589844;-103.14789581298828;-18.715696334838867;3.4587860107421875;-11.572830200195312;1.32781982421875
1445423550450;263.7539367675781;-101.50336456298828;-18.173290252685547;0.3991241455078125;-9.395751953125;-0.005889892578125
1445423550482;263.55780029296875;-97.1675033569336;-16.526594161987305;0.1245269775390625;-8.081649780273438;-0.6138916015625
1445423550515;260.2079162597656;-92.72811889648438;-15.108736038208008;0.4383392333984375;-7.257904052734375;0.30792236328125
1445423550548;259.7105712890625;-91.07260131835938;-14.274659156799316;1.8701171875;-8.003204345703125;0.9747772216796875
1445423550581;255.60614013671875;-88.55135345458984;-12.701152801513672;4.8709564208984375;-10.7098388671875;-3.3205413818359375
1445423550614;251.56930541992188;-87.68333435058594;-12.287047386169434;4.4198455810546875;-11.474761962890625;-1.6141815185546875
1445423550647;255.52105712890625;-89.06660461425781;-11.963132858276367;2.811553955078125;-10.19989013671875;0.4059906005859375
1445423550680;269.75701904296875;-91.18539428710938;-11.019495964050293;-0.2481231689453125;-11.357070922851562;4.4463348388671875
1445423550712;275.03485107421875;-91.88243865966797;-10.438563346862793;1.53668212890625;-11.415924072265625;3.289154052734375
1445423550746;278.75048828125;-90.38609313964844;-9.525992393493652;1.18365478515625;-11.239395141601562;2.4850006103515625
1445423550779;277.6708984375;-87.40802764892578;-8.276100158691406;0.9482879638671875;-10.631378173828125;0.30792236328125
1445423550812;279.11334228515625;-86.25859069824219;-7.550508499145508;2.2035369873046875;-9.160385131835938;0.386383056640625
1445423550846;286.5787353515625;-85.02738952636719;-6.530582427978516;2.55657958984375;-8.336624145507812;0.7394256591796875
1445423550878;291.2099304199219;-84.10716247558594;-6.336573123931885;0.869842529296875;-7.92474365234375;0.4648284912109375
1445423550911;292.3421936035156;-83.82424926757812;-6.391538143157959;0.0656890869140625;-8.395462036132812;1.26898193359375
1445423550944;296.302001953125;-83.70354461669922;-6.226393222808838;-0.660003662109375;-10.14105224609375;2.8576507568359375
1445423550977;298.0251159667969;-83.46721649169922;-5.957944393157959;0.0656890869140625;-12.043548583984375;2.210418701171875
1445423551009;302.2569274902344;-82.6607894897461;-5.4089155197143555;0.5756378173828125;-12.337738037109375;1.641632080078125
1445423551043;308.5021057128906;-81.92682647705078;-5.258557319641113;0.6344757080078125;-11.317855834960938;2.2496490478515625
1445423551076;311.5614318847656;-81.61592864990234;-5.318353176116943;0.0068511962890625;-10.415634155273438;2.1711883544921875
1445423551110;316.420654296875;-81.01795959472656;-5.380519390106201;0.0068511962890625;-10.08221435546875;1.6612396240234375
1445423551142;320.3598937988281;-80.25606536865234;-5.590821266174316;0.0853118896484375;-8.964248657226562;0.9159393310546875
1445423551178;322.51873779296875;-79.9192123413086;-5.827460289001465;0.418731689453125;-7.4540252685546875;0.8571014404296875
1445423551209;326.65032958984375;-79.36583709716797;-6.441067695617676;0.8109893798828125;-7.80706787109375;0.8374786376953125
1445423551241;330.0007629394531;-78.71009826660156;-7.507463455200195;0.8894500732421875;-10.101821899414062;1.131683349609375
1445423551274;331.38238525390625;-78.2442398071289;-8.25504207611084;-0.0519866943359375;-12.867294311523438;2.661529541015625
1445423551307;333.2760925292969;-77.4385986328125;-9.509145736694336;0.595245361328125;-13.298797607421875;2.151580810546875
1445423551340;337.91546630859375;-77.45252227783203;-10.035216331481934;3.615692138671875;-12.573104858398438;1.818145751953125
1445423551373;340.3799743652344;-78.02921295166016;-10.272468566894531;3.380340576171875;-11.984695434570312;1.9946746826171875
1445423551407;344.3103942871094;-80.06539154052734;-11.08100700378418;1.98779296875;-10.356796264648438;2.3673248291015625
1445423551438;346.3781433105469;-81.3162612915039;-11.571694374084473;2.5173492431640625;-8.88580322265625;1.6612396240234375
1445423551472;350.3061828613281;-83.869384765625;-12.820671081542969;2.49774169921875;-8.042434692382812;1.21014404296875
1445423551507;353.66778564453125;-86.6703872680664;-14.372236251831055;2.2035369873046875;-6.9636993408203125;1.072845458984375
1445423551537;355.671875;-88.19766998291016;-15.069219589233398;1.8897247314453125;-6.7675628662109375;1.8573760986328125
1445423551571;359.5246276855469;-90.89614868164062;-16.217529296875;2.2623748779296875;-7.4148101806640625;2.1907958984375
1445423551604;1.6990966796875;-92.89651489257812;-17.27879524230957;3.0272979736328125;-10.219512939453125;1.9162139892578125
1445423551637;2.580322265625;-93.71431732177734;-17.53929901123047;5.0474700927734375;-12.494644165039062;0.641357421875
1445423551670;6.31475830078125;-95.039306640625;-17.692981719970703;5.145538330078125;-12.337738037109375;0.2098541259765625
1445423551703;8.570831298828125;-95.24551391601562;-18.159446716308594;4.4002227783203125;-11.45513916015625;-0.3393096923828125
1445423551737;9.667938232421875;-95.21202087402344;-18.336719512939453;4.0471954345703125;-9.68994140625;0.1510162353515625
1445423551769;13.8707275390625;-95.63863372802734;-18.221364974975586;3.3411102294921875;-9.101547241210938;0.504058837890625
1445423551802;17.874420166015625;-95.8338394165039;-18.15894317626953;2.9096221923828125;-8.003204345703125;0.5432891845703125
1445423551834;18.84283447265625;-95.7105941772461;-18.34546661376953;2.419281005859375;-7.57171630859375;0.30792236328125
1445423551869;20.900909423828125;-95.93901062011719;-18.67487907409668;2.2231597900390625;-7.35595703125;0.111785888671875
1445423551901;22.041961669921875;-96.22692108154297;-18.693443298339844;2.55657958984375;-8.022811889648438;-0.82965087890625
1445423551934;24.2679443359375;-96.40778350830078;-18.503442764282227;2.635040283203125;-8.2581787109375;-1.2219085693359375
1445423551967;27.879058837890625;-96.6699447631836;-17.871801376342773;3.1253662109375;-8.473922729492188;-1.9279937744140625
1445423552000;30.445770263671875;-96.77493286132812;-17.346237182617188;4.2041015625;-9.846847534179688;-2.1045074462890625
1445423552033;36.14910888671875;-97.03638458251953;-16.46629524230957;4.380615234375;-10.847137451171875;-2.1241302490234375
1445423552067;37.83660888671875;-97.39028930664062;-16.59334945678711;3.2038116455078125;-12.9849853515625;-1.5945587158203125
1445423552100;37.452178955078125;-97.69635772705078;-16.83598518371582;2.55657958984375;-12.730010986328125;-1.496490478515625
1445423552131;37.21417236328125;-98.1204833984375;-16.735090255737305;2.183929443359375;-11.21978759765625;-1.6337890625
1445423552165;36.971588134765625;-97.74066162109375;-16.33045196533203;1.7720489501953125;-9.180007934570312;-1.574951171875
1445423552198;37.009002685546875;-97.65939331054688;-16.18811798095703;1.8308868408203125;-8.336624145507812;-1.5553436279296875
1445423552231;37.65887451171875;-97.8639907836914;-16.077499389648438;2.046630859375;-7.1990509033203125;-1.5945587158203125
1445423552263;37.42205810546875;-98.03946685791016;-16.253965377807617;2.0858612060546875;-7.1990509033203125;-1.1042327880859375
1445423552297;34.884185791015625;-98.60049438476562;-17.047100067138672;2.164306640625;-7.885528564453125;-0.5550537109375
1445423552330;31.971038818359375;-99.22433471679688;-17.74510383605957;3.380340576171875;-9.493820190429688;-1.1042327880859375
1445423552364;30.6966552734375;-99.34345245361328;-18.098529815673828;3.949127197265625;-11.004043579101562;-1.319976806640625
1445423552396;27.386322021484375;-99.31161499023438;-18.85898780822754;3.92950439453125;-11.847412109375;-0.94732666015625
1445423552428;25.615325927734375;-99.17353057861328;-18.98219871520996;4.9101715087890625;-11.200164794921875;-0.633514404296875
1445423552462;23.1949462890625;-98.40230560302734;-18.816125869750977;4.71405029296875;-10.494094848632812;-0.3589324951171875
1445423552495;20.90765380859375;-97.36819458007812;-18.260339736938477;3.1057586669921875;-8.964248657226562;-0.0451202392578125
1445423552528;18.071441650390625;-96.32345581054688;-17.443559646606445;2.5958099365234375;-7.7286224365234375;0.4256134033203125
1445423552561;16.0009765625;-95.69883728027344;-17.0711612701416;2.1446990966796875;-7.6501617431640625;0.8374786376953125
1445423552594;12.4718017578125;-94.4118423461914;-16.42069435119629;2.419281005859375;-7.1402130126953125;1.21014404296875
1445423552627;10.926055908203125;-93.8454818725586;-16.094396591186523;3.439178466796875;-8.846572875976562;1.8966064453125
1445423552660;8.30560302734375;-92.60047149658203;-15.255495071411133;4.1648712158203125;-10.278350830078125;1.26898193359375
1445423552693;6.389984130859375;-90.90039825439453;-14.096437454223633;4.4002227783203125;-11.572830200195312;-0.1627960205078125
1445423552726;5.43792724609375;-89.86356353759766;-13.341331481933594;4.517913818359375;-12.612335205078125;0.30792236328125
1445423552758;2.063751220703125;-87.60514831542969;-11.699811935424805;3.0272979736328125;-12.063156127929688;2.6811370849609375
1445423552794;0.811370849609375;-85.65737915039062;-10.851123809814453;3.3018798828125;-8.473922729492188;0.7001953125
1445423552826;1.051361083984375;-84.98958587646484;-10.789125442504883;2.125091552734375;-7.885528564453125;1.3474273681640625
1445423552858;359.224609375;-83.6622543334961;-11.085878372192383;1.2817230224609375;-8.728897094726562;1.32781982421875
1445423552891;355.9090270996094;-82.83233642578125;-10.86530876159668;0.4579620361328125;-9.925308227539062;1.131683349609375
1445423552929;354.52728271484375;-82.75672149658203;-10.469943046569824;0.301055908203125;-9.729171752929688;0.4844512939453125
1445423552960;353.0323486328125;-82.95635986328125;-9.24278736114502;0.654083251953125;-9.238845825195312;0.8374786376953125
1445423552990;352.6946105957031;-83.52294921875;-8.285411834716797;1.5170745849609375;-10.7098388671875;1.6024017333984375
1445423553023;352.08953857421875;-83.83008575439453;-8.148774147033691;1.673980712890625;-11.886642456054688;1.9946746826171875
1445423553058;348.4945983886719;-84.00443267822266;-8.046270370483398;2.61541748046875;-14.161773681640625;-0.9865570068359375
1445423553089;344.60943603515625;-83.47174835205078;-8.027511596679688;-0.7972869873046875;-12.514266967773438;-0.2020263671875
1445423553123;338.6020812988281;-83.57528686523438;-8.171246528625488;-1.5818328857421875;-11.749343872070312;1.21014404296875
1445423553155;341.53253173828125;-84.35140228271484;-7.084023475646973;3.5960845947265625;-9.219223022460938;1.4258880615234375
1445423553188;341.9339904785156;-84.05582427978516;-6.6808366775512695;3.3607330322265625;-8.179718017578125;-0.4177703857421875
1445423553231;337.171630859375;-83.79108428955078;-6.896214485168457;1.2817230224609375;-7.3363494873046875;-0.4569854736328125
1445423553253;335.78802490234375;-84.409423828125;-7.220974922180176;0.5167999267578125;-6.944091796875;0.7001953125
1445423553292;336.702392578125;-87.13154602050781;-8.126910209655762;0.928680419921875;-7.57171630859375;2.2496490478515625
1445423553320;336.68060302734375;-87.81243896484375;-8.375235557556152;0.8894500732421875;-8.395462036132812;2.46539306640625
1445423553353;332.57830810546875;-88.3876724243164;-9.337384223937988;2.7919464111328125;-15.966201782226562;-2.7713623046875
1445423553386;328.5337219238281;-88.18661499023438;-10.111247062683105;1.3797760009765625;-14.4755859375;-2.20257568359375
1445423553419;326.0117492675781;-90.80542755126953;-10.499089241027832;-2.7586212158203125;-10.905975341796875;2.4261627197265625
1445423553452;327.6028137207031;-92.02597045898438;-9.977405548095703;-0.3657989501953125;-10.7686767578125;2.5438385009765625
1445423553485;326.4193115234375;-91.6830062866211;-9.173766136169434;0.6737060546875;-9.788009643554688;1.876983642578125
1445423553520;318.6104431152344;-90.00580596923828;-9.440950393676758;1.1444244384765625;-9.552658081054688;-0.77081298828125
1445423553551;314.544189453125;-89.45823669433594;-9.925806045532227;2.164306640625;-9.944915771484375;-1.5357208251953125
1445423553584;309.571533203125;-90.07343292236328;-11.35662841796875;2.2819976806640625;-10.062606811523438;-1.2807464599609375
1445423553616;307.6769714355469;-90.6535873413086;-12.261261940002441;2.43890380859375;-10.160659790039062;-0.4569854736328125
1445423553650;303.361328125;-93.08364868164062;-14.573126792907715;1.6543731689453125;-10.003753662109375;0.36676025390625
1445423553684;301.1317443847656;-96.25650024414062;-16.064058303833008;0.8894500732421875;-10.435256958007812;1.190521240234375
1445423553716;299.52978515625;-97.17692565917969;-16.434412002563477;0.2618255615234375;-11.533599853515625;0.759033203125
1445423553752;296.3395080566406;-98.09219360351562;-16.30071258544922;1.0267486572265625;-10.8863525390625;0.0333404541015625
1445423553784;293.70892333984375;-97.90568542480469;-15.169241905212402;1.6347503662109375;-10.08221435546875;-0.2020263671875
1445423553814;291.95745849609375;-97.2616958618164;-14.6104097366333;2.693878173828125;-8.689666748046875;-1.0453948974609375
1445423553848;286.51873779296875;-95.59915924072266;-14.177376747131348;3.380340576171875;-8.689666748046875;-2.3006439208984375
1445423553881;283.38330078125;-95.03768920898438;-14.276559829711914;4.3610076904296875;-8.473922729492188;-2.08489990234375
1445423553914;278.2536926269531;-94.86161804199219;-15.172403335571289;4.4198455810546875;-8.336624145507812;-1.2807464599609375
1445423553947;276.0997619628906;-96.10945892333984;-16.812183380126953;4.4198455810546875;-8.670059204101562;1.014007568359375
1445423553980;277.1540222167969;-98.64180755615234;-18.600574493408203;6.20465087890625;-9.807632446289062;1.014007568359375
1445423554013;277.5594482421875;-99.81781005859375;-19.557048797607422;6.1654205322265625;-9.827239990234375;0.7198028564453125
1445423554046;278.8634033203125;-101.86160278320312;-21.440998077392578;3.7333831787109375;-10.847137451171875;0.58251953125
1445423554079;281.7464294433594;-103.41036987304688;-22.134628295898438;5.3416748046875;-11.043258666992188;-0.3197021484375
1445423554112;282.50341796875;-103.62152862548828;-22.263830184936523;4.9886322021484375;-10.5921630859375;-1.3395843505859375
1445423554145;283.34356689453125;-103.01602172851562;-22.326061248779297;4.6159820556640625;-9.533035278320312;-2.8890380859375
1445423554178;283.3520202636719;-102.37181854248047;-22.305606842041016;3.890289306640625;-7.68939208984375;-2.8694305419921875
1445423554210;283.5452575683594;-101.82518005371094;-22.347347259521484;3.57647705078125;-6.43414306640625;-2.6144561767578125
1445423554244;287.9577331542969;-103.2010498046875;-21.958744049072266;2.183929443359375;-6.2772369384765625;-1.378814697265625
1445423554276;291.40802001953125;-103.72555541992188;-21.330785751342773;1.732818603515625;-6.66949462890625;-0.123565673828125
1445423554310;296.35723876953125;-103.89476013183594;-20.438613891601562;2.3408355712890625;-7.23828125;0.9747772216796875
1445423554343;301.6432800292969;-103.50529479980469;-19.547046661376953;3.890289306640625;-9.376129150390625;1.32781982421875
1445423554375;304.4805603027344;-103.070556640625;-19.11764907836914;4.83172607421875;-11.376693725585938;0.4844512939453125
1445423554409;308.65545654296875;-101.11357879638672;-18.92656707763672;5.5377960205078125;-13.78912353515625;-0.6531219482421875
1445423554442;311.33984375;-99.90850067138672;-18.68739128112793;4.8709564208984375;-12.788848876953125;0.1706390380859375
1445423554475;320.23822021484375;-97.84794616699219;-17.619808197021484;4.184478759765625;-11.690505981445312;0.876708984375
1445423554513;331.4198913574219;-96.3133316040039;-16.31067657470703;2.0074005126953125;-9.00347900390625;2.8772735595703125
1445423554546;341.41339111328125;-94.04515838623047;-15.311761856079102;1.6543731689453125;-7.4148101806640625;2.210418701171875
1445423554574;343.9034118652344;-92.6685562133789;-15.305095672607422;0.7913818359375;-7.5128631591796875;1.190521240234375
1445423554608;348.6620788574219;-91.18778991699219;-15.64854621887207;0.28143310546875;-8.82696533203125;1.582794189453125
1445423554640;352.2835693359375;-90.9457778930664;-15.831881523132324;0.5167999267578125;-9.591873168945312;1.7789306640625
1445423554673;358.1495666503906;-90.33403778076172;-16.176883697509766;0.9482879638671875;-11.317855834960938;1.9750518798828125
1445423554706;0.27325439453125;-89.1856918334961;-16.197134017944336;0.2029876708984375;-13.338027954101562;-0.3589324951171875
1445423554739;2.07275390625;-88.83902740478516;-16.014122009277344;2.2035369873046875;-14.377532958984375;-1.5945587158203125
1445423554773;6.77032470703125;-89.00711059570312;-15.480367660522461;2.2819976806640625;-13.573379516601562;-1.5553436279296875
1445423554807;11.979248046875;-89.58076477050781;-14.861959457397461;2.242767333984375;-9.90570068359375;0.052947998046875
1445423554839;14.97772216796875;-89.88704681396484;-14.73133373260498;2.32122802734375;-6.5322113037109375;1.9750518798828125
1445423554871;20.614501953125;-90.30938720703125;-14.776714324951172;2.1446990966796875;-5.6496124267578125;2.1711883544921875
1445423554904;22.861053466796875;-90.4775161743164;-14.73416519165039;0.04608154296875;-8.1405029296875;2.661529541015625
1445423554937;23.1304931640625;-90.21762084960938;-14.516724586486816;0.0656890869140625;-10.5333251953125;0.4648284912109375
1445423554973;19.53375244140625;-88.79586791992188;-13.516131401062012;-3.621612548828125;-11.33746337890625;0.36676025390625
1445423555003;20.57305908203125;-88.55450439453125;-12.496267318725586;1.0659637451171875;-12.59271240234375;0.07257080078125
1445423555036;25.861083984375;-87.90399169921875;-10.854992866516113;2.0074005126953125;-13.632217407226562;-0.6138916015625
1445423555069;29.22760009765625;-87.20694732666016;-10.195963859558105;0.7521514892578125;-13.455703735351562;0.111785888671875
1445423555104;30.615936279296875;-86.9487075805664;-9.726984977722168;-1.15032958984375;-11.415924072265625;2.0338897705078125
1445423555135;31.75714111328125;-86.02230834960938;-8.650080680847168;-1.2483978271484375;-10.847137451171875;1.9946746826171875
1445423555168;34.643798828125;-84.9157485961914;-7.824365139007568;0.928680419921875;-8.866195678710938;0.9747772216796875
1445423555201;37.658111572265625;-84.47710418701172;-7.356247901916504;1.732818603515625;-7.8462982177734375;0.2294769287109375
1445423555234;43.26702880859375;-83.485107421875;-6.886390686035156;0.6933135986328125;-6.983306884765625;0.30792236328125
1445423555266;48.726104736328125;-83.13081359863281;-6.748030662536621;-0.4246368408203125;-7.434417724609375;0.5432891845703125
1445423555299;51.706695556640625;-83.0005111694336;-6.620439052581787;0.28143310546875;-8.728897094726562;0.641357421875
1445423555334;56.331207275390625;-82.59710693359375;-6.736135482788086;2.242767333984375;-14.514816284179688;-0.6727447509765625
1445423555366;56.590728759765625;-82.25211334228516;-6.9619526863098145;-2.307525634765625;-11.886642456054688;-0.1039581298828125
1445423555399;54.757598876953125;-82.71094512939453;-6.915667533874512;-3.9550323486328125;-11.200164794921875;1.9946746826171875
1445423555432;52.3035888671875;-83.00004577636719;-6.028510570526123;-2.05255126953125;-11.10211181640625;3.857940673828125
1445423555466;51.361724853515625;-82.54120635986328;-5.4534759521484375;1.5170745849609375;-10.866744995117188;1.8377685546875
1445423555499;53.55169677734375;-81.09886932373047;-4.723208427429199;2.811553955078125;-10.396026611328125;-0.5354461669921875
1445423555532;54.8486328125;-80.21016693115234;-5.319173812866211;0.7129364013671875;-8.787734985351562;0.5432891845703125
1445423555565;53.863677978515625;-80.34706115722656;-5.707635402679443;-0.228515625;-7.061767578125;1.131683349609375
1445423555597;50.7989501953125;-80.6390151977539;-5.947020530700684;0.5756378173828125;-7.4540252685546875;0.9747772216796875
1445423555630;49.888275146484375;-80.75249481201172;-6.201038837432861;1.9681854248046875;-9.45458984375;1.4062652587890625
1445423555663;48.77032470703125;-81.10807037353516;-7.033592224121094;1.732818603515625;-10.062606811523438;1.523956298828125
