sep=;
timestamp;gyro-alpha;gyro-beta;gyro-gamma;accel-x;accel-y;accel-z
1445420841065;318.51763916015625;-96.64705657958984;-7.89354944229126;1.438629150390625;-11.553207397460938;3.7010345458984375
1445420841101;318.1763000488281;-92.07994842529297;-7.711904048919678;-1.4837646484375;-11.023651123046875;-0.0451202392578125
1445420841130;317.5112609863281;-90.71587371826172;-7.123439788818359;0.1833648681640625;-10.297958374023438;0.7394256591796875
1445420841164;318.16168212890625;-89.32760620117188;-6.3667378425598145;1.3209381103515625;-9.101547241210938;1.641632080078125
1445420841197;319.818359375;-86.06743621826172;-5.043606758117676;2.0270233154296875;-9.00347900390625;1.190521240234375
1445420841230;321.4613342285156;-82.97675323486328;-4.940093517303467;2.242767333984375;-9.572265625;0.6021270751953125
1445420841264;322.382080078125;-81.68840789794922;-5.215662002563477;0.987518310546875;-9.376129150390625;1.072845458984375
1445420841296;323.4078369140625;-79.11180877685547;-5.928536891937256;0.5756378173828125;-9.258453369140625;1.7985382080078125
1445420841329;324.0174560546875;-76.48804473876953;-6.745955944061279;1.3209381103515625;-9.670333862304688;0.9159393310546875
1445420841361;324.18505859375;-75.25498962402344;-7.284569263458252;1.7720489501953125;-10.415634155273438;1.0336151123046875
1445420841396;324.46844482421875;-73.1806640625;-8.660944938659668;0.8502197265625;-10.5333251953125;1.5435638427734375
1445420841428;324.6756591796875;-72.39019775390625;-9.33607292175293;0.987518310546875;-11.317855834960938;1.56317138671875
1445420841461;325.31878662109375;-71.3045425415039;-10.30198860168457;0.987518310546875;-11.27862548828125;1.5435638427734375
1445420841497;326.08026123046875;-70.91441345214844;-11.088748931884766;1.438629150390625;-11.27862548828125;0.2686920166015625
1445420841528;326.6342468261719;-70.9075698852539;-11.612567901611328;0.28143310546875;-13.67144775390625;-0.2608642578125
1445420841560;326.2623596191406;-71.33330535888672;-11.471019744873047;-0.85614013671875;-14.35791015625;-0.94732666015625
1445420841593;324.86395263671875;-74.29943084716797;-10.489471435546875;0.1245269775390625;-13.122268676757812;-1.712249755859375
1445420841626;324.3162841796875;-77.4183578491211;-10.014941215515137;3.0272979736328125;-11.847412109375;0.7198028564453125
1445420841658;323.15545654296875;-85.19036102294922;-9.28646183013916;4.0471954345703125;-11.847412109375;2.64190673828125
1445420841691;322.7540588378906;-91.92869567871094;-8.950291633605957;4.439453125;-12.435806274414062;1.9358367919921875
1445420841725;322.6834411621094;-94.72279357910156;-8.830035209655762;2.9096221923828125;-10.807907104492188;1.8966064453125
1445420841758;322.3442687988281;-98.83018493652344;-8.050389289855957;2.164306640625;-10.180282592773438;1.9750518798828125
1445420841790;321.2274475097656;-101.98711395263672;-7.098168849945068;1.0659637451171875;-7.57171630859375;0.9159393310546875
1445420841823;319.6247863769531;-104.16255950927734;-6.948400974273682;1.615142822265625;-6.1987762451171875;1.1512908935546875
1445420841856;314.909912109375;-108.11543273925781;-7.51446533203125;2.7919464111328125;-4.865081787109375;1.9946746826171875
1445420841889;312.63470458984375;-109.12569427490234;-8.143019676208496;3.1842041015625;-4.5708770751953125;1.56317138671875
1445420841923;309.78387451171875;-109.19330596923828;-9.147358894348145;3.0272979736328125;-5.29656982421875;0.7001953125
1445420841956;308.2743225097656;-106.40589141845703;-9.697874069213867;2.9684600830078125;-9.356521606445312;-1.96722412109375
1445420841990;307.8267822265625;-104.45536804199219;-9.577625274658203;3.046905517578125;-13.926422119140625;-8.949554443359375
1445420842022;308.42144775390625;-101.86824035644531;-9.04440975189209;3.0272979736328125;-12.9261474609375;-7.94927978515625
1445420842054;305.6355895996094;-102.20404052734375;-9.372204780578613;2.419281005859375;-10.749069213867188;-3.8697052001953125
1445420842088;304.4027404785156;-102.24617767333984;-9.264177322387695;5.6358642578125;-12.53387451171875;-1.6141815185546875
1445420842120;305.0344543457031;-102.9114990234375;-9.557104110717773;4.71405029296875;-11.21978759765625;-0.6138916015625
1445420842154;308.0737609863281;-103.1261978149414;-8.96743392944336;3.81182861328125;-6.9636993408203125;2.6222991943359375
1445420842188;310.4027404785156;-102.39653015136719;-8.354586601257324;4.0471954345703125;-6.8460235595703125;3.583343505859375
1445420842220;314.8817443847656;-98.32949829101562;-7.534255504608154;3.556854248046875;-9.866470336914062;1.9750518798828125
1445420842253;316.7873840332031;-93.21879577636719;-7.143277645111084;-0.326568603515625;-10.847137451171875;2.896881103515625
1445420842285;316.7188720703125;-91.61624145507812;-6.888148784637451;-1.3856964111328125;-10.5333251953125;2.661529541015625
1445420842318;316.8343811035156;-89.85842895507812;-6.422640800476074;0.5756378173828125;-10.435256958007812;1.072845458984375
1445420842352;317.6423034667969;-88.16267395019531;-5.912618637084961;0.6737060546875;-9.533035278320312;1.8377685546875
1445420842385;318.76922607421875;-84.66592407226562;-5.025407314300537;1.41900634765625;-9.180007934570312;1.0336151123046875
1445420842418;320.94354248046875;-81.5318832397461;-4.891101360321045;2.635040283203125;-9.258453369140625;0.896331787109375
1445420842451;322.2903747558594;-80.12212371826172;-5.224844455718994;1.3209381103515625;-9.297683715820312;1.2297515869140625
1445420842484;324.4466247558594;-77.46477508544922;-6.225992679595947;1.12481689453125;-9.434967041015625;1.582794189453125
1445420842516;324.85833740234375;-74.97112274169922;-7.364995002746582;0.7521514892578125;-9.788009643554688;0.621734619140625
1445420842550;324.8923645019531;-73.80120849609375;-7.999417304992676;0.8109893798828125;-10.297958374023438;0.6021270751953125
1445420842583;324.98486328125;-71.68861389160156;-9.265090942382812;0.3206634521484375;-10.8275146484375;1.2297515869140625
1445420842615;325.28216552734375;-70.43597412109375;-10.122689247131348;0.7325439453125;-11.239395141601562;1.0532379150390625
1445420842649;325.65557861328125;-70.19757843017578;-10.440735816955566;0.928680419921875;-11.200164794921875;0.5432891845703125
1445420842681;326.51416015625;-70.05955505371094;-10.868093490600586;1.0267486572265625;-12.41619873046875;0.07257080078125
1445420842715;326.25640869140625;-70.7809066772461;-10.567841529846191;-0.836517333984375;-14.612884521484375;-0.4373779296875
1445420842747;325.6864929199219;-72.00306701660156;-9.923620223999023;0.22259521484375;-13.90679931640625;-0.82965087890625
1445420842781;325.169189453125;-77.68331146240234;-9.034326553344727;3.439178466796875;-12.53387451171875;-0.4177703857421875
1445420842815;325.00811767578125;-81.73609161376953;-8.87360668182373;4.9690093994140625;-12.494644165039062;1.6612396240234375
1445420842847;325.2492370605469;-88.42916107177734;-8.856093406677246;4.066802978515625;-11.553207397460938;1.7985382080078125
1445420842880;325.64813232421875;-91.23834991455078;-8.851431846618652;2.2035369873046875;-10.749069213867188;1.8966064453125
1445420842913;325.85357666015625;-96.37122344970703;-8.520392417907715;1.6935882568359375;-9.06231689453125;2.4261627197265625
1445420842948;325.6263427734375;-100.11370849609375;-7.689937591552734;1.3209381103515625;-8.238555908203125;2.3084869384765625
1445420842978;324.571044921875;-101.92632293701172;-7.273186206817627;1.8701171875;-6.120330810546875;1.9750518798828125
1445420843012;320.6473083496094;-105.7542953491211;-6.724853992462158;2.3408355712890625;-5.35540771484375;2.1319580078125
1445420843050;317.12469482421875;-107.93579864501953;-7.0055012702941895;3.1842041015625;-4.8258514404296875;2.2300262451171875
1445420843078;316.08917236328125;-108.16924285888672;-7.094025135040283;3.4587860107421875;-5.29656982421875;0.9747772216796875
1445420843111;315.552978515625;-106.15898132324219;-6.749656677246094;3.3411102294921875;-6.473358154296875;0.327545166015625
1445420843147;316.55072021484375;-101.15826416015625;-5.873565673828125;2.38006591796875;-13.141891479492188;-6.41943359375
1445420843177;317.621826171875;-98.50558471679688;-5.3577880859375;-0.6207733154296875;-14.142166137695312;-7.635467529296875
1445420843209;317.3036804199219;-96.76368713378906;-4.505975246429443;0.0656890869140625;-12.278900146484375;-4.791534423828125
1445420843244;317.263916015625;-96.92804718017578;-3.796022653579712;5.0474700927734375;-10.6510009765625;-1.319976806640625
1445420843275;318.19085693359375;-97.4090347290039;-4.310995578765869;6.26348876953125;-12.847686767578125;-0.9865570068359375
1445420843309;322.8355407714844;-97.40866088867188;-5.275435924530029;6.26348876953125;-12.043548583984375;0.1510162353515625
1445420843341;325.18255615234375;-97.0510025024414;-4.898900985717773;3.4195709228515625;-5.1985015869140625;5.48583984375
1445420843375;327.771240234375;-95.41259765625;-3.707549571990967;4.007965087890625;-6.0222625732421875;5.03472900390625
1445420843408;331.50518798828125;-90.8912582397461;-4.0547051429748535;3.615692138671875;-11.298233032226562;3.5048980712890625
1445420843441;335.3137512207031;-87.5037841796875;-3.491269111633301;0.928680419921875;-11.592437744140625;2.7399749755859375
1445420843473;338.03448486328125;-86.26102447509766;-2.9495625495910645;1.12481689453125;-10.866744995117188;2.1907958984375
1445420843507;343.3966064453125;-83.4135971069336;-2.2306082248687744;1.615142822265625;-9.3369140625;4.093292236328125
1445420843539;346.53533935546875;-81.93704223632812;-2.2962446212768555;0.7717742919921875;-10.239120483398438;2.092742919921875
1445420843572;351.9786071777344;-79.67198181152344;-2.839826822280884;0.0068511962890625;-10.807907104492188;1.6024017333984375
1445420843606;357.2185363769531;-77.51348876953125;-2.8230443000793457;-0.522705078125;-10.5333251953125;1.9946746826171875
1445420843639;359.4541015625;-76.39559936523438;-2.8808867931365967;0.7913818359375;-9.866470336914062;1.014007568359375
1445420843671;4.074005126953125;-75.19774627685547;-3.8749091625213623;2.2035369873046875;-9.748779296875;0.4844512939453125
1445420843704;6.799774169921875;-74.97511291503906;-4.727530002593994;2.2035369873046875;-8.748504638671875;0.994384765625
1445420843737;12.844146728515625;-74.99420928955078;-6.284792900085449;-0.01275634765625;-8.571990966796875;1.56317138671875
1445420843771;19.394073486328125;-75.67092895507812;-6.5617995262146;-4.68072509765625;-9.238845825195312;1.1709136962890625
1445420843803;26.814697265625;-77.67134857177734;-6.950171947479248;0.34027099609375;-10.180282592773438;-2.339874267578125
1445420843836;29.856414794921875;-79.10468292236328;-7.302580833435059;3.2822723388671875;-13.004592895507812;-0.88848876953125
1445420843870;36.2894287109375;-82.53812408447266;-8.23621654510498;5.4005126953125;-11.729736328125;-1.261138916015625
1445420843903;43.361541748046875;-86.72745513916016;-10.718233108520508;7.22454833984375;-12.220062255859375;2.64190673828125
1445420843936;47.233245849609375;-88.60382843017578;-11.741462707519531;5.6358642578125;-11.886642456054688;2.386932373046875
1445420843969;53.677276611328125;-91.61678314208984;-13.264801025390625;4.6748199462890625;-10.160659790039062;0.9747772216796875
1445420844002;56.381988525390625;-92.96525573730469;-14.018627166748047;3.6549224853515625;-8.4346923828125;-0.0254974365234375
1445420844034;60.926055908203125;-95.03897094726562;-15.720864295959473;2.870391845703125;-8.218948364257812;-0.064727783203125
1445420844067;63.97149658203125;-96.98316955566406;-17.8587589263916;2.5761871337890625;-7.74822998046875;0.6021270751953125
1445420844108;66.45843505859375;-99.07598876953125;-20.33340835571289;2.870391845703125;-7.2186737060546875;0.2098541259765625
1445420844135;67.50588989257812;-99.74503326416016;-21.50770378112793;3.2430419921875;-7.257904052734375;-0.123565673828125
1445420844169;69.762451171875;-100.10796356201172;-23.221649169921875;3.321502685546875;-8.081649780273438;-0.633514404296875
1445420844199;71.1669921875;-99.8755111694336;-23.62623405456543;2.49774169921875;-8.415084838867188;-1.0453948974609375
1445420844238;74.28921508789062;-98.78944396972656;-23.549060821533203;1.046356201171875;-8.415084838867188;-1.7318572998046875
1445420844266;76.43270874023438;-98.29341888427734;-23.004074096679688;1.75244140625;-9.552658081054688;-3.3597564697265625
1445420844299;81.06668090820312;-97.32078552246094;-21.20458984375;2.0270233154296875;-10.729446411132812;-4.5561676025390625
1445420844332;82.42971801757812;-96.65424346923828;-20.22466468811035;1.53668212890625;-10.905975341796875;-5.4976043701171875
1445420844364;84.00140380859375;-96.06718444824219;-18.62116050720215;1.2817230224609375;-9.925308227539062;-5.55645751953125
1445420844397;84.70562744140625;-96.58755493164062;-17.624765396118164;1.791656494140625;-8.238555908203125;-5.3406982421875
1445420844431;84.8580322265625;-96.82268524169922;-17.438785552978516;6.224273681640625;-8.866195678710938;-1.6337890625
1445420844463;85.990966796875;-96.91670989990234;-18.105857849121094;8.322891235351562;-11.572830200195312;-1.261138916015625
1445420844497;87.75863647460938;-95.45838928222656;-18.386137008666992;4.8513336181640625;-10.31756591796875;1.26898193359375
1445420844529;88.83993530273438;-94.9913330078125;-17.9130859375;2.8507843017578125;-8.415084838867188;5.113189697265625
1445420844563;93.50244140625;-92.02096557617188;-16.600170135498047;2.811553955078125;-9.513427734375;4.5640106201171875
1445420844596;97.36026000976562;-88.51622009277344;-14.95142650604248;1.811279296875;-10.219512939453125;3.1322479248046875
1445420844628;98.79544067382812;-87.10179138183594;-14.123988151550293;1.3405609130859375;-10.278350830078125;2.1907958984375
1445420844661;102.24237060546875;-84.55885314941406;-12.731401443481445;1.438629150390625;-9.96453857421875;1.8573760986328125
1445420844696;107.07223510742188;-82.35004425048828;-11.92912769317627;0.5167999267578125;-9.846847534179688;1.641632080078125
1445420844728;109.302490234375;-81.32135772705078;-11.537450790405273;-0.01275634765625;-10.19989013671875;1.3670501708984375
1445420844761;113.87478637695312;-79.09993743896484;-10.925457954406738;-0.0519866943359375;-10.337188720703125;1.1512908935546875
1445420844794;117.89112854003906;-77.46788024902344;-10.612895011901855;0.2618255615234375;-10.415634155273438;0.386383056640625
1445420844827;119.869140625;-76.81376647949219;-10.620586395263672;0.5167999267578125;-10.160659790039062;0.621734619140625
1445420844860;123.39041137695312;-75.72694396972656;-10.981064796447754;1.3993988037109375;-9.533035278320312;1.465118408203125
1445420844895;124.74868774414062;-74.53042602539062;-11.801575660705566;0.987518310546875;-9.591873168945312;1.1709136962890625
1445420844927;125.28033447265625;-73.86817932128906;-12.378471374511719;0.536407470703125;-9.984146118164062;1.523956298828125
1445420844960;126.619384765625;-72.69937133789062;-13.318367004394531;0.7325439453125;-10.788284301757812;1.44549560546875
1445420844992;128.4379425048828;-71.62296295166016;-14.275128364562988;1.24249267578125;-11.200164794921875;0.327545166015625
1445420845024;129.46800231933594;-71.28849029541016;-14.87108325958252;1.2032623291015625;-11.10211181640625;0.19024658203125
1445420845057;131.446044921875;-71.09906768798828;-15.739730834960938;-0.777679443359375;-12.749618530273438;0.81787109375
1445420845090;131.8592987060547;-71.2821044921875;-15.593619346618652;1.75244140625;-12.886917114257812;-0.5942840576171875
1445420845124;131.94793701171875;-72.76078796386719;-14.399072647094727;2.4585113525390625;-11.886642456054688;-0.9669342041015625
1445420845157;132.92803955078125;-77.30804443359375;-13.702583312988281;3.51763916015625;-12.65155029296875;-0.5942840576171875
1445420845190;133.46746826171875;-80.50716400146484;-13.50913143157959;3.2822723388671875;-12.121994018554688;2.75958251953125
1445420845223;133.29710388183594;-87.2405776977539;-13.148039817810059;3.1253662109375;-11.553207397460938;2.9164886474609375
1445420845255;133.3941650390625;-90.06010437011719;-13.03809928894043;3.5960845947265625;-10.6510009765625;1.8377685546875
1445420845289;133.40000915527344;-94.9251480102539;-13.483744621276855;2.9684600830078125;-10.101821899414062;1.26898193359375
1445420845321;133.0912628173828;-99.54524993896484;-13.640229225158691;1.3405609130859375;-9.768402099609375;1.582794189453125
1445420845354;132.748046875;-102.03287506103516;-13.18889331817627;0.7717742919921875;-8.120880126953125;1.5435638427734375
1445420845388;128.97129821777344;-106.0511245727539;-12.608192443847656;1.105194091796875;-6.944091796875;1.6808624267578125
1445420845421;123.76475524902344;-108.5283432006836;-13.217412948608398;2.8899993896484375;-5.218109130859375;2.8184356689453125
1445420845454;121.54116821289062;-109.02106475830078;-13.667001724243164;3.321502685546875;-4.649322509765625;2.896881103515625
1445420845488;118.64018249511719;-108.72289276123047;-14.225096702575684;2.752716064453125;-5.492706298828125;0.6609649658203125
1445420845519;117.61050415039062;-105.97441101074219;-13.856582641601562;1.673980712890625;-13.455703735351562;-7.10589599609375
1445420845552;118.02487182617188;-104.47172546386719;-13.479927062988281;2.9684600830078125;-13.122268676757812;-10.204803466796875
1445420845585;116.10801696777344;-104.54438781738281;-13.718667984008789;1.9485626220703125;-10.9451904296875;-7.04705810546875
1445420845619;112.38082885742188;-104.92247009277344;-14.147811889648438;4.7336578369140625;-8.94464111328125;-2.1241302490234375
1445420845651;112.51809692382812;-105.03257751464844;-14.584510803222656;6.3811798095703125;-10.376419067382812;0.9747772216796875
1445420845685;114.66384887695312;-104.7607192993164;-15.175126075744629;5.00823974609375;-10.631378173828125;-0.3589324951171875
1445420845718;118.22705078125;-103.45743560791016;-14.19719123840332;3.4784088134765625;-7.92474365234375;3.0341796875
1445420845750;120.36203002929688;-101.7502670288086;-13.707924842834473;3.3607330322265625;-7.57171630859375;3.642181396484375
1445420845784;124.21163940429688;-96.7913818359375;-13.09619426727295;1.9681854248046875;-10.239120483398438;2.2496490478515625
1445420845816;124.68533325195312;-94.24560546875;-12.966123580932617;-0.542327880859375;-10.984420776367188;2.52423095703125
1445420845850;124.4288330078125;-91.78367614746094;-12.881915092468262;-0.1696624755859375;-10.180282592773438;1.1512908935546875
1445420845883;125.02169799804688;-89.82733154296875;-12.539010047912598;1.2621002197265625;-10.121444702148438;0.9747772216796875
1445420845916;125.9783935546875;-88.35629272460938;-12.160579681396484;0.4971771240234375;-9.827239990234375;1.1120758056640625
1445420845949;127.34645080566406;-85.6087646484375;-11.512381553649902;0.6933135986328125;-9.572265625;0.504058837890625
1445420845981;129.189208984375;-82.89796447753906;-11.269511222839355;1.75244140625;-9.140777587890625;1.0532379150390625
1445420846018;129.96377563476562;-81.58415222167969;-11.443533897399902;2.360443115234375;-9.140777587890625;0.8571014404296875
1445420846047;131.40113830566406;-79.15937805175781;-12.41573715209961;1.3405609130859375;-9.846847534179688;0.6609649658203125
1445420846080;132.00865173339844;-76.98702239990234;-13.679266929626465;-0.2481231689453125;-10.5921630859375;1.4258880615234375
1445420846118;132.36676025390625;-76.0247802734375;-14.305185317993164;0.7913818359375;-11.435531616210938;0.641357421875
1445420846147;133.25767517089844;-74.08626556396484;-15.420331001281738;0.9090576171875;-11.612045288085938;0.504058837890625
1445420846179;133.8280487060547;-73.54003143310547;-16.0526180267334;0.477569580078125;-11.474761962890625;-1.00616455078125
1445420846213;135.72845458984375;-73.7716293334961;-17.022541046142578;-0.1108245849609375;-13.357635498046875;-0.1627960205078125
1445420846245;136.36268615722656;-74.6978759765625;-16.902162551879883;-0.3069610595703125;-14.455978393554688;-1.496490478515625
1445420846280;136.05352783203125;-75.86370086669922;-16.343782424926758;3.1842041015625;-12.612335205078125;0.0333404541015625
1445420846314;135.52146911621094;-80.87680053710938;-15.109944343566895;4.184478759765625;-12.769241333007812;2.5438385009765625
1445420846345;134.42681884765625;-86.75629425048828;-14.128056526184082;4.9886322021484375;-11.90625;2.46539306640625
1445420846381;134.0153350830078;-89.27477264404297;-13.75015926361084;3.9098968505859375;-11.200164794921875;0.81787109375
1445420846413;133.4542236328125;-94.55352020263672;-13.255513191223145;3.380340576171875;-10.552932739257812;0.935546875
1445420846445;133.19876098632812;-98.99959564208984;-12.275741577148438;2.7134857177734375;-9.101547241210938;1.56317138671875
1445420846479;132.97999572753906;-100.65196990966797;-11.880255699157715;1.791656494140625;-7.1009979248046875;1.759307861328125
1445420846513;130.93702697753906;-104.62804412841797;-11.465275764465332;1.6347503662109375;-6.4537506103515625;1.700469970703125
1445420846543;128.92543029785156;-106.86447143554688;-11.442129135131836;2.419281005859375;-5.5123138427734375;2.1907958984375
1445420846578;124.63290405273438;-109.4461898803711;-12.139498710632324;2.811553955078125;-4.904296875;2.328094482421875
1445420846612;121.10067749023438;-109.66557312011719;-13.182103157043457;2.2035369873046875;-4.923919677734375;1.014007568359375
1445420846641;119.18110656738281;-108.52252197265625;-13.63121223449707;1.36016845703125;-10.239120483398438;-3.1047821044921875
1445420846675;117.06680297851562;-104.9168701171875;-12.900165557861328;1.8308868408203125;-15.338577270507812;-8.674972534179688
1445420846708;116.0977783203125;-103.66252136230469;-11.950967788696289;3.3411102294921875;-12.063156127929688;-7.1451263427734375
1445420846741;114.51412963867188;-104.0279312133789;-11.932258605957031;2.870391845703125;-10.121444702148438;-3.889312744140625
1445420846774;111.829833984375;-104.07270812988281;-11.951138496398926;5.00823974609375;-10.042984008789062;-3.261688232421875
1445420846806;111.03616333007812;-104.3309097290039;-12.526307106018066;5.263214111328125;-12.239669799804688;-0.88848876953125
1445420846840;111.07485961914062;-104.383056640625;-13.212221145629883;4.9297943115234375;-9.96453857421875;0.562896728515625
1445420846873;114.24581909179688;-104.08684539794922;-12.367008209228516;4.007965087890625;-5.9830322265625;3.89715576171875
1445420846906;115.78216552734375;-102.7706298828125;-11.9597749710083;3.4195709228515625;-9.081939697265625;3.66180419921875
1445420846938;118.46640014648438;-97.38593292236328;-11.576258659362793;2.3996734619140625;-11.494369506835938;2.092742919921875
1445420846972;118.39547729492188;-93.62447357177734;-11.145964622497559;-1.5426025390625;-10.9451904296875;2.2496490478515625
1445420847004;118.00515747070312;-92.89913940429688;-10.971789360046387;0.7129364013671875;-10.25872802734375;0.4059906005859375
1445420847038;118.13386535644531;-90.30311584472656;-10.2705659866333;0.869842529296875;-9.925308227539062;1.072845458984375
1445420847070;119.27775573730469;-86.96194458007812;-9.398191452026367;0.3206634521484375;-9.493820190429688;1.465118408203125
1445420847104;120.07574462890625;-85.4585189819336;-9.120519638061523;2.32122802734375;-9.199615478515625;1.2297515869140625
1445420847136;122.22372436523438;-82.71165466308594;-9.150211334228516;2.301605224609375;-9.101547241210938;1.4062652587890625
1445420847170;124.24851989746094;-80.1767349243164;-9.96380615234375;1.3797760009765625;-9.709564208984375;1.3670501708984375
1445420847203;124.60423278808594;-78.93482971191406;-10.533055305480957;0.8306121826171875;-10.003753662109375;1.0336151123046875
1445420847235;125.03216552734375;-76.57273864746094;-11.83533763885498;0.16375732421875;-10.984420776367188;1.0532379150390625
1445420847268;125.46914672851562;-75.47322082519531;-12.468533515930176;1.0855865478515625;-11.298233032226562;0.562896728515625
1445420847301;126.68008422851562;-73.92573547363281;-13.627015113830566;0.9482879638671875;-11.435531616210938;1.0336151123046875
1445420847335;128.07553100585938;-73.3829116821289;-14.612658500671387;0.9090576171875;-10.866744995117188;0.13140869140625
1445420847367;128.8151397705078;-73.41581726074219;-14.861940383911133;0.1441497802734375;-13.239959716796875;0.0921783447265625
1445420847401;129.81033325195312;-73.8998031616211;-15.146136283874512;-0.9345855712890625;-14.024490356445312;0.2098541259765625
1445420847434;129.5431671142578;-76.55260467529297;-14.169856071472168;1.3993988037109375;-12.200454711914062;-1.084625244140625
1445420847467;129.0567169189453;-78.9923324584961;-13.500152587890625;3.9687347412109375;-12.239669799804688;0.562896728515625
1445420847500;128.27719116210938;-85.76679229736328;-12.648710250854492;4.576751708984375;-12.71038818359375;2.4261627197265625
1445420847534;127.64169311523438;-92.62643432617188;-12.092851638793945;4.066802978515625;-12.337738037109375;1.56317138671875
1445420847567;127.1746826171875;-95.35005950927734;-11.761026382446289;3.7725982666015625;-12.02392578125;1.26898193359375
1445420847599;125.81787109375;-100.04291534423828;-11.00033950805664;1.7720489501953125;-10.847137451171875;1.32781982421875
1445420847634;125.35244750976562;-102.06486511230469;-10.198795318603516;1.2817230224609375;-9.101547241210938;1.4062652587890625
1445420847665;123.43496704101562;-105.41383361816406;-9.20767593383789;1.0855865478515625;-7.80706787109375;1.2297515869140625
1445420847700;118.37886047363281;-109.56629180908203;-9.547947883605957;1.9485626220703125;-5.8261260986328125;1.759307861328125
1445420847731;113.04182434082031;-111.68397521972656;-10.876285552978516;2.73309326171875;-4.7473907470703125;2.269256591796875
1445420847763;110.60235595703125;-111.88272094726562;-11.641863822937012;2.7919464111328125;-4.590484619140625;2.46539306640625
1445420847798;107.17901611328125;-110.60154724121094;-12.697464942932129;2.67425537109375;-5.4338531494140625;0.621734619140625
1445420847830;105.95124816894531;-108.89557647705078;-12.898293495178223;2.2819976806640625;-11.886642456054688;-4.9876708984375
1445420847863;105.24560546875;-104.6395492553711;-12.269959449768066;3.4195709228515625;-16.319244384765625;-9.694854736328125
1445420847895;105.17556762695312;-104.6781997680664;-12.05062198638916;2.9096221923828125;-12.788848876953125;-7.870819091796875
1445420847933;103.05026245117188;-105.11563110351562;-12.381343841552734;3.7725982666015625;-9.925308227539062;-3.3009185791015625
1445420847964;100.43414306640625;-105.7640380859375;-12.721799850463867;4.635589599609375;-11.572830200195312;-2.692901611328125
1445420847995;100.56884765625;-106.15583801269531;-12.950861930847168;4.753265380859375;-9.788009643554688;0.7786407470703125
1445420848032;102.21273803710938;-106.25454711914062;-12.51976490020752;3.51763916015625;-6.3360748291015625;4.603240966796875
1445420848063;104.72286987304688;-104.12239074707031;-11.63622760772705;3.556854248046875;-7.0029296875;4.8974456787109375
1445420848094;106.33853149414062;-101.81182861328125;-11.369071960449219;2.61541748046875;-11.376693725585938;2.0338897705078125
1445420848133;107.02667236328125;-96.4010009765625;-11.141273498535156;-1.5622100830078125;-10.749069213867188;2.1319580078125
1445420848162;105.98262023925781;-94.25487518310547;-10.3321533203125;-1.287628173828125;-10.572540283203125;0.2686920166015625
1445420848194;105.718505859375;-92.91702270507812;-9.868814468383789;1.41900634765625;-9.513427734375;1.4847259521484375
1445420848227;106.1153564453125;-89.56228637695312;-8.598271369934082;1.5955352783203125;-9.611495971679688;1.26898193359375
1445420848263;107.62498474121094;-86.80225372314453;-8.022089004516602;2.7723236083984375;-9.650726318359375;0.58251953125
1445420848293;108.68995666503906;-85.50749969482422;-8.040204048156738;2.2623748779296875;-9.3369140625;0.994384765625
1445420848324;110.25602722167969;-83.06104278564453;-8.746763229370117;1.438629150390625;-9.474197387695312;1.6220245361328125
1445420848357;110.96615600585938;-80.6175765991211;-9.792487144470215;0.595245361328125;-9.984146118164062;1.1512908935546875
1445420848391;111.05130004882812;-79.34738159179688;-10.383424758911133;1.12481689453125;-10.415634155273438;0.621734619140625
1445420848424;111.29061889648438;-76.71348571777344;-11.82198429107666;0.9482879638671875;-10.415634155273438;0.896331787109375
1445420848456;111.72732543945312;-75.68192291259766;-12.605245590209961;0.22259521484375;-10.905975341796875;0.81787109375
1445420848489;112.84886169433594;-74.69718170166016;-13.49027156829834;-0.2481231689453125;-11.200164794921875;1.3670501708984375
1445420848522;114.52793884277344;-74.83039855957031;-13.729758262634277;1.30133056640625;-11.592437744140625;-0.515838623046875
1445420848556;115.38970947265625;-75.02079772949219;-13.822071075439453;-1.3268585205078125;-14.12255859375;-0.9080963134765625
1445420848589;116.3223876953125;-76.52099609375;-13.726131439208984;-1.228790283203125;-13.985260009765625;-0.94732666015625
1445420848621;115.42575073242188;-80.9354019165039;-12.603174209594727;2.5958099365234375;-12.180831909179688;0.07257080078125
1445420848657;114.52290344238281;-84.30828857421875;-11.950480461120605;5.086700439453125;-12.631942749023438;2.9361114501953125
1445420848688;112.9317626953125;-91.32512664794922;-11.06887149810791;5.3416748046875;-12.730010986328125;2.5634613037109375
1445420848721;111.11196899414062;-96.83915710449219;-11.025237083435059;3.1645965576171875;-11.827789306640625;1.0532379150390625
1445420848754;110.086669921875;-99.24666595458984;-11.136463165283203;1.53668212890625;-10.788284301757812;1.0532379150390625
1445420848787;108.10054016113281;-103.66233825683594;-10.627606391906738;0.8109893798828125;-9.768402099609375;1.50433349609375
1445420848819;107.09257507324219;-105.56107330322266;-10.298664093017578;0.928680419921875;-8.2581787109375;0.8374786376953125
1445420848852;103.9359130859375;-108.91860961914062;-9.981135368347168;1.0071258544921875;-7.5913238525390625;1.1709136962890625
1445420848886;98.49478149414062;-111.32119750976562;-10.743328094482422;1.8308868408203125;-6.2576141357421875;1.582794189453125
1445420848919;95.74981689453125;-111.92059326171875;-11.439286231994629;2.2623748779296875;-5.8065185546875;1.2885894775390625
1445420848952;90.58502197265625;-111.65856170654297;-12.94410514831543;1.8701171875;-6.061492919921875;0.2883148193359375
1445420848984;88.03030395507812;-110.85990905761719;-13.565126419067383;1.30133056640625;-9.297683715820312;-3.1047821044921875
1445420849018;82.393798828125;-107.34510040283203;-14.93307876586914;3.321502685546875;-13.749893188476562;-5.96832275390625
1445420849052;76.8314208984375;-103.73637390136719;-16.80298614501953;3.6745452880859375;-12.59271240234375;-4.2031402587890625
1445420849083;71.05120849609375;-103.5430679321289;-18.35189437866211;3.7137603759765625;-8.101272583007812;-3.4185943603515625
1445420849116;67.47329711914062;-103.8956298828125;-18.938800811767578;3.0861358642578125;-6.5322113037109375;-1.496490478515625
1445420849149;63.306182861328125;-104.94868469238281;-19.04344367980957;5.4789581298828125;-12.161224365234375;1.9358367919921875
1445420849182;62.2388916015625;-104.30123138427734;-19.367334365844727;5.4985809326171875;-12.867294311523438;-0.9669342041015625
1445420849215;61.78143310546875;-104.6034164428711;-19.633037567138672;3.4195709228515625;-8.689666748046875;2.3673248291015625
1445420849249;59.02886962890625;-103.34412384033203;-19.757957458496094;1.732818603515625;-8.415084838867188;2.8772735595703125
1445420849281;55.438751220703125;-101.27992248535156;-20.81778907775879;-1.7779541015625;-11.690505981445312;0.13140869140625
1445420849315;49.856170654296875;-98.0303955078125;-21.549049377441406;-1.1307220458984375;-11.062881469726562;0.9747772216796875
1445420849348;47.64874267578125;-95.54002380371094;-19.959566116333008;2.046630859375;-9.45458984375;0.680572509765625
1445420849380;46.28448486328125;-93.77210235595703;-19.425935745239258;3.7137603759765625;-8.513153076171875;0.327545166015625
1445420849413;42.208465576171875;-90.29620361328125;-19.421844482421875;3.0861358642578125;-8.983871459960938;0.2294769287109375
1445420849446;36.7437744140625;-87.16117858886719;-19.802331924438477;2.066253662109375;-10.160659790039062;-0.182403564453125
1445420849479;34.68310546875;-85.72017669677734;-19.96246910095215;1.0659637451171875;-10.08221435546875;0.876708984375
1445420849513;31.6348876953125;-83.20628356933594;-20.247224807739258;0.987518310546875;-9.886077880859375;1.465118408203125
1445420849547;30.41961669921875;-82.05272674560547;-20.346878051757812;1.3405609130859375;-9.709564208984375;1.8377685546875
1445420849578;28.426666259765625;-79.71739196777344;-20.459192276000977;2.1446990966796875;-10.160659790039062;1.32781982421875
1445420849611;26.15057373046875;-77.49533081054688;-20.46938705444336;2.870391845703125;-11.16094970703125;0.386383056640625
1445420849645;24.275604248046875;-76.20008087158203;-20.64121437072754;1.046356201171875;-11.317855834960938;0.0333404541015625
1445420849678;22.51495361328125;-75.87582397460938;-20.575542449951172;-0.58154296875;-12.161224365234375;0.01373291015625
1445420849711;18.297454833984375;-76.52589416503906;-20.067310333251953;-0.7972869873046875;-14.514816284179688;-0.005889892578125
1445420849745;13.739044189453125;-79.1197738647461;-19.761381149291992;-0.3069610595703125;-13.122268676757812;-0.4766082763671875
1445420849778;11.166015625;-81.3185806274414;-19.79490089416504;-0.3069610595703125;-12.200454711914062;-0.123565673828125
1445420849813;4.89337158203125;-87.297119140625;-19.95246696472168;-0.1304473876953125;-12.9261474609375;1.8966064453125
1445420849846;1.06146240234375;-90.28628540039062;-20.18048095703125;-1.7583465576171875;-13.396865844726562;3.66180419921875
1445420849875;353.88018798828125;-95.28340148925781;-20.32476043701172;-1.6406707763671875;-12.945755004882812;4.603240966796875
1445420849909;348.89971923828125;-99.25446319580078;-19.23000717163086;-0.718841552734375;-11.298233032226562;3.4460601806640625
1445420849942;346.75250244140625;-100.44799041748047;-18.46633529663086;0.359893798828125;-10.729446411132812;2.328094482421875
1445420849975;340.7039489746094;-102.44291687011719;-17.587949752807617;0.654083251953125;-10.396026611328125;1.0336151123046875
1445420850007;331.6394348144531;-104.95692443847656;-17.272802352905273;0.2618255615234375;-10.239120483398438;1.7985382080078125
1445420850040;326.5931396484375;-106.15135192871094;-17.31039047241211;0.2618255615234375;-10.239120483398438;2.64190673828125
1445420850073;317.2012023925781;-108.16596984863281;-17.193078994750977;2.1446990966796875;-9.3369140625;2.9361114501953125
1445420850107;312.90869140625;-108.69380950927734;-17.1647891998291;4.145263671875;-7.1990509033203125;2.75958251953125
1445420850140;305.905517578125;-108.86361694335938;-17.017518997192383;4.71405029296875;-6.37530517578125;2.386932373046875
1445420850172;301.5550842285156;-107.5355224609375;-16.69742202758789;5.1847686767578125;-5.8653564453125;0.759033203125
1445420850206;299.87298583984375;-106.30857849121094;-16.67078399658203;3.949127197265625;-8.003204345703125;-1.0453948974609375
1445420850239;297.2034606933594;-102.88340759277344;-16.959915161132812;3.046905517578125;-11.51397705078125;-5.4976043701171875
1445420850272;292.69708251953125;-101.55573272705078;-17.65837287902832;2.929229736328125;-13.749893188476562;-7.3216400146484375
1445420850304;289.8236083984375;-102.82810974121094;-17.81364631652832;2.183929443359375;-11.690505981445312;-5.4387664794921875
1445420850337;285.9607849121094;-104.59492492675781;-17.280975341796875;1.3405609130859375;-8.82696533203125;-1.437652587890625
1445420850370;286.2106018066406;-105.11544036865234;-16.863637924194336;6.89111328125;-9.317291259765625;0.504058837890625
1445420850403;289.941650390625;-104.72808837890625;-16.120141983032227;6.14581298828125;-9.317291259765625;1.249359130859375
1445420850436;294.6396484375;-103.57616424560547;-15.872518539428711;3.9098968505859375;-8.120880126953125;3.9952239990234375
1445420850469;296.28314208984375;-101.85981750488281;-15.651033401489258;2.55657958984375;-11.10211181640625;2.2496490478515625
1445420850502;297.8924560546875;-95.70378112792969;-15.69714069366455;0.7521514892578125;-10.905975341796875;2.504608154296875
1445420850535;296.62060546875;-92.6080322265625;-15.856195449829102;-0.8169097900390625;-10.729446411132812;-0.064727783203125
1445420850570;296.0594482421875;-91.80561065673828;-15.64063549041748;-0.150054931640625;-10.7098388671875;0.81787109375
1445420850602;297.5066223144531;-89.07211303710938;-14.187801361083984;0.595245361328125;-9.356521606445312;0.052947998046875
1445420850634;299.2546691894531;-86.09989166259766;-13.12175464630127;2.73309326171875;-8.807342529296875;-0.3393096923828125
1445420850668;299.0323486328125;-84.66162109375;-12.99846363067627;2.0074005126953125;-9.90570068359375;-0.692352294921875
1445420850701;298.00457763671875;-82.25506591796875;-12.659906387329102;0.477569580078125;-10.396026611328125;0.01373291015625
1445420850734;298.7789611816406;-81.5518798828125;-12.248176574707031;2.419281005859375;-8.807342529296875;2.8772735595703125
1445420850767;299.61383056640625;-80.0289306640625;-12.081769943237305;3.262664794921875;-8.356246948242188;2.9949493408203125
1445420850800;298.24432373046875;-77.83064270019531;-13.084444999694824;2.5173492431640625;-9.768402099609375;1.7200775146484375
1445420850833;297.9902648925781;-76.73680877685547;-13.730500221252441;1.2817230224609375;-11.023651123046875;1.249359130859375
1445420850866;298.111083984375;-74.59033203125;-14.775842666625977;0.5756378173828125;-11.886642456054688;0.876708984375
1445420850899;298.7460021972656;-74.1204605102539;-15.152206420898438;1.41900634765625;-11.51397705078125;-0.2608642578125
1445420850933;299.5318603515625;-74.29454040527344;-15.325778007507324;0.22259521484375;-13.73028564453125;-1.202301025390625
1445420850965;299.5757141113281;-75.01048278808594;-15.517158508300781;-0.954193115234375;-14.279464721679688;-1.75146484375
1445420850998;298.7871398925781;-75.85465240478516;-15.288253784179688;0.0853118896484375;-13.49493408203125;-1.810302734375
1445420851031;296.96673583984375;-80.05438232421875;-14.568890571594238;2.419281005859375;-12.043548583984375;0.4844512939453125
1445420851064;296.2719421386719;-87.79293823242188;-13.840620994567871;3.949127197265625;-12.514266967773438;3.347991943359375
1445420851098;295.99371337890625;-91.19638061523438;-13.761449813842773;3.3999481201171875;-11.45513916015625;2.9361114501953125
1445420851129;295.9079895019531;-96.22772216796875;-13.638192176818848;2.4781341552734375;-11.023651123046875;1.7397003173828125
1445420851162;295.7572326660156;-100.35820770263672;-12.599061012268066;0.5167999267578125;-10.670608520507812;1.26898193359375
1445420851197;295.6800537109375;-101.94837188720703;-11.593242645263672;0.0853118896484375;-9.709564208984375;1.6220245361328125
1445420851228;293.2078857421875;-104.72260284423828;-10.20757007598877;0.418731689453125;-8.5523681640625;1.6612396240234375
1445420851262;287.7524719238281;-107.90048217773438;-10.091958999633789;1.928955078125;-6.2183990478515625;1.9750518798828125
1445420851295;284.7903137207031;-108.86006927490234;-10.528508186340332;2.752716064453125;-5.3946380615234375;2.6026763916015625
1445420851327;280.5340576171875;-109.06040954589844;-11.461677551269531;3.1253662109375;-5.276947021484375;2.386932373046875
1445420851364;278.1148681640625;-107.11158752441406;-11.841293334960938;3.0076904296875;-6.296844482421875;0.5236663818359375
1445420851397;277.04022216796875;-103.33921813964844;-11.11292552947998;3.1645965576171875;-12.004318237304688;-5.8114166259765625
1445420851428;277.0274353027344;-101.98128509521484;-10.675589561462402;2.2035369873046875;-14.612884521484375;-8.910324096679688
1445420851460;273.709228515625;-102.1884536743164;-10.501350402832031;0.2618255615234375;-10.984420776367188;-4.9876708984375
1445420851492;271.5024719238281;-102.96659088134766;-10.23983383178711;0.22259521484375;-8.238555908203125;-3.9677734375
1445420851525;269.5785217285156;-104.05754852294922;-10.142904281616211;3.3607330322265625;-12.749618530273438;-0.5354461669921875
1445420851558;269.6072998046875;-103.78520202636719;-10.445551872253418;7.8914031982421875;-10.9451904296875;-0.5354461669921875
1445420851594;273.2244873046875;-103.01925659179688;-10.771415710449219;5.5770263671875;-5.276947021484375;4.7405242919921875
1445420851624;277.056396484375;-102.37511444091797;-10.606534004211426;4.7924957275390625;-5.53192138671875;4.6816864013671875
1445420851658;279.5306701660156;-100.2772445678711;-10.422921180725098;1.928955078125;-11.965087890625;3.5048980712890625
1445420851691;281.89337158203125;-94.1185302734375;-10.472859382629395;-1.4445343017578125;-12.29852294921875;3.7990875244140625
1445420851725;281.1790771484375;-92.74748992919922;-9.791114807128906;-2.05255126953125;-10.729446411132812;0.36676025390625
1445420851757;280.7151184082031;-91.87822723388672;-9.399247169494629;0.7717742919921875;-9.552658081054688;1.523956298828125
1445420851790;282.52099609375;-88.6883316040039;-7.678435802459717;1.6347503662109375;-9.415359497070312;1.6024017333984375
1445420851823;285.5943298339844;-85.62071228027344;-6.831773281097412;3.7137603759765625;-8.964248657226562;-0.0451202392578125
1445420851856;286.5363464355469;-84.26270294189453;-6.961564064025879;2.811553955078125;-9.238845825195312;-0.1039581298828125
1445420851888;288.76947021484375;-81.9230728149414;-7.619670391082764;0.0656890869140625;-9.572265625;1.0336151123046875
1445420851923;290.0156555175781;-80.96580505371094;-7.862553596496582;0.3206634521484375;-9.611495971679688;1.6220245361328125
1445420851955;290.75128173828125;-78.97016906738281;-8.421184539794922;0.536407470703125;-9.984146118164062;1.2885894775390625
1445420851987;290.81390380859375;-77.004150390625;-9.535387992858887;0.8306121826171875;-10.435256958007812;0.7001953125
1445420852020;291.10870361328125;-75.8945541381836;-10.206121444702148;0.6148681640625;-10.9451904296875;0.9747772216796875
1445420852054;291.89111328125;-73.94515991210938;-11.45132827758789;0.3795013427734375;-11.376693725585938;1.072845458984375
1445420852086;292.8941650390625;-73.1900863647461;-12.189009666442871;1.36016845703125;-11.10211181640625;-0.3785400390625
1445420852119;293.4524841308594;-73.1148681640625;-12.448923110961914;-0.542327880859375;-13.534149169921875;-0.1039581298828125
1445420852153;293.4561767578125;-73.96084594726562;-12.50491714477539;-1.3268585205078125;-14.181396484375;-0.2804718017578125
1445420852186;292.2729797363281;-76.70637512207031;-11.465063095092773;2.125091552734375;-12.239669799804688;-1.12384033203125
1445420852219;291.93084716796875;-79.3736801147461;-10.988556861877441;3.3018798828125;-11.925857543945312;-0.300079345703125
1445420852251;292.29693603515625;-86.86895751953125;-10.454573631286621;4.9101715087890625;-12.573104858398438;2.4261627197265625
1445420852284;292.70172119140625;-90.39188385009766;-10.365418434143066;4.3413848876953125;-12.259292602539062;1.7789306640625
1445420852318;294.1278381347656;-96.20362854003906;-10.005654335021973;3.4195709228515625;-11.39630126953125;0.9159393310546875
1445420852351;294.2762145996094;-100.7043228149414;-9.39782428741455;0.9090576171875;-10.02337646484375;1.6024017333984375
1445420852384;294.35943603515625;-102.59919738769531;-8.81601619720459;0.477569580078125;-9.3369140625;1.38665771484375
1445420852417;292.624755859375;-106.30116271972656;-8.1603422164917;0.7717742919921875;-8.4935302734375;1.6220245361328125
1445420852450;288.63861083984375;-109.75006866455078;-8.299365043640137;2.10546875;-6.3164520263671875;1.6024017333984375
1445420852482;286.5643005371094;-110.7748031616211;-8.666888236999512;2.8507843017578125;-4.8258514404296875;1.582794189453125
1445420852516;283.4584045410156;-111.42801666259766;-9.340736389160156;3.0272979736328125;-4.7081756591796875;1.308197021484375
1445420852549;282.4559631347656;-109.4312973022461;-9.394477844238281;2.929229736328125;-7.042144775390625;-0.633514404296875
1445420852584;282.2882385253906;-107.38172912597656;-9.321338653564453;2.4781341552734375;-10.297958374023438;-3.4185943603515625
1445420852614;282.9129333496094;-103.27808380126953;-8.568685531616211;1.438629150390625;-15.005157470703125;-9.871383666992188
1445420852648;281.9298095703125;-102.87789916992188;-8.37332534790039;1.4582366943359375;-12.435806274414062;-5.8114166259765625
1445420852680;280.0794677734375;-103.5022964477539;-8.41084098815918;1.732818603515625;-9.533035278320312;-4.0070037841796875
1445420852714;278.5955505371094;-104.44380950927734;-8.482661247253418;4.517913818359375;-10.5333251953125;-1.06500244140625
1445420852746;279.12255859375;-104.39315032958984;-8.999214172363281;5.2828216552734375;-11.376693725585938;-0.064727783203125
1445420852780;281.5924987792969;-103.37085723876953;-9.689802169799805;4.5963592529296875;-10.042984008789062;0.07257080078125
1445420852812;286.2748107910156;-102.07301330566406;-9.126666069030762;3.7333831787109375;-6.3949127197265625;4.4071044921875
1445420852846;289.37017822265625;-100.31645965576172;-8.520577430725098;3.0861358642578125;-10.297958374023438;2.1123504638671875
1445420852879;292.66802978515625;-94.59722900390625;-8.767107963562012;1.12481689453125;-11.376693725585938;3.289154052734375
1445420852911;292.58563232421875;-91.47119140625;-8.534822463989258;-1.03265380859375;-10.297958374023438;0.9747772216796875
1445420852945;292.9096984863281;-90.76911926269531;-8.389031410217285;0.7717742919921875;-10.278350830078125;1.1512908935546875
1445420852978;295.3814392089844;-88.11366271972656;-7.491486549377441;0.0853118896484375;-9.90570068359375;1.6220245361328125
1445420853011;296.9429931640625;-86.55941009521484;-6.884675979614258;0.418731689453125;-9.631103515625;1.38665771484375
1445420853044;299.6302490234375;-83.58470916748047;-6.088081359863281;2.0270233154296875;-9.807632446289062;-0.3197021484375
1445420853077;302.8356018066406;-81.26343536376953;-6.202200412750244;2.0074005126953125;-9.768402099609375;0.0921783447265625
1445420853111;305.2745666503906;-79.3553237915039;-6.794564247131348;1.0267486572265625;-9.533035278320312;1.44549560546875
1445420853148;306.03448486328125;-78.44495391845703;-7.1745429039001465;0.987518310546875;-9.670333862304688;1.1120758056640625
1445420853178;306.9777526855469;-76.61188507080078;-8.348134994506836;1.164031982421875;-9.866470336914062;1.4062652587890625
1445420853210;307.2513732910156;-75.58463287353516;-9.148046493530273;-0.4246368408203125;-9.886077880859375;2.0731201171875
1445420853244;307.6590270996094;-73.47989654541016;-10.661754608154297;-0.1696624755859375;-10.670608520507812;1.131683349609375
1445420853279;308.5254821777344;-72.07398986816406;-11.429923057556152;0.9482879638671875;-11.474761962890625;0.955169677734375
1445420853307;309.30438232421875;-71.9225845336914;-11.794830322265625;1.497467041015625;-11.808181762695312;-0.6138916015625
1445420853340;310.38909912109375;-72.20457458496094;-12.309771537780762;0.301055908203125;-13.200729370117188;-0.4766082763671875
1445420853373;309.25335693359375;-73.99213409423828;-11.648296356201172;-1.3856964111328125;-14.495208740234375;-1.574951171875
1445420853407;308.42266845703125;-75.72972869873047;-11.0858736038208;-0.01275634765625;-13.514541625976562;-2.0456695556640625
1445420853439;306.9678649902344;-81.9229965209961;-10.447881698608398;2.55657958984375;-12.337738037109375;0.2294769287109375
1445420853473;305.5885925292969;-89.77788543701172;-10.457533836364746;3.831451416015625;-12.9849853515625;3.642181396484375
1445420853506;305.3708801269531;-92.96297454833984;-10.526407241821289;3.321502685546875;-12.53387451171875;2.58306884765625
1445420853540;304.54168701171875;-97.9925765991211;-10.695730209350586;3.0076904296875;-11.062881469726562;1.876983642578125
1445420853572;304.35174560546875;-99.97943115234375;-10.404414176940918;1.53668212890625;-9.219223022460938;1.1709136962890625
1445420853605;304.91094970703125;-103.28316497802734;-8.922506332397461;1.7720489501953125;-7.7678375244140625;1.5435638427734375
1445420853638;302.44171142578125;-106.64948272705078;-8.358360290527344;2.3408355712890625;-5.8653564453125;1.465118408203125
1445420853670;300.267822265625;-108.13074493408203;-8.641012191772461;2.8311614990234375;-5.35540771484375;1.6808624267578125
1445420853703;296.1430969238281;-109.63060760498047;-9.938736915588379;2.811553955078125;-5.100433349609375;1.759307861328125
1445420853737;294.7270202636719;-109.77973175048828;-10.568781852722168;3.1645965576171875;-5.47308349609375;1.0924530029296875
1445420853770;293.7342529296875;-108.43848419189453;-11.28732967376709;2.8311614990234375;-9.513427734375;-2.9282684326171875
1445420853803;293.7493896484375;-105.03140258789062;-11.230633735656738;2.183929443359375;-13.377243041992188;-6.733245849609375
1445420853835;293.64752197265625;-102.79268646240234;-10.100179672241211;1.6347503662109375;-14.024490356445312;-8.851486206054688
1445420853870;292.9919128417969;-103.03187561035156;-9.678035736083984;1.850494384765625;-12.553482055664062;-6.5763397216796875
1445420853902;290.10723876953125;-103.97650146484375;-9.527020454406738;3.498016357421875;-7.74822998046875;-3.026336669921875
1445420853935;289.9095764160156;-104.54743194580078;-10.256604194641113;5.6162567138671875;-12.318130493164062;-0.4373779296875
1445420853967;291.22418212890625;-104.32658386230469;-10.677502632141113;6.283111572265625;-11.690505981445312;-0.241241455078125
1445420854000;294.4462890625;-103.46009826660156;-10.896302223205566;3.4195709228515625;-7.0813751220703125;3.72064208984375
1445420854035;298.7471923828125;-100.89329528808594;-9.870793342590332;3.556854248046875;-7.885528564453125;4.544403076171875
1445420854066;301.33721923828125;-98.02476501464844;-9.755851745605469;2.752716064453125;-10.749069213867188;2.70074462890625
1445420854099;302.2741394042969;-93.24645233154297;-9.584668159484863;-1.6210479736328125;-10.866744995117188;3.1322479248046875
1445420854135;302.08831787109375;-92.43193817138672;-9.214783668518066;0.16375732421875;-10.278350830078125;0.9159393310546875
1445420854165;302.7347412109375;-89.46027374267578;-8.349320411682129;0.869842529296875;-10.25872802734375;0.9747772216796875
1445420854199;305.19873046875;-86.39767456054688;-7.091960430145264;0.869842529296875;-9.415359497070312;1.50433349609375
1445420854233;306.3542175292969;-84.95855712890625;-6.708162307739258;1.41900634765625;-9.317291259765625;0.8374786376953125
1445420854264;308.8044738769531;-82.44229888916016;-6.720425128936768;1.9093475341796875;-9.552658081054688;0.111785888671875
1445420854298;310.9696044921875;-80.5313720703125;-7.276674747467041;1.046356201171875;-9.533035278320312;1.131683349609375
1445420854330;311.7605895996094;-79.62433624267578;-7.574349880218506;0.7129364013671875;-9.376129150390625;1.876983642578125
1445420854363;312.6905517578125;-77.57565307617188;-8.377347946166992;1.0071258544921875;-9.552658081054688;1.56317138671875
1445420854396;312.7618408203125;-76.44346618652344;-8.976057052612305;1.2621002197265625;-10.25872802734375;1.0336151123046875
1445420854430;313.00457763671875;-74.31633758544922;-10.461474418640137;0.301055908203125;-10.337188720703125;1.32781982421875
1445420854463;313.6438293457031;-72.9411392211914;-11.403965950012207;0.6344757080078125;-11.474761962890625;1.8377685546875
1445420854496;313.9371032714844;-72.4476089477539;-11.666982650756836;1.105194091796875;-11.357070922851562;0.2686920166015625
1445420854528;314.9047546386719;-72.1017837524414;-12.27987289428711;1.12481689453125;-11.651275634765625;-0.2804718017578125
1445420854562;314.1874084472656;-72.50098419189453;-12.381291389465332;-1.169952392578125;-13.534149169921875;-0.4177703857421875
1445420854597;313.0809020996094;-73.298828125;-11.871514320373535;0.0853118896484375;-13.298797607421875;-1.18267822265625
1445420854628;311.043701171875;-77.2247085571289;-10.807550430297852;2.5761871337890625;-11.45513916015625;-0.2804718017578125
1445420854660;310.5573425292969;-84.3536148071289;-10.235034942626953;4.9101715087890625;-12.573104858398438;2.8184356689453125
1445420854694;310.2928771972656;-88.23728942871094;-10.032731056213379;4.9297943115234375;-12.631942749023438;2.8576507568359375
1445420854728;310.3503723144531;-94.49638366699219;-9.782544136047363;3.3018798828125;-11.592437744140625;1.56317138671875
1445420854759;310.0490417480469;-97.05177307128906;-9.767267227172852;1.3993988037109375;-10.5921630859375;1.465118408203125
1445420854794;308.85833740234375;-101.29230499267578;-9.356427192687988;1.556304931640625;-9.768402099609375;1.2297515869140625
1445420854830;307.8244323730469;-105.3025131225586;-8.568244934082031;1.53668212890625;-7.4148101806640625;1.641632080078125
1445420854861;305.7995910644531;-107.3366470336914;-8.574774742126465;2.38006591796875;-5.7084503173828125;1.759307861328125
1445420854892;301.2315979003906;-110.31636810302734;-9.390952110290527;2.8899993896484375;-5.1200408935546875;1.9358367919921875
1445420854924;297.2205505371094;-111.1725082397461;-10.680270195007324;3.2038116455078125;-4.5120391845703125;1.818145751953125
1445420854957;295.9814453125;-110.87628173828125;-11.093567848205566;3.262664794921875;-4.963134765625;1.32781982421875
1445420854991;294.986572265625;-108.1183090209961;-11.094182014465332;3.0272979736328125;-8.473922729492188;-1.692626953125
1445420855023;295.6095886230469;-103.89842224121094;-10.028053283691406;3.1057586669921875;-14.612884521484375;-9.282974243164062
1445420855057;296.39544677734375;-103.07518005371094;-9.586188316345215;2.635040283203125;-13.632217407226562;-9.067230224609375
1445420855090;294.6543273925781;-103.85578155517578;-9.70421314239502;1.850494384765625;-11.200164794921875;-5.0661163330078125
1445420855123;293.1517333984375;-104.37760925292969;-9.783646583557129;5.1651458740234375;-9.395751953125;-2.02606201171875
1445420855155;292.99224853515625;-105.20964050292969;-10.345870971679688;5.890838623046875;-11.690505981445312;-2.1241302490234375
1445420855189;294.61651611328125;-104.78084564208984;-11.043784141540527;4.6159820556640625;-11.121719360351562;-0.2608642578125
1445420855222;296.0290222167969;-104.57781982421875;-10.799164772033691;2.2623748779296875;-6.179168701171875;4.7405242919921875
1445420855255;299.77685546875;-102.66272735595703;-9.253355979919434;2.8899993896484375;-6.7871856689453125;4.9366607666015625
1445420855287;304.6031188964844;-97.27200317382812;-8.556599617004395;2.2035369873046875;-11.710113525390625;1.8966064453125
1445420855320;305.090576171875;-94.79778289794922;-8.42236042022705;0.359893798828125;-11.690505981445312;2.70074462890625
1445420855354;305.1120910644531;-92.83465576171875;-7.5472412109375;0.026458740234375;-10.435256958007812;1.4062652587890625
1445420855386;307.14849853515625;-90.28429412841797;-6.223055839538574;1.8897247314453125;-10.101821899414062;1.4062652587890625
1445420855419;308.6725769042969;-88.56935119628906;-5.592394828796387;1.2032623291015625;-9.45458984375;1.8377685546875
1445420855453;311.4464416503906;-85.77850341796875;-4.965813159942627;1.5759124755859375;-9.533035278320312;0.759033203125
1445420855486;315.13934326171875;-83.48551177978516;-4.957827568054199;1.4582366943359375;-9.631103515625;1.014007568359375
1445420855518;316.9684143066406;-82.46053314208984;-5.0403666496276855;1.6347503662109375;-9.827239990234375;1.3474273681640625
1445420855552;319.839599609375;-80.47616577148438;-5.65577507019043;1.6543731689453125;-9.709564208984375;1.1709136962890625
1445420855586;320.9151306152344;-79.53578186035156;-6.296884536743164;1.12481689453125;-9.68994140625;1.2885894775390625
1445420855618;322.8285217285156;-77.87838745117188;-7.743087291717529;1.3209381103515625;-9.670333862304688;1.582794189453125
1445420855650;325.4574890136719;-76.64960479736328;-9.230356216430664;0.595245361328125;-9.709564208984375;2.504608154296875
1445420855685;326.8231506347656;-76.20376586914062;-9.912739753723145;-2.3271331787109375;-10.5333251953125;0.896331787109375
1445420855717;329.87872314453125;-75.75068664550781;-10.719958305358887;-0.640380859375;-11.90625;-0.0843353271484375
1445420855749;332.1078186035156;-76.10072326660156;-9.965095520019531;1.732818603515625;-14.279464721679688;-1.6141815185546875
1445420855783;332.8766784667969;-77.08450317382812;-9.338425636291504;3.3607330322265625;-13.61260986328125;-2.0456695556640625
1445420855816;334.5796813964844;-81.4430923461914;-8.780855178833008;5.0474700927734375;-11.867019653320312;-0.4373779296875
1445420855849;337.07061767578125;-87.72515106201172;-8.58462142944336;7.45989990234375;-12.631942749023438;2.0535125732421875
1445420855882;339.1285400390625;-91.00531768798828;-8.660504341125488;7.8325653076171875;-11.474761962890625;2.1711883544921875
1445420855914;343.2011413574219;-96.13272094726562;-8.929655075073242;5.5770263671875;-9.101547241210938;1.072845458984375
1445420855947;343.8685302734375;-97.86083984375;-9.092209815979004;2.7919464111328125;-8.650436401367188;0.4256134033203125
1445420855980;345.3410949707031;-101.2594223022461;-8.736618041992188;2.55657958984375;-7.7678375244140625;0.4844512939453125
1445420856013;347.2328796386719;-104.54389953613281;-8.044841766357422;2.2231597900390625;-6.414520263671875;0.36676025390625
1445420856046;347.93804931640625;-105.92230224609375;-7.826956748962402;3.2038116455078125;-5.551544189453125;0.4648284912109375
1445420856079;349.56439208984375;-107.72026062011719;-7.774759292602539;3.6745452880859375;-5.9045867919921875;0.58251953125
1445420856112;352.080078125;-107.45257568359375;-7.7190728187561035;3.1842041015625;-6.61065673828125;0.4059906005859375
1445420856146;353.5321044921875;-106.59117126464844;-7.475108623504639;2.693878173828125;-7.23828125;0.2294769287109375
1445420856181;357.4530334472656;-103.51415252685547;-6.092221260070801;1.2032623291015625;-9.101547241210938;-1.457275390625
1445420856213;0.539093017578125;-101.64496612548828;-5.012235164642334;-0.3069610595703125;-11.612045288085938;-6.223297119140625
1445420856244;6.409088134765625;-98.49211120605469;-3.191890239715576;-0.4834747314453125;-12.180831909179688;-6.439056396484375
1445420856278;9.63409423828125;-96.43048095703125;-2.4723005294799805;1.5955352783203125;-13.024200439453125;-5.1641845703125
1445420856310;11.29656982421875;-95.92764282226562;-2.6212852001190186;5.3612823486328125;-14.102935791015625;-3.7324066162109375
1445420856344;14.4964599609375;-97.12133026123047;-3.853924512863159;4.635589599609375;-9.96453857421875;1.0336151123046875
1445420856378;19.027099609375;-96.68509674072266;-2.4289255142211914;4.5571441650390625;-5.0219879150390625;2.58306884765625
1445420856418;21.224853515625;-94.62551879882812;-2.5640788078308105;2.419281005859375;-10.631378173828125;2.3477020263671875
1445420856442;22.9749755859375;-90.16053009033203;-3.6135029792785645;-0.1892852783203125;-12.886917114257812;3.1910858154296875
1445420856476;26.429229736328125;-87.75716400146484;-2.7019741535186768;0.28143310546875;-11.27862548828125;2.386932373046875
1445420856508;29.011077880859375;-86.4019775390625;-1.939812183380127;1.4582366943359375;-10.807907104492188;2.9361114501953125
1445420856541;35.07177734375;-81.87604522705078;-0.4484662711620331;1.791656494140625;-9.748779296875;2.955718994140625
1445420856574;42.0029296875;-78.42945861816406;-0.49901312589645386;2.0074005126953125;-8.630828857421875;2.092742919921875
1445420856607;45.417205810546875;-76.92406463623047;-0.7574217319488525;0.654083251953125;-9.160385131835938;2.661529541015625
1445420856640;52.626678466796875;-73.76692199707031;-1.5044195652008057;-1.3660736083984375;-10.611770629882812;2.445770263671875
1445420856674;55.567352294921875;-72.41973114013672;-1.8314975500106812;-1.9544830322265625;-10.219512939453125;1.0532379150390625
1445420856707;60.9134521484375;-70.68523406982422;-2.7531063556671143;-1.6210479736328125;-10.494094848632812;0.81787109375
1445420856740;65.7041015625;-69.45408630371094;-3.9446144104003906;0.10491943359375;-9.866470336914062;1.38665771484375
1445420856772;68.03646850585938;-68.8599853515625;-4.654778480529785;0.3795013427734375;-9.709564208984375;1.8966064453125
1445420856806;71.82122802734375;-67.9756088256836;-6.381746292114258;-0.660003662109375;-10.042984008789062;2.5438385009765625
1445420856839;75.61700439453125;-67.54889678955078;-7.925630569458008;-0.8757476806640625;-10.219512939453125;1.56317138671875
1445420856874;77.92172241210938;-67.2169418334961;-8.504855155944824;1.30133056640625;-10.925582885742188;0.01373291015625
1445420856905;82.72842407226562;-66.46060943603516;-9.819747924804688;0.595245361328125;-13.141891479492188;1.2297515869140625
1445420856938;86.42575073242188;-66.79427337646484;-10.241451263427734;1.41900634765625;-12.769241333007812;0.504058837890625
1445420856971;87.80084228515625;-67.62947082519531;-9.930045127868652;2.38006591796875;-11.945480346679688;0.1510162353515625
1445420857004;90.8516845703125;-70.75408172607422;-9.710639953613281;3.9883575439453125;-11.180557250976562;-1.2219085693359375
1445420857036;92.67471313476562;-73.38924407958984;-9.900218963623047;6.7342071533203125;-10.905975341796875;1.9358367919921875
1445420857069;96.13922119140625;-80.54955291748047;-10.456028938293457;7.6952667236328125;-11.239395141601562;3.1714630126953125
1445420857102;101.15625;-87.46269989013672;-11.143631935119629;5.6162567138671875;-11.004043579101562;2.0535125732421875
1445420857137;103.49981689453125;-90.11746978759766;-11.520146369934082;3.0272979736328125;-11.10211181640625;1.7200775146484375
1445420857169;106.46286010742188;-94.76055145263672;-12.206287384033203;1.8897247314453125;-10.6510009765625;1.308197021484375
1445420857202;109.4921875;-99.21231079101562;-12.066527366638184;1.2621002197265625;-9.199615478515625;0.4844512939453125
1445420857234;109.95976257324219;-101.12049865722656;-12.031294822692871;1.6347503662109375;-7.23828125;0.2294769287109375
1445420857267;108.79714965820312;-104.4107894897461;-12.618857383728027;1.732818603515625;-6.61065673828125;0.30792236328125
1445420857300;108.10836791992188;-106.47843170166016;-13.32779598236084;2.0270233154296875;-5.8261260986328125;0.0921783447265625
1445420857333;108.27481079101562;-106.69113159179688;-13.478375434875488;2.0858612060546875;-5.8653564453125;-0.2216339111328125
1445420857367;108.99752807617188;-105.08838653564453;-13.472307205200195;1.75244140625;-6.747955322265625;-1.084625244140625
1445420857399;110.17472839355469;-101.93366241455078;-12.584455490112305;0.8109893798828125;-10.376419067382812;-5.7133636474609375
1445420857432;111.24050903320312;-100.47965240478516;-12.0477876663208;1.18365478515625;-12.455429077148438;-9.067230224609375
1445420857465;111.43118286132812;-100.62687683105469;-12.499441146850586;1.0855865478515625;-10.454864501953125;-8.831878662109375
1445420857498;109.14581298828125;-101.04199981689453;-13.138653755187988;2.4781341552734375;-11.474761962890625;-3.261688232421875
1445420857532;106.05352783203125;-101.12260437011719;-13.92547607421875;4.812103271484375;-12.259292602539062;-2.08489990234375
1445420857564;107.00712585449219;-101.24787139892578;-13.832857131958008;4.4198455810546875;-9.317291259765625;-1.437652587890625
1445420857598;107.96131896972656;-101.14665222167969;-13.440979957580566;4.6748199462890625;-6.630279541015625;2.8184356689453125
1445420857631;111.29542541503906;-99.23394012451172;-13.028545379638672;4.0471954345703125;-7.375579833984375;3.0341796875
1445420857664;115.55987548828125;-94.6728286743164;-12.99489974975586;1.497467041015625;-11.239395141601562;2.4261627197265625
1445420857697;116.4901123046875;-92.08041381835938;-12.667705535888672;0.477569580078125;-12.318130493164062;2.720367431640625
1445420857730;116.7529296875;-88.33168029785156;-11.615784645080566;0.301055908203125;-10.003753662109375;2.6811370849609375
1445420857763;118.07144165039062;-86.01508331298828;-10.56964111328125;2.183929443359375;-9.827239990234375;0.641357421875
1445420857796;119.29656982421875;-84.45384216308594;-10.086784362792969;1.6347503662109375;-10.08221435546875;0.7001953125
1445420857828;122.04147338867188;-81.69796752929688;-9.361420631408691;0.242218017578125;-9.317291259765625;1.8377685546875
1445420857862;123.63754272460938;-80.4175033569336;-9.149188995361328;1.732818603515625;-10.180282592773438;0.30792236328125
1445420857894;126.6334228515625;-78.19660186767578;-9.22146987915039;1.41900634765625;-10.337188720703125;0.7001953125
1445420857931;129.77230834960938;-76.48023986816406;-9.705687522888184;0.987518310546875;-9.493820190429688;1.308197021484375
1445420857961;130.86618041992188;-75.6999740600586;-10.158346176147461;0.22259521484375;-9.68994140625;1.1120758056640625
1445420857994;132.26271057128906;-74.13233184814453;-11.487566947937012;-0.0716094970703125;-10.219512939453125;1.44549560546875
1445420858029;133.40908813476562;-72.53353881835938;-12.966957092285156;0.2618255615234375;-10.5333251953125;1.0532379150390625
1445420858060;133.92796325683594;-71.83411407470703;-13.396623611450195;1.497467041015625;-10.925582885742188;0.8571014404296875
1445420858094;135.5314178466797;-71.03192901611328;-13.944343566894531;1.673980712890625;-10.964813232421875;0.1706390380859375
1445420858129;137.67262268066406;-71.35328674316406;-14.302395820617676;-0.405029296875;-14.024490356445312;0.327545166015625
1445420858161;138.54879760742188;-71.8964614868164;-14.245102882385254;-0.0716094970703125;-14.416748046875;-0.7904205322265625
1445420858192;138.50494384765625;-74.36479187011719;-13.313688278198242;0.869842529296875;-12.71038818359375;-0.9080963134765625
1445420858224;138.1483612060547;-76.87467193603516;-13.109726905822754;2.066253662109375;-13.063430786132812;1.0336151123046875
1445420858257;137.0111846923828;-83.84891510009766;-12.966707229614258;2.7919464111328125;-12.9261474609375;2.40655517578125
1445420858291;135.30722045898438;-90.49385070800781;-12.868809700012207;3.5372467041015625;-12.29852294921875;2.151580810546875
1445420858324;134.11708068847656;-93.33515930175781;-13.011143684387207;2.8507843017578125;-11.023651123046875;1.700469970703125
1445420858357;132.28512573242188;-98.24517822265625;-13.397778511047363;1.5170745849609375;-10.356796264648438;1.465118408203125
1445420858389;132.70225524902344;-102.36723327636719;-12.394143104553223;0.8109893798828125;-8.748504638671875;1.1709136962890625
1445420858424;131.77113342285156;-104.31327056884766;-12.192482948303223;0.7325439453125;-7.885528564453125;1.32781982421875
1445420858455;127.94184875488281;-108.5891342163086;-11.983861923217773;1.3993988037109375;-6.7087249755859375;1.4847259521484375
1445420858489;122.75942993164062;-110.6938247680664;-12.528220176696777;2.2819976806640625;-5.4534759521484375;2.3084869384765625
1445420858521;120.38494873046875;-110.9640121459961;-12.898789405822754;2.2231597900390625;-4.8062286376953125;2.2888641357421875
1445420858555;117.18020629882812;-109.81062316894531;-13.410140037536621;2.183929443359375;-5.0808258056640625;0.8571014404296875
1445420858588;115.96678161621094;-108.30571746826172;-13.639988899230957;2.38006591796875;-9.866470336914062;-3.16363525390625
1445420858620;115.15667724609375;-104.23519134521484;-13.391135215759277;3.321502685546875;-14.80902099609375;-8.812255859375
1445420858653;113.52621459960938;-102.70702362060547;-13.40211009979248;2.2231597900390625;-13.436080932617188;-7.753143310546875
1445420858687;111.346435546875;-103.12740325927734;-13.417346000671387;1.3405609130859375;-9.278060913085938;-3.889312744140625
1445420858719;108.33175659179688;-104.03263092041016;-13.02055835723877;2.55657958984375;-9.00347900390625;-2.516387939453125
1445420858752;107.28132629394531;-104.25507354736328;-13.451412200927734;4.5375213623046875;-12.906524658203125;-1.2807464599609375
1445420858787;107.79608154296875;-104.00657653808594;-13.414506912231445;5.3612823486328125;-8.689666748046875;0.4256134033203125
1445420858819;110.58367919921875;-104.06051635742188;-12.875186920166016;5.3416748046875;-6.3949127197265625;3.642181396484375
1445420858852;113.85960388183594;-100.38715362548828;-12.469834327697754;3.87066650390625;-8.591598510742188;3.289154052734375
1445420858885;115.78408813476562;-97.58323669433594;-12.370013236999512;1.8701171875;-11.51397705078125;1.8966064453125
1445420858917;116.43899536132812;-93.85631561279297;-11.722432136535645;-1.856414794921875;-10.297958374023438;0.504058837890625
1445420858950;115.68386840820312;-93.1830062866211;-11.357370376586914;1.0855865478515625;-9.984146118164062;1.21014404296875
1445420858983;116.05534362792969;-90.32943725585938;-10.204334259033203;0.5756378173828125;-9.866470336914062;1.2297515869140625
1445420859016;116.66287231445312;-87.12358856201172;-9.259468078613281;1.53668212890625;-9.238845825195312;0.6609649658203125
1445420859051;117.17910766601562;-85.61527252197266;-9.019437789916992;2.4781341552734375;-9.238845825195312;0.58251953125
1445420859082;118.71554565429688;-83.14970397949219;-9.083641052246094;1.9681854248046875;-9.258453369140625;0.7394256591796875
1445420859117;120.05596923828125;-80.8602066040039;-9.693942070007324;1.222869873046875;-9.513427734375;1.641632080078125
1445420859151;120.451904296875;-79.75178527832031;-10.10959243774414;1.0855865478515625;-9.846847534179688;1.2297515869140625
1445420859182;121.17475891113281;-77.62544250488281;-11.220010757446289;1.105194091796875;-10.454864501953125;0.9747772216796875
1445420859214;121.8973388671875;-75.51781463623047;-12.53804874420166;0.2029876708984375;-10.8275146484375;1.56317138671875
1445420859249;122.53572082519531;-74.65167999267578;-13.114707946777344;0.6148681640625;-11.298233032226562;0.386383056640625
1445420859281;123.7716064453125;-73.51032257080078;-13.861161231994629;0.22259521484375;-11.259017944335938;0.3471527099609375
1445420859316;125.186767578125;-73.51129913330078;-14.291460990905762;0.477569580078125;-12.102386474609375;-0.4373779296875
1445420859347;125.81698608398438;-73.6830825805664;-14.345836639404297;-0.287353515625;-13.632217407226562;-0.3785400390625
1445420859379;126.20068359375;-74.99298858642578;-13.894218444824219;-0.0716094970703125;-13.651840209960938;-1.8691558837890625
1445420859413;125.93643188476562;-76.66493225097656;-13.444053649902344;1.75244140625;-11.808181762695312;0.19024658203125
1445420859446;125.06382751464844;-82.69190979003906;-12.895807266235352;2.8311614990234375;-11.90625;2.4850006103515625
1445420859478;123.55746459960938;-89.22219848632812;-12.526701927185059;4.4002227783203125;-12.65155029296875;2.2888641357421875
1445420859513;123.10505676269531;-92.02456665039062;-12.263442039489746;3.615692138671875;-11.90625;0.9747772216796875
1445420859545;122.65187072753906;-96.96829986572266;-11.533350944519043;3.1057586669921875;-10.925582885742188;1.1709136962890625
1445420859578;121.43061828613281;-100.52458953857422;-10.751690864562988;1.6935882568359375;-9.68994140625;1.6024017333984375
1445420859615;120.70187377929688;-101.89960479736328;-10.324109077453613;0.7325439453125;-8.336624145507812;1.4847259521484375
1445420859647;117.33517456054688;-105.37429809570312;-10.085972785949707;1.2621002197265625;-7.2186737060546875;0.994384765625
1445420859678;112.48562622070312;-108.34076690673828;-10.637192726135254;2.419281005859375;-6.0222625732421875;1.465118408203125
1445420859709;109.92172241210938;-109.04691314697266;-11.179632186889648;2.635040283203125;-5.6299896240234375;1.6612396240234375
1445420859743;106.09083557128906;-108.74711608886719;-12.032158851623535;2.7919464111328125;-5.23773193359375;1.131683349609375
1445420859775;104.88507080078125;-107.6451416015625;-12.31538200378418;2.49774169921875;-7.257904052734375;-0.7904205322265625
1445420859809;103.46652221679688;-103.92149353027344;-12.529779434204102;2.32122802734375;-10.19989013671875;-3.595123291015625
1445420859849;103.96286010742188;-101.14682006835938;-11.676779747009277;2.2035369873046875;-13.946029663085938;-8.674972534179688
1445420859875;103.10015869140625;-101.20060729980469;-11.425772666931152;1.5955352783203125;-11.965087890625;-5.3799285888671875
1445420859908;99.13992309570312;-102.16506958007812;-11.278181076049805;1.615142822265625;-9.846847534179688;-3.653961181640625
1445420859940;97.75640869140625;-102.74283599853516;-11.363729476928711;4.0864105224609375;-9.886077880859375;-1.9279937744140625
1445420859974;95.876708984375;-102.74581909179688;-12.278346061706543;4.8709564208984375;-10.807907104492188;-0.9669342041015625
1445420860006;96.19107055664062;-101.87175750732422;-12.451835632324219;4.5963592529296875;-8.1405029296875;1.21014404296875
1445420860040;97.25173950195312;-101.68260192871094;-12.167854309082031;4.0864105224609375;-6.865631103515625;4.485565185546875
1445420860073;100.78152465820312;-99.02738952636719;-11.366439819335938;3.69415283203125;-9.434967041015625;2.7988128662109375
1445420860105;102.69183349609375;-93.33025360107422;-11.445332527160645;-0.6992340087890625;-11.435531616210938;2.75958251953125
1445420860138;102.30413818359375;-91.3418960571289;-11.138665199279785;-1.169952392578125;-10.297958374023438;0.58251953125
1445420860172;101.86898803710938;-89.85685729980469;-10.444662094116211;0.6737060546875;-10.31756591796875;0.8374786376953125
1445420860204;102.72872924804688;-86.88140106201172;-9.443048477172852;0.22259521484375;-9.631103515625;1.4258880615234375
1445420860238;103.1260986328125;-85.46968078613281;-9.004518508911133;0.8109893798828125;-9.650726318359375;0.4648284912109375
1445420860270;104.06675720214844;-82.88935089111328;-8.47551441192627;1.53668212890625;-9.748779296875;-0.0843353271484375
1445420860304;104.85296630859375;-80.92337036132812;-8.462182998657227;1.6543731689453125;-9.807632446289062;0.327545166015625
1445420860337;105.151611328125;-80.12155151367188;-8.610217094421387;1.2621002197265625;-9.376129150390625;1.5435638427734375
1445420860370;105.51748657226562;-78.54407501220703;-9.16744613647461;1.18365478515625;-9.45458984375;1.7200775146484375
1445420860401;105.58589172363281;-77.70524597167969;-9.62160873413086;1.222869873046875;-10.02337646484375;1.6024017333984375
1445420860435;105.47637939453125;-75.81324768066406;-10.766596794128418;0.8306121826171875;-10.19989013671875;1.50433349609375
1445420860469;105.67823791503906;-73.66392517089844;-11.887100219726562;1.0071258544921875;-10.7098388671875;0.876708984375
1445420860501;106.43843078613281;-72.31061553955078;-12.769112586975098;0.34027099609375;-11.082489013671875;1.1512908935546875
1445420860534;107.20135498046875;-72.13145446777344;-13.067227363586426;0.7129364013671875;-11.121719360351562;0.19024658203125
1445420860568;108.90093994140625;-72.08674621582031;-13.361322402954102;-0.267730712890625;-13.2203369140625;-0.3197021484375
1445420860601;109.19540405273438;-72.2991943359375;-13.307153701782227;-1.1895599365234375;-13.632217407226562;-0.633514404296875
1445420860634;108.22427368164062;-73.94776916503906;-12.39415454864502;0.28143310546875;-12.906524658203125;-1.3003692626953125
1445420860666;106.93896484375;-79.04370880126953;-11.759026527404785;2.8899993896484375;-11.690505981445312;0.13140869140625
1445420860701;106.44200134277344;-82.8243408203125;-11.540773391723633;5.8516082763671875;-12.376968383789062;2.896881103515625
1445420860732;105.69331359863281;-89.59245300292969;-11.347790718078613;5.832000732421875;-12.53387451171875;2.445770263671875
1445420860765;105.93743896484375;-95.03884887695312;-11.041006088256836;3.4784088134765625;-11.062881469726562;0.7786407470703125
1445420860801;105.19540405273438;-97.0987777709961;-10.938567161560059;1.6543731689453125;-9.807632446289062;1.3474273681640625
1445420860831;103.9210205078125;-100.71638488769531;-10.574319839477539;1.222869873046875;-9.278060913085938;1.5435638427734375
1445420860864;102.98165893554688;-102.59956359863281;-10.400547981262207;1.36016845703125;-7.5324859619140625;1.308197021484375
1445420860898;99.12185668945312;-106.2555160522461;-10.540792465209961;1.928955078125;-6.7675628662109375;1.1512908935546875
1445420860931;94.34832763671875;-108.6168441772461;-11.367156982421875;2.73309326171875;-5.5711517333984375;1.50433349609375
1445420860964;92.3941650390625;-109.07767486572266;-11.837396621704102;2.811553955078125;-5.0612030029296875;1.2297515869140625
1445420860997;89.71844482421875;-107.96703338623047;-12.394501686096191;2.61541748046875;-5.53192138671875;0.641357421875
1445420861030;88.21389770507812;-104.27933502197266;-12.247699737548828;2.360443115234375;-9.415359497070312;-2.339874267578125
1445420861062;88.5390625;-102.33982849121094;-11.773575782775879;2.7919464111328125;-12.180831909179688;-8.380767822265625
1445420861095;88.91387939453125;-101.19618225097656;-11.374820709228516;2.38006591796875;-11.925857543945312;-6.2821502685546875
1445420861128;85.41207885742188;-101.90953063964844;-11.458950996398926;2.164306640625;-8.415084838867188;-3.3597564697265625
1445420861165;84.23333740234375;-102.26233673095703;-11.225447654724121;5.1847686767578125;-10.552932739257812;-1.2415313720703125
1445420861195;83.44482421875;-102.77606201171875;-11.557330131530762;5.086700439453125;-11.572830200195312;-0.9669342041015625
1445420861228;84.48345947265625;-101.89095306396484;-11.85572624206543;4.5963592529296875;-10.396026611328125;0.7001953125
1445420861262;85.76974487304688;-101.36571502685547;-11.554450988769531;3.5960845947265625;-7.061767578125;3.8187103271484375
1445420861297;88.23281860351562;-98.80815124511719;-10.595537185668945;3.0861358642578125;-8.356246948242188;2.9361114501953125
1445420861326;89.67959594726562;-96.58567810058594;-10.574148178100586;-0.287353515625;-11.749343872070312;2.0731201171875
1445420861367;90.10842895507812;-92.33434295654297;-10.070121765136719;-1.2680206298828125;-11.121719360351562;0.955169677734375
1445420861395;89.656494140625;-90.89823913574219;-9.287942886352539;0.536407470703125;-10.572540283203125;0.9159393310546875
1445420861430;90.55615234375;-88.1275634765625;-8.067713737487793;0.869842529296875;-9.474197387695312;1.9358367919921875
1445420861459;91.26751708984375;-86.78721618652344;-7.640035152435303;1.0267486572265625;-8.983871459960938;2.0142822265625
1445420861491;92.86529541015625;-83.95697784423828;-7.278937816619873;1.9485626220703125;-9.317291259765625;0.8374786376953125
1445420861526;93.63723754882812;-82.51363372802734;-7.425014019012451;1.222869873046875;-9.631103515625;1.0924530029296875
1445420861557;95.04193115234375;-79.78858947753906;-7.997099876403809;0.7325439453125;-9.886077880859375;0.8374786376953125
1445420861590;95.45928955078125;-78.59362030029297;-8.302275657653809;0.1441497802734375;-9.984146118164062;0.504058837890625
1445420861624;95.9747314453125;-76.49015808105469;-9.132241249084473;0.04608154296875;-9.984146118164062;0.641357421875
1445420861657;96.44992065429688;-74.57963562011719;-10.078551292419434;0.3206634521484375;-10.6510009765625;-0.1431732177734375
1445420861690;96.75283813476562;-73.44645690917969;-10.738061904907227;0.34027099609375;-10.905975341796875;0.6609649658203125
1445420861722;96.83349609375;-73.17151641845703;-10.891284942626953;1.18365478515625;-10.9451904296875;0.6021270751953125
1445420861755;97.612548828125;-73.19347381591797;-11.481054306030273;2.125091552734375;-11.023651123046875;-0.94732666015625
1445420861788;97.85546875;-73.48594665527344;-11.864067077636719;-0.091217041015625;-12.553482055664062;0.07257080078125
1445420861822;97.62966918945312;-74.77484130859375;-12.405437469482422;-1.6406707763671875;-13.61260986328125;-0.5354461669921875
1445420861854;95.04263305664062;-77.92618560791016;-12.212810516357422;-0.032379150390625;-13.514541625976562;-0.4766082763671875
1445420861888;93.21426391601562;-80.88067626953125;-12.621439933776855;1.850494384765625;-11.945480346679688;1.6612396240234375
1445420861921;89.06454467773438;-87.6893081665039;-13.69257926940918;1.5170745849609375;-11.651275634765625;2.720367431640625
1445420861954;84.45135498046875;-92.76107788085938;-14.1386079788208;-1.0130462646484375;-12.239669799804688;2.328094482421875
1445420861988;81.484619140625;-95.01214599609375;-14.167567253112793;-1.5622100830078125;-12.612335205078125;2.40655517578125
1445420862020;76.77047729492188;-99.11907958984375;-13.994051933288574;0.34027099609375;-11.298233032226562;1.8573760986328125
1445420862053;72.14486694335938;-102.0353775024414;-13.421483993530273;0.7129364013671875;-9.768402099609375;1.1120758056640625
1445420862086;69.234619140625;-103.01824188232422;-12.993597030639648;0.3991241455078125;-9.650726318359375;1.072845458984375
1445420862118;62.399658203125;-104.87480163574219;-12.355249404907227;0.928680419921875;-8.88580322265625;1.50433349609375
1445420862152;58.487335205078125;-105.70918273925781;-12.425996780395508;2.38006591796875;-7.7286224365234375;1.8377685546875
1445420862185;50.399658203125;-106.57682037353516;-13.15638542175293;2.8899993896484375;-7.1598358154296875;1.7789306640625
1445420862217;44.08245849609375;-106.34965515136719;-13.489219665527344;3.4784088134765625;-7.1009979248046875;0.4256134033203125
1445420862253;41.58050537109375;-105.65571594238281;-13.464836120605469;3.2822723388671875;-9.729171752929688;-1.3984375
1445420862283;36.91436767578125;-103.30233001708984;-13.472284317016602;3.2234344482421875;-11.357070922851562;-2.634063720703125
1445420862317;31.5308837890625;-100.41743469238281;-13.884354591369629;1.732818603515625;-11.984695434570312;-5.536834716796875
1445420862350;28.004180908203125;-99.7490234375;-14.002493858337402;-0.6796112060546875;-11.357070922851562;-5.360321044921875
1445420862382;20.8265380859375;-100.6393051147461;-13.417888641357422;-1.6602783203125;-7.944366455078125;-1.574951171875
1445420862415;17.23834228515625;-101.23571014404297;-12.793506622314453;2.3996734619140625;-10.435256958007812;4.5051727294921875
1445420862449;15.484619140625;-101.7007064819336;-11.606266021728516;6.577301025390625;-14.75018310546875;2.0338897705078125
1445420862482;16.26702880859375;-101.17726135253906;-13.434104919433594;7.538360595703125;-10.925582885742188;-0.9669342041015625
1445420862515;13.439666748046875;-102.28211212158203;-15.00594711303711;3.7333831787109375;-5.5711517333984375;5.0151214599609375
1445420862547;9.83111572265625;-100.3739013671875;-15.026100158691406;3.6549224853515625;-8.081649780273438;3.4264373779296875
1445420862580;7.603607177734375;-96.78115844726562;-14.86286449432373;-2.660552978515625;-12.65155029296875;-0.77081298828125
1445420862615;4.8436279296875;-96.04409790039062;-14.807158470153809;-2.484039306640625;-11.10211181640625;0.562896728515625
1445420862647;1.320556640625;-94.31794738769531;-13.261448860168457;-0.1892852783203125;-10.160659790039062;1.5435638427734375
1445420862679;359.395263671875;-91.79436492919922;-12.036519050598145;4.459075927734375;-8.709274291992188;0.19024658203125
1445420862716;357.5205078125;-90.1986083984375;-12.182967185974121;2.55657958984375;-9.670333862304688;-0.1431732177734375
1445420862749;352.0872497558594;-87.47994232177734;-13.223799705505371;1.47784423828125;-10.062606811523438;-0.6727447509765625
1445420862779;348.1408386230469;-85.40675354003906;-13.390877723693848;0.6344757080078125;-9.729171752929688;-0.3393096923828125
1445420862811;346.25872802734375;-84.46723175048828;-13.409911155700684;0.1245269775390625;-9.434967041015625;0.562896728515625
1445420862846;342.25592041015625;-82.65229034423828;-13.7872953414917;1.5170745849609375;-10.121444702148438;1.3670501708984375
1445420862880;340.0672302246094;-81.75943756103516;-14.186114311218262;1.9093475341796875;-10.062606811523438;1.818145751953125
1445420862911;336.82073974609375;-80.54969024658203;-14.981080055236816;1.928955078125;-10.19989013671875;2.0338897705078125
1445420862946;336.1212158203125;-79.84771728515625;-15.187040328979492;2.5958099365234375;-10.5921630859375;1.2885894775390625
1445420862976;335.71026611328125;-79.38063049316406;-15.324518203735352;1.673980712890625;-10.866744995117188;-0.2804718017578125
1445420863011;333.95166015625;-78.58443450927734;-15.844161033630371;0.5756378173828125;-11.180557250976562;-0.88848876953125
1445420863046;330.74688720703125;-78.65131378173828;-16.296016693115234;-1.0130462646484375;-14.161773681640625;-0.6531219482421875
1445420863075;328.5244445800781;-79.42852783203125;-16.346115112304688;-0.150054931640625;-14.161773681640625;-1.2807464599609375
1445420863111;324.8956298828125;-83.587158203125;-16.385021209716797;0.4383392333984375;-12.553482055664062;-0.82965087890625
1445420863145;320.6292724609375;-89.5964126586914;-16.250577926635742;0.6737060546875;-10.8863525390625;1.9358367919921875
1445420863175;318.2951354980469;-92.26426696777344;-16.160417556762695;0.6933135986328125;-11.533599853515625;2.46539306640625
1445420863208;314.3807373046875;-96.8548583984375;-15.12109375;-1.3660736083984375;-13.1614990234375;3.2499237060546875
1445420863240;312.9271545410156;-100.44709014892578;-11.883194923400879;-0.640380859375;-11.415924072265625;3.406829833984375
1445420863274;311.5892639160156;-100.88285064697266;-10.154153823852539;-0.287353515625;-10.925582885742188;3.4264373779296875
1445420863306;307.38958740234375;-101.79945373535156;-7.647197246551514;0.7521514892578125;-10.6510009765625;1.5435638427734375
1445420863339;304.1830749511719;-103.22209930419922;-7.092252731323242;1.36016845703125;-9.650726318359375;1.7397003173828125
1445420863373;295.87567138671875;-106.9135513305664;-6.769785404205322;1.2032623291015625;-9.395751953125;2.504608154296875
1445420863405;287.53955078125;-109.30206298828125;-7.548410415649414;3.1253662109375;-8.3170166015625;2.661529541015625
1445420863439;284.2200927734375;-110.12504577636719;-8.107260704040527;4.6159820556640625;-6.2772369384765625;1.700469970703125
1445420863472;278.4946594238281;-110.85029602050781;-9.292747497558594;4.694427490234375;-5.6496124267578125;0.7982635498046875
1445420863505;274.78619384765625;-110.16366577148438;-10.349821090698242;3.1842041015625;-6.630279541015625;-0.2804718017578125
1445420863537;273.3669738769531;-109.07946014404297;-10.855350494384766;2.929229736328125;-8.709274291992188;-1.7906951904296875
1445420863570;270.1984558105469;-106.13862609863281;-11.830108642578125;-0.3657989501953125;-12.631942749023438;-6.792083740234375
1445420863603;265.86749267578125;-104.91110229492188;-11.730070114135742;-3.2097320556640625;-12.53387451171875;-4.7523040771484375
1445420863637;264.0983581542969;-104.84017181396484;-11.396053314208984;-2.1898345947265625;-10.964813232421875;-3.9285430908203125
1445420863670;261.19769287109375;-105.24810028076172;-10.952437400817871;2.9096221923828125;-10.494094848632812;-0.0843353271484375
1445420863702;261.2370910644531;-105.31736755371094;-11.307724952697754;7.6364288330078125;-13.200729370117188;-1.3003692626953125
1445420863735;264.34307861328125;-104.85022735595703;-11.742783546447754;7.656036376953125;-10.435256958007812;-2.7517547607421875
1445420863769;266.80621337890625;-105.79194641113281;-12.213763236999512;5.8712310791015625;-5.47308349609375;4.0148468017578125
1445420863801;269.1396484375;-105.22991943359375;-12.222172737121582;1.9681854248046875;-10.356796264648438;3.5048980712890625
1445420863835;273.0598449707031;-100.36337280273438;-12.196016311645508;0.3795013427734375;-13.024200439453125;3.15185546875
1445420863868;273.4794006347656;-97.52840423583984;-11.677502632141113;-0.91497802734375;-10.690231323242188;-0.4373779296875
1445420863901;272.81329345703125;-97.01795959472656;-11.928060531616211;1.36016845703125;-9.90570068359375;1.0532379150390625
1445420863934;272.95892333984375;-94.72097778320312;-11.821451187133789;1.18365478515625;-9.807632446289062;1.2297515869140625
1445420863967;273.7417907714844;-91.94742584228516;-11.170694351196289;0.869842529296875;-9.631103515625;1.21014404296875
1445420864001;273.9525146484375;-90.72296905517578;-11.014315605163574;1.0855865478515625;-9.533035278320312;0.386383056640625
1445420864032;274.9058532714844;-88.50772094726562;-10.832615852355957;2.046630859375;-9.3369140625;0.2686920166015625
1445420864066;275.2955627441406;-87.36248016357422;-10.907164573669434;1.0855865478515625;-9.278060913085938;1.0336151123046875
1445420864098;276.337158203125;-85.10442352294922;-11.08513355255127;0.6344757080078125;-9.395751953125;1.6612396240234375
1445420864132;277.1272888183594;-82.85977172851562;-11.15405559539795;1.046356201171875;-9.748779296875;1.1512908935546875
1445420864166;277.34735107421875;-81.73008728027344;-11.451642036437988;2.10546875;-9.944915771484375;1.32781982421875
1445420864197;278.1613464355469;-79.72589111328125;-12.388123512268066;1.75244140625;-10.121444702148438;1.465118408203125
1445420864231;279.6952209472656;-78.11161041259766;-13.074222564697266;0.5756378173828125;-10.6510009765625;1.4847259521484375
1445420864265;280.3896179199219;-77.53092956542969;-13.267448425292969;0.869842529296875;-11.357070922851562;1.1120758056640625
1445420864297;281.6679992675781;-77.12370300292969;-13.60256576538086;0.6737060546875;-12.730010986328125;0.24908447265625
1445420864329;282.2996826171875;-77.1464614868164;-13.829399108886719;-1.0522613525390625;-13.965652465820312;0.2686920166015625
1445420864363;281.8126220703125;-77.64083099365234;-13.537590980529785;0.1833648681640625;-13.946029663085938;-1.00616455078125
1445420864395;280.0223388671875;-79.68502044677734;-12.767778396606445;1.791656494140625;-11.533599853515625;-1.5945587158203125
1445420864429;280.2622985839844;-85.24799346923828;-12.392094612121582;2.9488525390625;-11.435531616210938;0.8374786376953125
1445420864461;280.51519775390625;-88.88483428955078;-12.195914268493652;3.3999481201171875;-12.02392578125;2.2496490478515625
1445420864496;280.7582702636719;-95.18158721923828;-11.99085521697998;2.183929443359375;-11.710113525390625;2.1907958984375
1445420864529;281.044189453125;-97.80517578125;-11.813901901245117;1.75244140625;-10.474472045898438;1.072845458984375
1445420864560;280.5791015625;-102.25595092773438;-11.597177505493164;1.12481689453125;-10.690231323242188;0.955169677734375
1445420864595;280.46820068359375;-105.98542022705078;-10.335651397705078;0.654083251953125;-10.121444702148438;1.0924530029296875
1445420864628;279.7838439941406;-107.54361724853516;-9.755420684814453;2.419281005859375;-7.316741943359375;1.072845458984375
1445420864660;277.1411437988281;-110.61288452148438;-9.072868347167969;2.7919464111328125;-6.865631103515625;1.1709136962890625
1445420864695;272.7496032714844;-112.31754302978516;-9.63416576385498;3.0272979736328125;-5.41424560546875;1.7985382080078125
1445420864725;270.9687805175781;-112.81867218017578;-10.106637954711914;3.2430419921875;-4.865081787109375;1.759307861328125
1445420864760;269.43731689453125;-112.32484436035156;-10.667815208435059;3.0272979736328125;-5.53192138671875;0.4844512939453125
1445420864793;269.224853515625;-111.07622528076172;-10.923382759094238;2.2819976806640625;-9.474197387695312;-2.7321319580078125
1445420864825;269.3489990234375;-107.28485107421875;-11.045225143432617;1.41900634765625;-13.749893188476562;-7.5373992919921875
1445420864858;269.12310791015625;-105.11766815185547;-10.933443069458008;1.2817230224609375;-13.49493408203125;-7.5177764892578125
1445420864890;267.54864501953125;-105.1649398803711;-11.123624801635742;1.732818603515625;-10.925582885742188;-4.144287109375
1445420864923;264.7471923828125;-105.58826446533203;-11.145962715148926;3.4784088134765625;-10.435256958007812;-3.0067291259765625
1445420864957;264.62939453125;-106.00989532470703;-11.85842514038086;4.4786834716796875;-12.318130493164062;-2.0456695556640625
1445420864990;265.15618896484375;-105.84768676757812;-12.000752449035645;4.007965087890625;-7.7678375244140625;0.2098541259765625
1445420865022;268.5475769042969;-105.83467102050781;-11.371417999267578;4.380615234375;-5.8653564453125;3.5637359619140625
1445420865055;271.30609130859375;-105.07830810546875;-10.814717292785645;4.243316650390625;-8.94464111328125;2.0338897705078125
1445420865089;275.6669616699219;-100.43394470214844;-10.50687313079834;2.61541748046875;-11.33746337890625;1.38665771484375
1445420865121;276.690185546875;-96.5332260131836;-9.808810234069824;-1.169952392578125;-10.670608520507812;2.58306884765625
1445420865154;277.00189208984375;-95.00411224365234;-9.355097770690918;0.301055908203125;-10.003753662109375;0.30792236328125
1445420865188;277.5871887207031;-93.75105285644531;-8.942054748535156;0.7325439453125;-10.435256958007812;0.7786407470703125
1445420865220;279.474853515625;-90.72644805908203;-7.710317611694336;-0.34619140625;-9.729171752929688;1.2885894775390625
1445420865254;280.10809326171875;-89.2768783569336;-7.211702823638916;1.36016845703125;-9.552658081054688;0.81787109375
1445420865287;282.6704406738281;-86.78961944580078;-6.729747772216797;2.1446990966796875;-9.317291259765625;0.621734619140625
1445420865320;285.537109375;-84.49982452392578;-6.965451717376709;1.98779296875;-9.258453369140625;0.7394256591796875
1445420865353;286.408447265625;-83.462890625;-7.294185638427734;0.5560302734375;-9.631103515625;1.072845458984375
1445420865385;287.786865234375;-81.59796905517578;-8.122764587402344;0.595245361328125;-9.670333862304688;1.1120758056640625
1445420865419;289.0091552734375;-79.67976379394531;-9.214237213134766;0.301055908203125;-9.886077880859375;1.44549560546875
1445420865452;289.6375427246094;-78.68793487548828;-9.81639575958252;0.1441497802734375;-10.160659790039062;1.5435638427734375
1445420865485;291.03021240234375;-77.05360412597656;-10.721778869628906;0.2029876708984375;-11.376693725585938;1.8573760986328125
1445420865518;292.6004333496094;-76.1049575805664;-11.32192325592041;1.0071258544921875;-11.867019653320312;0.24908447265625
1445420865551;293.4817810058594;-75.77252197265625;-11.616691589355469;-0.0716094970703125;-13.004592895507812;0.2686920166015625
1445420865583;294.0226745605469;-75.95771789550781;-11.618712425231934;-0.9934234619140625;-13.985260009765625;-1.0257720947265625
1445420865616;293.0199890136719;-77.59339141845703;-10.663867950439453;1.8701171875;-12.47503662109375;-1.6533966064453125
1445420865649;292.79608154296875;-79.52507781982422;-10.370208740234375;2.73309326171875;-11.474761962890625;-0.82965087890625
1445420865682;293.32708740234375;-85.92848205566406;-10.10392951965332;4.439453125;-11.984695434570312;2.151580810546875
1445420865716;293.5049743652344;-89.35111236572266;-10.054553031921387;3.9883575439453125;-12.29852294921875;1.38665771484375
1445420865749;294.6611328125;-95.2962875366211;-9.77124309539795;2.752716064453125;-11.45513916015625;0.7001953125
1445420865782;295.37213134765625;-100.16497039794922;-8.972108840942383;1.9681854248046875;-10.337188720703125;1.131683349609375
1445420865814;295.51116943359375;-102.10528564453125;-8.445669174194336;1.556304931640625;-9.533035278320312;1.523956298828125
1445420865847;295.09063720703125;-105.4261245727539;-7.618074893951416;1.222869873046875;-9.00347900390625;1.6808624267578125
1445420865881;291.733642578125;-108.97368621826172;-7.685711860656738;2.0270233154296875;-6.5910491943359375;1.190521240234375
1445420865914;289.8043518066406;-110.63538360595703;-8.049382209777832;2.4585113525390625;-5.9634246826171875;1.2297515869140625
1445420865947;286.7913513183594;-112.4485092163086;-9.215261459350586;2.8899993896484375;-5.17889404296875;1.7200775146484375
1445420865980;285.8282470703125;-111.9638442993164;-9.845520973205566;3.380340576171875;-5.1396636962890625;0.759033203125
1445420866012;286.10675048828125;-110.75257110595703;-9.95828628540039;3.0861358642578125;-6.1987762451171875;-0.3197021484375
1445420866046;286.417724609375;-106.7188491821289;-9.828160285949707;1.4582366943359375;-13.141891479492188;-6.3998260498046875
1445420866078;286.63507080078125;-104.79603576660156;-9.426966667175293;1.6935882568359375;-13.651840209960938;-9.38104248046875
1445420866111;285.65887451171875;-104.34441375732422;-9.234713554382324;1.673980712890625;-12.41619873046875;-7.243194580078125
1445420866145;282.9877014160156;-104.94275665283203;-9.440574645996094;3.0076904296875;-9.140777587890625;-2.7517547607421875
1445420866178;282.9164733886719;-105.38758850097656;-9.693548202514648;4.498291015625;-11.945480346679688;-1.7906951904296875
1445420866211;284.61492919921875;-105.65846252441406;-10.033143043518066;4.380615234375;-11.16094970703125;-1.0453948974609375
1445420866244;286.0483093261719;-105.59843444824219;-9.875396728515625;4.439453125;-7.179443359375;2.6222991943359375
1445420866278;290.60675048828125;-104.39491271972656;-9.199217796325684;4.3021697998046875;-6.2183990478515625;4.1128997802734375
1445420866311;296.3250732421875;-99.92025756835938;-8.703763961791992;2.73309326171875;-9.944915771484375;3.014556884765625
1445420866346;298.56317138671875;-95.0038070678711;-8.001873970031738;-0.5030975341796875;-11.965087890625;2.661529541015625
1445420866375;298.9256896972656;-93.70939636230469;-7.609538555145264;-1.4837646484375;-10.749069213867188;2.6222991943359375
1445420866409;300.0600891113281;-91.74839782714844;-7.092858791351318;0.9678955078125;-10.278350830078125;0.7786407470703125
1445420866441;301.05792236328125;-90.3373031616211;-6.7473578453063965;0.28143310546875;-9.474197387695312;1.700469970703125
1445420866480;303.0078430175781;-87.49758911132812;-6.09178352355957;1.2032623291015625;-9.611495971679688;0.7786407470703125
1445420866508;305.4384460449219;-84.90045928955078;-5.530812740325928;1.53668212890625;-9.258453369140625;0.759033203125
1445420866546;307.4098815917969;-83.7189712524414;-5.433532238006592;1.3797760009765625;-9.591873168945312;0.7001953125
1445420866574;310.4961242675781;-81.41410064697266;-5.810377597808838;1.3209381103515625;-9.729171752929688;0.935546875
1445420866607;312.2823486328125;-79.53094482421875;-6.753040790557861;0.9090576171875;-10.02337646484375;0.7001953125
1445420866639;312.883056640625;-78.62594604492188;-7.440705299377441;-0.1696624755859375;-10.356796264648438;1.249359130859375
1445420866672;314.1846923828125;-76.66590881347656;-8.914314270019531;-1.20916748046875;-10.925582885742188;1.26898193359375
1445420866705;314.7245178222656;-75.6943588256836;-9.373783111572266;0.928680419921875;-11.847412109375;0.6021270751953125
1445420866738;316.1397399902344;-74.27970123291016;-10.164106369018555;1.12481689453125;-11.925857543945312;-0.0254974365234375
1445420866772;318.0584716796875;-74.0949478149414;-10.885540008544922;0.418731689453125;-10.984420776367188;-1.1042327880859375
1445420866805;318.3988952636719;-74.27555084228516;-11.192057609558105;-2.5232696533203125;-13.338027954101562;-0.4177703857421875
1445420866838;318.01556396484375;-75.90351104736328;-11.085514068603516;-1.5622100830078125;-13.749893188476562;-0.692352294921875
1445420866871;315.9460754394531;-79.59949493408203;-10.007223129272461;2.693878173828125;-12.02392578125;-0.868865966796875
1445420866904;315.15478515625;-82.82137298583984;-9.80870532989502;4.9886322021484375;-12.906524658203125;1.3474273681640625
1445420866936;315.19744873046875;-90.80463409423828;-9.788861274719238;4.9101715087890625;-13.377243041992188;2.3084869384765625
1445420866969;315.6038513183594;-94.31464385986328;-9.716704368591309;2.5369720458984375;-12.239669799804688;2.0142822265625
1445420867002;315.26776123046875;-99.59296417236328;-9.489686012268066;1.2032623291015625;-11.45513916015625;1.9554443359375
1445420867036;314.421875;-103.30306243896484;-8.241177558898926;0.5560302734375;-10.847137451171875;0.8374786376953125
1445420867068;311.6873474121094;-106.38311004638672;-7.432653427124023;1.0855865478515625;-7.944366455078125;1.2885894775390625
1445420867102;309.2689514160156;-108.40396118164062;-7.5904860496521;1.5955352783203125;-6.5125885009765625;1.1120758056640625
1445420867134;304.5750732421875;-111.75300598144531;-8.350915908813477;2.61541748046875;-5.3750152587890625;1.249359130859375
1445420867168;302.48504638671875;-112.76641845703125;-8.967378616333008;3.2822723388671875;-5.610382080078125;1.4847259521484375
1445420867201;299.22589111328125;-112.80144500732422;-10.077532768249512;3.439178466796875;-5.3946380615234375;1.4062652587890625
1445420867234;298.3475036621094;-110.50994873046875;-10.54708480834961;3.6745452880859375;-6.179168701171875;0.680572509765625
1445420867266;298.34716796875;-108.48279571533203;-10.6856689453125;2.55657958984375;-10.25872802734375;-2.634063720703125
1445420867299;298.90216064453125;-103.95228576660156;-10.251726150512695;1.9093475341796875;-14.612884521484375;-7.4393310546875
1445420867333;297.86456298828125;-102.45791625976562;-9.67050838470459;0.7913818359375;-14.259841918945312;-9.106460571289062
1445420867367;295.77813720703125;-102.99002075195312;-9.64926528930664;0.7717742919921875;-9.376129150390625;-4.026611328125
1445420867399;293.7763977050781;-104.13043975830078;-9.370762825012207;2.7723236083984375;-8.120880126953125;-1.96722412109375
1445420867432;294.2140808105469;-104.24144744873047;-9.684626579284668;5.6358642578125;-11.847412109375;-0.7904205322265625
1445420867464;295.5261535644531;-103.45108795166016;-10.438462257385254;4.94940185546875;-11.121719360351562;0.1510162353515625
1445420867498;299.1972351074219;-102.80899810791016;-9.808415412902832;4.3413848876953125;-6.689117431640625;4.5051727294921875
1445420867531;305.2035827636719;-99.06086730957031;-8.75121784210205;3.4784088134765625;-10.160659790039062;2.52423095703125
1445420867564;307.9540710449219;-96.3701400756836;-8.889769554138184;1.615142822265625;-11.435531616210938;2.8184356689453125
1445420867598;308.7188720703125;-92.22159576416016;-8.627249717712402;-2.5232696533203125;-10.7686767578125;1.5435638427734375
1445420867630;308.9288024902344;-91.4406509399414;-8.081991195678711;-0.0519866943359375;-10.474472045898438;0.58251953125
1445420867663;310.215087890625;-89.23693084716797;-7.03597354888916;0.28143310546875;-9.886077880859375;0.9159393310546875
1445420867696;311.3740234375;-86.60784149169922;-6.056303024291992;0.987518310546875;-9.415359497070312;0.896331787109375
1445420867729;311.83294677734375;-85.38504028320312;-5.692502975463867;1.6543731689453125;-9.533035278320312;0.8571014404296875
1445420867764;313.9355163574219;-83.01361846923828;-5.417232513427734;1.673980712890625;-9.376129150390625;1.308197021484375
1445420867795;315.17218017578125;-81.89823150634766;-5.527308940887451;1.497467041015625;-9.572265625;1.21014404296875
1445420867827;316.687255859375;-79.64105987548828;-6.110411167144775;1.0071258544921875;-9.533035278320312;1.1120758056640625
1445420867863;317.6517333984375;-77.63787841796875;-7.166140556335449;0.8109893798828125;-10.062606811523438;1.308197021484375
1445420867893;318.02593994140625;-76.6728744506836;-7.779745578765869;0.7521514892578125;-10.494094848632812;0.8571014404296875
1445420867927;318.6466369628906;-74.64087677001953;-9.253874778747559;0.04608154296875;-10.631378173828125;1.249359130859375
1445420867964;319.20770263671875;-73.27140045166016;-10.339662551879883;0.301055908203125;-11.062881469726562;0.5432891845703125
1445420867993;319.4997863769531;-72.85482025146484;-10.557655334472656;0.7129364013671875;-11.259017944335938;-0.1039581298828125
1445420868026;320.6126403808594;-72.74993896484375;-10.833176612854004;0.7717742919921875;-11.592437744140625;-0.574676513671875
1445420868058;320.7130126953125;-73.3123550415039;-10.845137596130371;-1.5426025390625;-13.808746337890625;-0.6138916015625
1445420868095;320.2209167480469;-74.3160629272461;-10.409643173217773;1.2817230224609375;-12.494644165039062;-1.12384033203125
1445420868124;318.9032287597656;-78.75054168701172;-9.638110160827637;2.4585113525390625;-11.945480346679688;-0.3393096923828125
1445420868157;317.925048828125;-86.26649475097656;-9.589448928833008;4.2041015625;-12.749618530273438;2.0731201171875
1445420868191;317.95196533203125;-89.8510971069336;-9.635714530944824;4.2825469970703125;-13.024200439453125;2.2496490478515625
1445420868223;318.5364685058594;-96.12661743164062;-9.361916542053223;2.752716064453125;-11.867019653320312;1.4847259521484375
1445420868257;317.5986328125;-100.56424713134766;-8.985508918762207;1.1444244384765625;-11.082489013671875;1.2885894775390625
1445420868290;317.22943115234375;-102.4338607788086;-8.515414237976074;0.7913818359375;-10.356796264648438;0.994384765625
1445420868323;315.4500732421875;-105.96351623535156;-7.789769649505615;1.47784423828125;-8.003204345703125;1.190521240234375
1445420868356;313.8826904296875;-107.88642120361328;-7.682341575622559;2.164306640625;-6.2576141357421875;0.896331787109375
1445420868388;309.874267578125;-111.04991912841797;-8.11858081817627;2.43890380859375;-5.8261260986328125;0.8571014404296875
1445420868421;306.40240478515625;-112.07019805908203;-9.191162109375;2.988067626953125;-5.492706298828125;1.0532379150390625
1445420868455;305.28778076171875;-111.70536041259766;-9.551249504089355;2.9488525390625;-5.8065185546875;0.5236663818359375
1445420868488;304.3213806152344;-109.33260345458984;-9.832712173461914;2.752716064453125;-6.66949462890625;-0.4373779296875
1445420868521;304.02996826171875;-105.51887512207031;-9.724278450012207;2.2623748779296875;-10.19989013671875;-3.9481658935546875
1445420868554;304.2677307128906;-103.72831726074219;-9.476889610290527;0.8502197265625;-13.90679931640625;-8.24346923828125
1445420868586;302.0600280761719;-102.55355072021484;-9.275696754455566;1.5955352783203125;-11.808181762695312;-5.0072784423828125
1445420868619;299.3575134277344;-103.26261901855469;-8.746883392333984;3.2234344482421875;-7.610931396484375;-2.32025146484375
1445420868653;298.902099609375;-103.82060241699219;-8.581929206848145;5.6162567138671875;-10.25872802734375;-1.6141815185546875
1445420868685;299.3815002441406;-104.00778198242188;-9.263697624206543;5.7535552978515625;-13.436080932617188;-2.1241302490234375
1445420868718;300.08642578125;-103.84772491455078;-9.408731460571289;3.63531494140625;-7.92474365234375;1.759307861328125
1445420868751;302.1656494140625;-103.84568786621094;-8.627606391906738;2.5958099365234375;-5.9438018798828125;4.7405242919921875
1445420868785;306.0375061035156;-100.58855438232422;-7.702248573303223;2.38006591796875;-10.376419067382812;3.83831787109375
1445420868817;308.60986328125;-97.91152954101562;-7.448762893676758;0.7129364013671875;-12.063156127929688;2.0731201171875
1445420868851;311.2189025878906;-93.47962951660156;-6.6469550132751465;0.34027099609375;-11.004043579101562;2.2300262451171875
1445420868883;313.2347717285156;-90.843505859375;-5.408720016479492;2.066253662109375;-9.533035278320312;1.6220245361328125
1445420868917;314.8971862792969;-89.39521789550781;-4.87577486038208;1.673980712890625;-9.807632446289062;1.21014404296875
1445420868950;318.00384521484375;-86.96414947509766;-4.242559909820557;0.4579620361328125;-9.45458984375;1.7397003173828125
1445420868983;320.6130676269531;-84.49425506591797;-3.830655097961426;0.477569580078125;-9.96453857421875;1.249359130859375
1445420869017;322.2920837402344;-83.45338439941406;-3.6991288661956787;1.0855865478515625;-10.239120483398438;1.1709136962890625
1445420869049;326.3442687988281;-81.5820541381836;-3.372596025466919;1.3797760009765625;-10.08221435546875;1.465118408203125
1445420869082;329.54681396484375;-80.1661376953125;-3.453434705734253;1.2621002197265625;-9.96453857421875;2.0338897705078125
1445420869115;331.1786193847656;-79.59465789794922;-3.684602737426758;1.2817230224609375;-10.160659790039062;2.0142822265625
1445420869147;335.032958984375;-78.55953216552734;-4.26298713684082;1.2817230224609375;-9.729171752929688;1.7200775146484375
1445420869180;337.0375671386719;-78.20685577392578;-4.4935994148254395;-0.091217041015625;-9.68994140625;2.75958251953125
1445420869214;341.11651611328125;-77.6153793334961;-4.966695308685303;-1.3072357177734375;-9.925308227539062;2.720367431640625
1445420869247;346.2115173339844;-77.21533966064453;-5.536410808563232;-0.7580718994140625;-9.395751953125;0.896331787109375
1445420869281;348.6995849609375;-77.15934753417969;-5.6861162185668945;0.7521514892578125;-11.651275634765625;1.131683349609375
1445420869313;353.681396484375;-77.9264144897461;-5.4274001121521;2.2623748779296875;-12.278900146484375;-0.0254974365234375
1445420869346;0.101470947265625;-80.61418914794922;-6.824986934661865;5.5770263671875;-12.02392578125;0.4059906005859375
1445420869378;4.165069580078125;-82.78035736083984;-8.055998802185059;6.7538299560546875;-11.670883178710938;1.072845458984375
1445420869413;12.740203857421875;-87.716552734375;-10.372041702270508;7.3226165771484375;-11.10211181640625;2.779205322265625
1445420869445;19.697601318359375;-92.0508804321289;-12.413177490234375;5.1063079833984375;-10.396026611328125;3.7010345458984375
1445420869479;22.58758544921875;-93.67106628417969;-13.123720169067383;4.517913818359375;-9.709564208984375;2.58306884765625
1445420869511;28.922088623046875;-95.71000671386719;-13.604557037353516;2.49774169921875;-9.101547241210938;1.249359130859375
1445420869545;33.734954833984375;-97.07633209228516;-14.14033031463623;1.850494384765625;-7.92474365234375;0.955169677734375
1445420869578;35.6251220703125;-97.87598419189453;-14.848557472229004;2.38006591796875;-7.316741943359375;0.9747772216796875
1445420869611;39.64300537109375;-99.60281372070312;-16.759593963623047;3.4587860107421875;-7.9051361083984375;0.9159393310546875
1445420869643;41.991302490234375;-100.36788940429688;-17.60320281982422;3.1645965576171875;-8.88580322265625;-0.7904205322265625
1445420869679;46.710052490234375;-101.13097381591797;-18.48906135559082;2.32122802734375;-9.023101806640625;-1.18267822265625
1445420869714;51.34197998046875;-100.71463775634766;-18.44463348388672;0.8502197265625;-9.081939697265625;-2.006439208984375
1445420869741;54.194091796875;-100.52983093261719;-18.20792579650879;0.869842529296875;-9.140777587890625;-2.575225830078125
1445420869774;60.074554443359375;-100.37152099609375;-17.542932510375977;1.47784423828125;-9.572265625;-4.026611328125
1445420869808;63.6895751953125;-99.92157745361328;-17.663013458251953;2.8899993896484375;-8.846572875976562;-4.5757904052734375
1445420869841;65.571044921875;-99.946533203125;-17.83257293701172;3.51763916015625;-8.983871459960938;-5.1053466796875
1445420869873;69.10308837890625;-100.60934448242188;-18.2399845123291;4.753265380859375;-9.023101806640625;-2.5948486328125
1445420869906;70.38861083984375;-100.99549865722656;-18.392719268798828;2.3996734619140625;-11.239395141601562;-1.888763427734375
1445420869939;72.5504150390625;-99.8241958618164;-17.19095802307129;2.43890380859375;-10.435256958007812;-1.4768829345703125
1445420869972;77.25650024414062;-97.3219985961914;-15.197704315185547;4.007965087890625;-8.356246948242188;1.523956298828125
1445420870006;79.47207641601562;-95.92290496826172;-14.806382179260254;2.301605224609375;-10.02337646484375;2.3673248291015625
1445420870038;81.883544921875;-92.52291107177734;-13.857218742370605;0.9678955078125;-10.788284301757812;2.1319580078125
1445420870072;84.62237548828125;-89.3940658569336;-11.792569160461426;0.8894500732421875;-11.004043579101562;2.1123504638671875
1445420870105;86.85751342773438;-87.87775421142578;-10.614627838134766;1.2817230224609375;-10.611770629882812;2.0731201171875
1445420870158;92.96768188476562;-83.90193176269531;-8.078705787658691;1.12481689453125;-9.68994140625;1.21014404296875
1445420870170;92.96768188476562;-83.90193176269531;-8.078705787658691;0.7717742919921875;-9.670333862304688;1.32781982421875
1445420870203;97.06201171875;-81.28353118896484;-6.935155391693115;0.4971771240234375;-9.90570068359375;1.700469970703125
1445420870239;101.71014404296875;-79.36370849609375;-6.292697906494141;0.28143310546875;-10.101821899414062;1.876983642578125
1445420870274;105.98452758789062;-77.54292297363281;-6.031319618225098;-0.34619140625;-10.670608520507812;1.131683349609375
1445420870307;108.35223388671875;-76.7833480834961;-5.953240394592285;-0.267730712890625;-10.062606811523438;1.32781982421875
1445420870336;112.421875;-75.18527221679688;-5.807816505432129;0.3991241455078125;-9.631103515625;1.9554443359375
1445420870373;115.49455261230469;-73.7490005493164;-6.187493324279785;1.732818603515625;-9.631103515625;0.9747772216796875
1445420870404;116.66954040527344;-73.14539337158203;-6.744746208190918;1.9485626220703125;-9.886077880859375;1.0532379150390625
1445420870435;119.19155883789062;-72.06126403808594;-8.234597206115723;0.10491943359375;-10.121444702148438;2.445770263671875
1445420870473;122.41610717773438;-71.0348129272461;-9.32967472076416;0.6344757080078125;-11.023651123046875;0.504058837890625
1445420870508;123.86003112792969;-70.4905776977539;-9.802056312561035;1.12481689453125;-10.729446411132812;0.24908447265625
1445420870549;126.55776977539062;-69.97075653076172;-10.742825508117676;1.24249267578125;-11.572830200195312;-0.6138916015625
1445420870567;127.97991943359375;-69.9942398071289;-11.169629096984863;1.24249267578125;-11.572830200195312;-0.6138916015625
1445420870606;130.1565704345703;-71.10958099365234;-11.20419979095459;-1.405303955078125;-14.220611572265625;0.2098541259765625
1445420870638;130.24595642089844;-74.03948974609375;-10.222142219543457;0.3795013427734375;-12.690780639648438;-0.4962158203125
1445420870695;129.3059539794922;-79.67861938476562;-10.173434257507324;2.125091552734375;-12.043548583984375;0.680572509765625
1445420870760;127.20681762695312;-91.1634292602539;-10.504365921020508;3.1645965576171875;-10.729446411132812;1.56317138671875
1445420870766;127.20681762695312;-91.1634292602539;-10.504365921020508;3.1645965576171875;-10.729446411132812;1.56317138671875
1445420870794;127.00146484375;-95.61589050292969;-10.847944259643555;1.8897247314453125;-9.631103515625;1.2885894775390625
1445420870827;127.12149047851562;-97.54381561279297;-10.656017303466797;1.0071258544921875;-9.533035278320312;0.994384765625
1445420870864;125.49349975585938;-100.84738159179688;-9.957656860351562;0.9678955078125;-8.3758544921875;1.26898193359375
1445420870893;123.69668579101562;-102.8191909790039;-9.810785293579102;2.3996734619140625;-7.1598358154296875;1.4062652587890625
1445420870928;119.11492919921875;-105.80335998535156;-10.027539253234863;2.752716064453125;-6.49298095703125;1.4847259521484375
1445420870963;114.81680297851562;-107.32389068603516;-10.444621086120605;2.929229736328125;-5.551544189453125;1.249359130859375
1445420870993;113.2724609375;-107.37100219726562;-10.587286949157715;2.635040283203125;-6.1595458984375;0.1510162353515625
1445420871025;111.31527709960938;-105.77715301513672;-10.906689643859863;2.0858612060546875;-7.5128631591796875;-0.9865570068359375
