sep=;
timestamp;gyro-alpha;gyro-beta;gyro-gamma;accel-x;accel-y;accel-z
1445425398229;142.27743530273438;-114.1364517211914;-8.061606407165527;0.242218017578125;-7.63055419921875;-3.7520294189453125
1445425398261;140.2013397216797;-113.88397216796875;-8.414238929748535;-2.150604248046875;-9.199615478515625;-4.65423583984375
1445425398294;135.93145751953125;-112.63919830322266;-8.391355514526367;-2.621337890625;-10.180282592773438;-4.850372314453125
1445425398328;131.0515594482422;-111.37572479248047;-7.725345611572266;-1.856414794921875;-11.435531616210938;-6.105621337890625
1445425398359;128.70547485351562;-111.12960815429688;-7.3384504318237305;0.28143310546875;-9.631103515625;-6.2625274658203125
1445425398392;123.4366455078125;-111.19264221191406;-7.476625442504883;0.5167999267578125;-8.454315185546875;-5.026885986328125
1445425398426;120.9307861328125;-111.40660095214844;-7.780909538269043;2.929229736328125;-7.9639739990234375;-2.7321319580078125
1445425398458;118.77775573730469;-111.778076171875;-7.746679306030273;4.380615234375;-10.180282592773438;-2.1633453369140625
1445425398493;119.68376159667969;-111.1705322265625;-8.205225944519043;3.2430419921875;-14.024490356445312;-2.575225830078125
1445425398524;120.3675537109375;-111.42407989501953;-8.304932594299316;2.55657958984375;-8.76812744140625;0.7982635498046875
1445425398556;121.63720703125;-111.8302230834961;-7.533278942108154;1.556304931640625;-7.669769287109375;1.249359130859375
1445425398589;124.88705444335938;-108.43511962890625;-6.092705726623535;-1.1895599365234375;-11.10211181640625;0.7394256591796875
1445425398623;125.74604797363281;-106.09088897705078;-5.768518924713135;-0.0519866943359375;-9.650726318359375;0.13140869140625
1445425398656;125.09677124023438;-102.490478515625;-5.606072902679443;1.3209381103515625;-9.06231689453125;0.2883148193359375
1445425398689;124.76982116699219;-99.16101837158203;-5.5943779945373535;2.811553955078125;-9.258453369140625;0.0333404541015625
1445425398722;125.06822204589844;-97.29227447509766;-5.843995094299316;0.8894500732421875;-10.101821899414062;0.1510162353515625
1445425398755;125.07566833496094;-93.96955108642578;-6.573705196380615;0.418731689453125;-9.96453857421875;0.30792236328125
1445425398787;125.03817749023438;-91.45800018310547;-6.868701934814453;0.359893798828125;-9.552658081054688;0.504058837890625
1445425398821;125.2139892578125;-90.22732543945312;-7.0410075187683105;-0.0716094970703125;-9.90570068359375;0.7786407470703125
1445425398855;125.77389526367188;-87.88542175292969;-7.394531726837158;-0.3069610595703125;-9.984146118164062;0.8571014404296875
1445425398887;126.41046142578125;-85.72330474853516;-7.802342414855957;0.7325439453125;-9.748779296875;0.58251953125
1445425398920;126.86221313476562;-84.74353790283203;-8.091473579406738;1.105194091796875;-9.591873168945312;0.6609649658203125
1445425398953;128.54931640625;-82.95133972167969;-8.760414123535156;1.3405609130859375;-10.062606811523438;0.7198028564453125
1445425398987;129.68560791015625;-82.04827117919922;-9.163477897644043;0.8502197265625;-10.7686767578125;0.386383056640625
1445425399018;131.7511444091797;-80.33694458007812;-10.417802810668945;0.0853118896484375;-10.8863525390625;0.5236663818359375
1445425399052;133.29774475097656;-79.4588851928711;-11.470739364624023;-0.287353515625;-11.474761962890625;-0.2216339111328125
1445425399086;134.11114501953125;-79.19599151611328;-11.860346794128418;0.04608154296875;-11.867019653320312;-1.4180450439453125
1445425399118;136.03993225097656;-79.15413665771484;-12.861291885375977;-0.4638671875;-11.867019653320312;-1.2807464599609375
1445425399151;137.4086151123047;-80.10692596435547;-13.714394569396973;-1.6406707763671875;-11.749343872070312;-1.3592071533203125
1445425399184;137.19920349121094;-81.30192565917969;-13.405706405639648;-1.974090576171875;-12.259292602539062;-1.6141815185546875
1445425399217;135.64187622070312;-85.53865814208984;-11.434600830078125;-1.9544830322265625;-13.808746337890625;1.44549560546875
1445425399250;133.4689178466797;-90.64763641357422;-9.106980323791504;2.183929443359375;-13.357635498046875;2.9164886474609375
1445425399283;132.8166046142578;-93.18501281738281;-7.982913494110107;3.9098968505859375;-13.592987060546875;2.0535125732421875
1445425399317;133.1397247314453;-97.88948822021484;-5.918219566345215;3.8510589599609375;-12.573104858398438;0.4648284912109375
1445425399348;133.47503662109375;-99.90199279785156;-4.982230186462402;0.7913818359375;-10.6510009765625;0.1510162353515625
1445425399382;130.2584228515625;-103.06063842773438;-3.5724079608917236;0.4971771240234375;-9.591873168945312;0.4059906005859375
1445425399414;123.96929931640625;-106.58773803710938;-3.2330026626586914;0.2618255615234375;-8.238555908203125;0.8571014404296875
1445425399447;120.50979614257812;-108.34565734863281;-3.402904748916626;0.34027099609375;-7.885528564453125;1.1120758056640625
1445425399481;112.91070556640625;-111.498291015625;-4.159734725952148;0.5560302734375;-7.8462982177734375;0.896331787109375
1445425399514;105.86483764648438;-113.38617706298828;-5.066390514373779;1.5759124755859375;-7.493255615234375;0.1706390380859375
1445425399549;103.20452880859375;-113.68985748291016;-5.414482593536377;2.10546875;-7.68939208984375;-1.457275390625
1445425399579;98.82220458984375;-113.31900787353516;-5.824306011199951;1.7132110595703125;-8.1993408203125;-2.2418060302734375
1445425399614;97.25506591796875;-112.9874038696289;-5.833014965057373;1.2817230224609375;-8.807342529296875;-3.6343536376953125
1445425399651;94.50503540039062;-112.41117095947266;-5.997943878173828;0.4579620361328125;-8.415084838867188;-4.3011932373046875
1445425399679;91.18988037109375;-111.74227142333984;-6.96669864654541;-0.34619140625;-8.571990966796875;-5.3406982421875
1445425399714;89.23333740234375;-111.26827239990234;-7.594416618347168;-0.7384490966796875;-11.376693725585938;-6.0271759033203125
1445425399745;84.86770629882812;-110.24723052978516;-8.495083808898926;0.301055908203125;-11.357070922851562;-6.1252288818359375
1445425399778;81.45907592773438;-110.197998046875;-8.157919883728027;1.0855865478515625;-8.277786254882812;-6.242919921875
1445425399811;79.53924560546875;-110.51986694335938;-8.096491813659668;3.0861358642578125;-8.964248657226562;-3.6931915283203125
1445425399846;76.63143920898438;-110.88323974609375;-8.15466022491455;4.5963592529296875;-11.847412109375;-3.889312744140625
1445425399878;75.7923583984375;-110.72738647460938;-8.663140296936035;4.83172607421875;-12.867294311523438;-3.085174560546875
1445425399911;75.985107421875;-111.0006332397461;-9.068269729614258;2.9488525390625;-10.729446411132812;-1.5945587158203125
1445425399947;77.17996215820312;-112.05662536621094;-8.744813919067383;1.222869873046875;-7.0225372314453125;1.8966064453125
1445425399975;78.75341796875;-111.63168334960938;-7.7271037101745605;0.654083251953125;-10.239120483398438;2.1319580078125
1445425400013;83.67630004882812;-107.90736389160156;-5.88799524307251;-0.1892852783203125;-11.239395141601562;0.2686920166015625
1445425400041;85.83319091796875;-103.7574691772461;-5.176556587219238;0.28143310546875;-9.886077880859375;-0.1431732177734375
1445425400075;85.84600830078125;-99.96102142333984;-4.596449851989746;2.046630859375;-8.415084838867188;0.386383056640625
1445425400108;86.18402099609375;-98.08495330810547;-4.398367404937744;2.2819976806640625;-8.709274291992188;0.6021270751953125
1445425400141;87.24224853515625;-94.17628479003906;-4.502554893493652;0.928680419921875;-10.219512939453125;0.504058837890625
1445425400174;88.1204833984375;-92.40880584716797;-4.566591739654541;0.3795013427734375;-9.788009643554688;0.504058837890625
1445425400206;90.66519165039062;-89.17160034179688;-4.688236713409424;0.5560302734375;-9.415359497070312;0.680572509765625
1445425400239;92.86050415039062;-85.8692855834961;-5.131570339202881;0.3206634521484375;-9.90570068359375;1.759307861328125
1445425400273;94.1104736328125;-84.24807739257812;-5.360682964324951;0.6737060546875;-9.846847534179688;1.014007568359375
1445425400305;96.57406616210938;-81.2862548828125;-5.7194600105285645;0.9678955078125;-9.748779296875;0.4256134033203125
1445425400339;98.78314208984375;-78.86247253417969;-6.39168119430542;0.6737060546875;-9.925308227539062;0.8374786376953125
1445425400372;100.049560546875;-77.77460479736328;-6.904630184173584;0.418731689453125;-10.160659790039062;0.876708984375
1445425400405;102.47714233398438;-75.95703125;-8.08098316192627;0.2029876708984375;-10.513702392578125;0.9747772216796875
1445425400437;103.58792114257812;-75.1105728149414;-8.679300308227539;-0.208892822265625;-11.317855834960938;0.9159393310546875
1445425400471;106.26396179199219;-73.63695526123047;-9.65145206451416;-0.01275634765625;-11.612045288085938;0.759033203125
1445425400503;109.66578674316406;-72.97228240966797;-10.3773193359375;1.12481689453125;-11.847412109375;-0.692352294921875
1445425400537;111.42019653320312;-73.09832763671875;-10.80104923248291;-0.326568603515625;-13.063430786132812;-1.0453948974609375
1445425400570;113.93807983398438;-74.82244873046875;-10.908408164978027;-1.7583465576171875;-12.161224365234375;-0.3197021484375
1445425400602;114.29888916015625;-78.90403747558594;-9.167472839355469;-2.8762969970703125;-13.0438232421875;0.4648284912109375
1445425400635;113.8714599609375;-81.55216979980469;-7.98147439956665;1.8308868408203125;-13.867584228515625;2.64190673828125
1445425400668;113.40959167480469;-86.89566040039062;-5.62474250793457;4.066802978515625;-13.828353881835938;3.7598724365234375
1445425400701;114.84523010253906;-91.65518188476562;-3.711738109588623;5.832000732421875;-12.749618530273438;1.50433349609375
1445425400735;116.11805725097656;-93.96282958984375;-2.985481023788452;3.1449737548828125;-10.6510009765625;-0.2216339111328125
1445425400767;116.595703125;-98.06576538085938;-2.00059175491333;2.164306640625;-9.06231689453125;0.4648284912109375
1445425400801;112.77484130859375;-102.50172424316406;-1.9428322315216064;0.3206634521484375;-8.277786254882812;1.32781982421875
1445425400834;110.35247802734375;-104.71857452392578;-2.127948045730591;0.0068511962890625;-8.022811889648438;1.5435638427734375
1445425400866;105.20404052734375;-108.80390167236328;-2.716897487640381;0.654083251953125;-7.1402130126953125;1.014007568359375
1445425400900;100.44949340820312;-111.77288055419922;-3.75457763671875;1.438629150390625;-6.355682373046875;-0.4177703857421875
1445425400933;98.354248046875;-112.40190124511719;-4.343446731567383;1.5955352783203125;-6.296844482421875;-1.3984375
1445425400965;94.6436767578125;-112.31143188476562;-5.212564945220947;0.5756378173828125;-7.35595703125;-2.6144561767578125
1445425400999;93.17388916015625;-111.63570404052734;-5.2766218185424805;0.3795013427734375;-8.532760620117188;-3.57550048828125
1445425401033;91.64932250976562;-109.75963592529297;-4.725734233856201;0.595245361328125;-8.689666748046875;-4.2031402587890625
1445425401065;90.3828125;-108.38532257080078;-4.688834190368652;0.359893798828125;-10.14105224609375;-6.5959625244140625
1445425401097;89.60552978515625;-108.05376434326172;-4.642096042633057;-0.3854217529296875;-11.808181762695312;-8.439605712890625
1445425401131;87.22787475585938;-108.6480941772461;-4.458690166473389;-0.91497802734375;-11.474761962890625;-8.086563110351562
1445425401163;84.06399536132812;-110.45157623291016;-4.565408229827881;1.8897247314453125;-8.277786254882812;-4.47772216796875
1445425401198;83.47158813476562;-111.24623107910156;-4.69177770614624;4.0864105224609375;-9.101547241210938;-2.8890380859375
1445425401231;84.99130249023438;-111.884765625;-5.098208904266357;5.8712310791015625;-12.631942749023438;-2.5556182861328125
1445425401263;86.57730102539062;-111.93975830078125;-5.311637878417969;4.8513336181640625;-12.965362548828125;-3.0067291259765625
1445425401296;89.37615966796875;-112.42027282714844;-5.084659099578857;2.32122802734375;-8.395462036132812;1.4062652587890625
1445425401329;93.82415771484375;-111.101806640625;-3.002208709716797;1.0855865478515625;-7.4736480712890625;3.1126251220703125
1445425401364;97.09051513671875;-108.72335815429688;-2.038245916366577;-0.267730712890625;-11.376693725585938;0.955169677734375
1445425401396;100.59268188476562;-103.8407974243164;-1.7570205926895142;-0.777679443359375;-11.317855834960938;0.30792236328125
1445425401430;102.00311279296875;-99.83321380615234;-1.522711992263794;0.5167999267578125;-9.670333862304688;0.24908447265625
1445425401465;102.83309936523438;-97.81871795654297;-1.313246250152588;2.0858612060546875;-9.00347900390625;0.504058837890625
1445425401493;104.26426696777344;-93.70702362060547;-1.6772046089172363;1.2817230224609375;-9.434967041015625;0.680572509765625
1445425401530;106.59512329101562;-90.15151977539062;-2.131348133087158;0.0656890869140625;-9.788009643554688;0.621734619140625
1445425401565;107.86282348632812;-88.58924102783203;-2.385483741760254;0.654083251953125;-9.591873168945312;1.072845458984375
1445425401596;109.91873168945312;-85.62614440917969;-3.3056111335754395;0.4971771240234375;-9.788009643554688;1.190521240234375
1445425401628;110.89202880859375;-84.300537109375;-3.8813529014587402;0.0853118896484375;-9.729171752929688;0.8374786376953125
1445425401661;112.87202453613281;-82.03925323486328;-4.981355667114258;-0.1108245849609375;-9.709564208984375;0.7198028564453125
1445425401694;114.62921142578125;-80.0636978149414;-6.085705757141113;0.026458740234375;-10.7686767578125;0.7786407470703125
1445425401725;115.4686279296875;-79.06079864501953;-6.701059818267822;0.5560302734375;-11.121719360351562;-0.0451202392578125
1445425401758;117.05337524414062;-77.23509979248047;-8.269196510314941;0.1833648681640625;-10.807907104492188;0.0921783447265625
1445425401790;119.11872863769531;-76.57474517822266;-9.932148933410645;-1.1307220458984375;-11.239395141601562;0.81787109375
1445425401824;120.28163146972656;-76.58987426757812;-10.35665512084961;0.7129364013671875;-12.141616821289062;-1.06500244140625
1445425401857;123.14323425292969;-76.87770080566406;-10.988189697265625;0.3991241455078125;-12.59271240234375;-1.12384033203125
1445425401889;124.71939086914062;-77.33367919921875;-11.302470207214355;-0.8169097900390625;-10.8863525390625;-0.9669342041015625
1445425401922;127.28317260742188;-79.8885726928711;-10.814029693603516;-0.3657989501953125;-11.200164794921875;-0.868865966796875
1445425401956;128.04051208496094;-84.47534942626953;-8.632076263427734;1.98779296875;-14.142166137695312;1.9162139892578125
1445425401989;128.30601501464844;-87.06878662109375;-7.416710376739502;5.2828216552734375;-14.259841918945312;1.7985382080078125
1445425402022;129.86871337890625;-92.04708862304688;-5.105175018310547;5.96929931640625;-13.475311279296875;0.7982635498046875
1445425402055;133.12619018554688;-96.34110260009766;-2.957569122314453;4.576751708984375;-11.004043579101562;-0.2804718017578125
1445425402090;134.6138916015625;-98.02539825439453;-1.9964600801467896;3.380340576171875;-9.768402099609375;-0.123565673828125
1445425402120;133.1959686279297;-101.52399444580078;-0.6529033184051514;1.615142822265625;-7.9051361083984375;0.5236663818359375
1445425402154;128.97406005859375;-105.6240463256836;-0.34034857153892517;-0.287353515625;-7.9051361083984375;0.7198028564453125
1445425402187;126.29788208007812;-107.59120178222656;-0.5166851878166199;0.28143310546875;-7.042144775390625;0.8571014404296875
1445425402219;120.37892150878906;-111.18522644042969;-1.3677438497543335;1.0855865478515625;-6.37530517578125;0.4256134033203125
1445425402253;115.95211791992188;-112.75800323486328;-2.338433265686035;2.0270233154296875;-6.1595458984375;-1.18267822265625
1445425402287;114.70956420898438;-112.51557159423828;-2.5211703777313232;1.732818603515625;-6.3949127197265625;-1.9279937744140625
1445425402318;113.44381713867188;-110.64781951904297;-2.3154306411743164;0.359893798828125;-6.865631103515625;-2.2221832275390625
1445425402351;113.08987426757812;-109.39047241210938;-2.116265296936035;0.0656890869140625;-7.92474365234375;-3.5558929443359375
1445425402385;112.79776000976562;-106.77680206298828;-1.9016278982162476;-0.0519866943359375;-9.3369140625;-5.1445770263671875
1445425402418;111.90850830078125;-104.74540710449219;-2.077367067337036;-2.0133209228515625;-13.710678100585938;-8.12579345703125
1445425402450;111.05020141601562;-104.61486053466797;-1.9648655652999878;-1.7191162109375;-13.239959716796875;-7.0862884521484375
1445425402483;107.99557495117188;-106.7617416381836;-1.4519990682601929;-1.3660736083984375;-10.396026611328125;-5.73297119140625
1445425402517;105.6070556640625;-109.284912109375;-1.4876267910003662;0.9678955078125;-8.4346923828125;-2.692901611328125
1445425402551;106.03021240234375;-109.73004150390625;-1.3312638998031616;5.3612823486328125;-13.808746337890625;-2.9871063232421875
1445425402583;108.58697509765625;-108.95642852783203;-1.4748845100402832;5.4005126953125;-14.573654174804688;-2.692901611328125
1445425402616;112.60398864746094;-109.59622192382812;-0.8593399524688721;4.32177734375;-8.787734985351562;1.249359130859375
1445425402650;114.14274597167969;-110.06913757324219;-0.03865033760666847;3.556854248046875;-6.0026397705078125;3.5048980712890625
1445425402681;119.15303039550781;-107.31905364990234;1.4776310920715332;2.2819976806640625;-9.297683715820312;3.014556884765625
1445425402715;122.39544677734375;-104.85820770263672;1.5069066286087036;-0.3657989501953125;-12.631942749023438;0.955169677734375
1445425402748;125.44845581054688;-101.23980712890625;1.4186300039291382;-0.6207733154296875;-10.8863525390625;0.2883148193359375
1445425402780;127.44656372070312;-97.89008331298828;1.8008930683135986;1.928955078125;-8.82696533203125;0.994384765625
1445425402813;128.74761962890625;-96.14925384521484;1.58034086227417;1.9093475341796875;-9.68994140625;0.8374786376953125
1445425402846;132.50193786621094;-93.02922058105469;0.4075915217399597;0.869842529296875;-10.121444702148438;0.5432891845703125
1445425402881;137.04962158203125;-90.80010986328125;-1.054085612297058;-0.895355224609375;-10.239120483398438;0.1510162353515625
1445425402913;138.7693634033203;-89.9486083984375;-1.732165813446045;-1.4445343017578125;-10.121444702148438;-0.005889892578125
1445425402946;141.771240234375;-88.45369720458984;-2.936253309249878;-1.522979736328125;-10.042984008789062;-0.005889892578125
1445425402979;143.368896484375;-87.75764465332031;-3.4043779373168945;-1.287628173828125;-9.650726318359375;-0.2020263671875
1445425403011;146.06019592285156;-86.66141510009766;-4.249720096588135;-1.2680206298828125;-9.748779296875;-0.005889892578125
1445425403046;148.54458618164062;-86.0068359375;-5.137882232666016;-0.7384490966796875;-9.96453857421875;0.19024658203125
1445425403078;150.8399200439453;-85.5877914428711;-6.177069187164307;-0.601165771484375;-10.31756591796875;0.5432891845703125
1445425403110;151.7431640625;-85.39807891845703;-6.813864707946777;-0.895355224609375;-10.984420776367188;0.7982635498046875
1445425403143;153.9276885986328;-85.17699432373047;-8.158528327941895;-0.1892852783203125;-11.651275634765625;-0.2804718017578125
1445425403177;155.32118225097656;-85.14777374267578;-8.856352806091309;-0.4442596435546875;-12.59271240234375;-1.4180450439453125
1445425403211;157.9186248779297;-85.63677215576172;-10.166943550109863;-0.836517333984375;-12.867294311523438;-1.574951171875
1445425403244;160.60667419433594;-87.15144348144531;-10.527877807617188;0.301055908203125;-11.553207397460938;-1.8691558837890625
1445425403276;161.9414825439453;-88.32304382324219;-10.379426956176758;1.811279296875;-10.611770629882812;-1.2415313720703125
1445425403308;165.37197875976562;-91.88208770751953;-9.271470069885254;3.1449737548828125;-11.043258666992188;-1.496490478515625
1445425403341;170.44235229492188;-95.86744689941406;-6.916932106018066;3.87066650390625;-11.33746337890625;-1.712249755859375
1445425403375;172.70309448242188;-97.3624267578125;-5.6414690017700195;3.615692138671875;-10.866744995117188;-1.9279937744140625
1445425403408;175.57498168945312;-99.30439758300781;-3.489651679992676;1.9485626220703125;-9.788009643554688;-1.692626953125
1445425403441;175.19979858398438;-101.021240234375;-2.208508014678955;0.5167999267578125;-8.415084838867188;-1.6533966064453125
1445425403474;174.18125915527344;-102.1227798461914;-1.833022117614746;0.2029876708984375;-8.5523681640625;-1.5553436279296875
1445425403508;171.21795654296875;-104.3497543334961;-0.9168941378593445;1.3993988037109375;-9.395751953125;-0.6727447509765625
1445425403540;169.92385864257812;-105.25899505615234;0.014562816359102726;-0.4246368408203125;-8.473922729492188;-2.3594818115234375
1445425403573;166.5861053466797;-106.68258666992188;1.1330093145370483;-0.5619354248046875;-8.042434692382812;-2.006439208984375
1445425403606;162.56678771972656;-107.61969757080078;1.3500810861587524;0.5560302734375;-7.375579833984375;-1.51611328125
1445425403638;160.52670288085938;-107.91934204101562;1.2188912630081177;0.7521514892578125;-8.4935302734375;-1.9868316650390625
1445425403671;157.45372009277344;-107.91053009033203;0.9762656688690186;0.9482879638671875;-8.513153076171875;-2.26141357421875
1445425403704;154.85862731933594;-107.30785369873047;1.1112629175186157;-0.3657989501953125;-8.218948364257812;-2.8498077392578125
1445425403737;153.2207794189453;-107.07289123535156;1.076223611831665;-1.0522613525390625;-8.866195678710938;-3.791259765625
1445425403771;149.2105712890625;-106.6058120727539;0.33858898282051086;-1.169952392578125;-9.45458984375;-4.0462188720703125
1445425403804;145.32376098632812;-106.2974624633789;-0.679824709892273;-0.4442596435546875;-11.376693725585938;-5.1249542236328125
1445425403837;143.66551208496094;-106.3935546875;-0.9846783876419067;-0.0519866943359375;-11.78857421875;-5.7525787353515625
1445425403870;140.57460021972656;-107.14990997314453;-1.2520477771759033;-0.267730712890625;-10.219512939453125;-5.6937408447265625
1445425403903;138.15032958984375;-108.53213500976562;-1.351473093032837;0.5167999267578125;-10.513702392578125;-3.3793792724609375
1445425403935;137.60926818847656;-108.75881958007812;-1.4332852363586426;1.673980712890625;-12.455429077148438;-3.3205413818359375
1445425403969;138.6082763671875;-108.68595123291016;-1.2205994129180908;3.5960845947265625;-11.965087890625;-1.8495330810546875
1445425404005;141.20179748535156;-110.30220794677734;-0.7195622324943542;4.9101715087890625;-5.7476806640625;1.641632080078125
1445425404035;141.5949249267578;-111.00021362304688;-0.5870326161384583;3.498016357421875;-5.53192138671875;2.5634613037109375
1445425404068;144.50697326660156;-108.7645034790039;-0.248927041888237;0.301055908203125;-11.965087890625;1.7200775146484375
1445425404102;146.72036743164062;-106.58515167236328;-0.37347400188446045;-1.2483978271484375;-11.180557250976562;-0.3589324951171875
1445425404133;145.27403259277344;-103.20033264160156;-1.5411244630813599;-0.326568603515625;-9.3369140625;-0.2804718017578125
1445425404166;143.80618286132812;-101.84487915039062;-1.9791661500930786;1.98779296875;-8.76812744140625;0.052947998046875
1445425404202;141.99136352539062;-98.74911499023438;-3.0518784523010254;2.0858612060546875;-9.3369140625;-0.123565673828125
1445425404232;142.6114044189453;-95.58272552490234;-4.515452861785889;1.0659637451171875;-9.474197387695312;-0.241241455078125
1445425404266;143.27947998046875;-92.88365173339844;-5.965340614318848;0.4579620361328125;-9.434967041015625;-0.0451202392578125
1445425404299;143.02378845214844;-91.5342788696289;-6.681381702423096;0.3795013427734375;-9.709564208984375;-0.1431732177734375
1445425404335;143.1400146484375;-88.95565795898438;-7.85179328918457;0.301055908203125;-9.68994140625;-0.241241455078125
1445425404364;143.8603515625;-87.77493286132812;-8.334697723388672;0.1833648681640625;-9.650726318359375;0.1510162353515625
1445425404397;145.6285400390625;-85.57746887207031;-9.184920310974121;0.28143310546875;-9.376129150390625;0.052947998046875
1445425404431;147.55709838867188;-83.55841064453125;-10.154885292053223;0.7913818359375;-9.827239990234375;0.680572509765625
1445425404464;148.94444274902344;-82.6627197265625;-10.805906295776367;1.2032623291015625;-10.807907104492188;1.014007568359375
1445425404497;151.98208618164062;-80.90018463134766;-12.313733100891113;1.36016845703125;-11.847412109375;0.641357421875
1445425404530;154.8491668701172;-79.3357162475586;-13.556612968444824;-0.1696624755859375;-12.631942749023438;-0.2608642578125
1445425404563;156.1927947998047;-78.97020721435547;-13.918415069580078;-0.5619354248046875;-13.318405151367188;-1.06500244140625
1445425404597;158.3940887451172;-79.3678207397461;-13.789785385131836;-1.111114501953125;-13.416473388671875;-1.2219085693359375
1445425404628;159.31399536132812;-80.1417465209961;-13.332947731018066;-1.5818328857421875;-11.376693725585938;-0.574676513671875
1445425404666;161.279541015625;-83.11714172363281;-11.774779319763184;0.8306121826171875;-11.317855834960938;0.30792236328125
1445425404696;163.75123596191406;-88.41886901855469;-9.756134033203125;2.4585113525390625;-12.808456420898438;1.190521240234375
1445425404730;165.375;-91.2322998046875;-8.632022857666016;3.4784088134765625;-12.867294311523438;2.1123504638671875
1445425404761;169.03082275390625;-95.79054260253906;-6.4708099365234375;3.1645965576171875;-12.220062255859375;1.131683349609375
1445425404798;170.48377990722656;-99.54315948486328;-4.785676956176758;0.4383392333984375;-11.533599853515625;0.0333404541015625
1445425404828;168.80577087402344;-101.14818572998047;-4.060838222503662;-0.2481231689453125;-9.886077880859375;0.111785888671875
1445425404863;162.36505126953125;-104.4718246459961;-2.7192542552948;-0.150054931640625;-9.258453369140625;0.7001953125
1445425404896;153.6202392578125;-108.12247467041016;-2.143463373184204;0.2618255615234375;-8.571990966796875;1.5435638427734375
1445425404926;149.60763549804688;-109.96849822998047;-2.0374972820281982;0.7913818359375;-8.297409057617188;1.0924530029296875
1445425404958;142.2647247314453;-113.18000793457031;-2.1261794567108154;0.8894500732421875;-8.297409057617188;0.504058837890625
1445425404992;138.49285888671875;-114.25657653808594;-2.2758913040161133;1.673980712890625;-7.610931396484375;-0.300079345703125
1445425405028;130.79837036132812;-115.15242767333984;-2.540891408920288;2.2623748779296875;-6.72833251953125;-0.7315826416015625
1445425405058;124.66204833984375;-114.31582641601562;-2.3069701194763184;2.301605224609375;-7.179443359375;-1.8691558837890625
1445425405090;122.65562438964844;-113.44847106933594;-2.152719497680664;0.242218017578125;-10.297958374023438;-6.242919921875
1445425405123;119.15174865722656;-111.40690612792969;-2.856889009475708;-0.5619354248046875;-11.27862548828125;-7.4001007080078125
1445425405157;113.5758056640625;-110.4716796875;-4.439751148223877;-1.2483978271484375;-10.31756591796875;-6.4586639404296875
1445425405189;111.34376525878906;-110.60475158691406;-4.589820384979248;-1.3660736083984375;-10.239120483398438;-6.7136383056640625
1445425405223;111.14039611816406;-111.0051498413086;-4.050954341888428;-0.601165771484375;-9.474197387695312;-6.1448516845703125
1445425405255;113.798095703125;-111.5824203491211;-3.373863458633423;3.5960845947265625;-12.71038818359375;-4.4973297119140625
1445425405290;115.80477905273438;-111.63790130615234;-3.3996565341949463;5.086700439453125;-14.083328247070312;-3.889312744140625
1445425405322;122.09414672851562;-112.4766616821289;-3.8759100437164307;4.243316650390625;-10.19989013671875;-0.7904205322265625
1445425405355;125.756591796875;-113.9178466796875;-4.270577907562256;0.9678955078125;-6.238006591796875;3.5048980712890625
1445425405388;126.05697631835938;-113.43647003173828;-3.9220266342163086;-0.326568603515625;-7.5324859619140625;4.5051727294921875
1445425405421;128.7412872314453;-109.13202667236328;-1.8891098499298096;-0.58154296875;-12.102386474609375;1.3670501708984375
1445425405454;129.0970458984375;-106.53864288330078;-1.6401593685150146;-0.091217041015625;-10.14105224609375;-0.1627960205078125
1445425405487;126.34950256347656;-103.04443359375;-1.9521948099136353;1.3209381103515625;-9.101547241210938;0.1706390380859375
1445425405519;123.00131225585938;-99.53937530517578;-2.4834659099578857;2.55657958984375;-8.82696533203125;0.386383056640625
1445425405553;122.72267150878906;-97.7098159790039;-2.972338914871216;1.12481689453125;-9.748779296875;0.2294769287109375
1445425405585;124.562255859375;-94.49869537353516;-4.01971435546875;0.7129364013671875;-9.68994140625;0.19024658203125
1445425405618;124.93913269042969;-91.51358795166016;-4.9752197265625;0.869842529296875;-9.670333862304688;0.1510162353515625
1445425405652;124.96830749511719;-89.97163391113281;-5.564090251922607;0.5756378173828125;-9.611495971679688;0.4256134033203125
1445425405685;126.629150390625;-87.24665832519531;-6.8921589851379395;0.16375732421875;-9.611495971679688;0.935546875
1445425405717;129.71514892578125;-84.75617980957031;-8.250173568725586;0.6344757080078125;-9.258453369140625;0.7001953125
1445425405750;131.27529907226562;-83.46284484863281;-8.961260795593262;0.9678955078125;-9.415359497070312;0.641357421875
1445425405784;135.15098571777344;-80.99495697021484;-10.553062438964844;1.2817230224609375;-10.513702392578125;1.190521240234375
1445425405817;140.0155487060547;-78.93528747558594;-12.340188026428223;0.9090576171875;-11.867019653320312;0.8374786376953125
1445425405850;142.31910705566406;-78.20915985107422;-13.09291934967041;0.654083251953125;-12.200454711914062;0.0333404541015625
1445425405882;146.8711700439453;-77.79183959960938;-13.922035217285156;-0.1108245849609375;-12.043548583984375;-1.12384033203125
1445425405915;149.1352996826172;-77.93099212646484;-14.095834732055664;-1.1307220458984375;-14.044097900390625;-1.3395843505859375
1445425405948;153.08970642089844;-78.81968688964844;-13.585844039916992;-2.05255126953125;-13.2791748046875;-0.88848876953125
1445425405982;155.4273223876953;-81.7443618774414;-11.56446647644043;-2.719390869140625;-11.494369506835938;-1.319976806640625
1445425406016;156.13282775878906;-83.98825073242188;-10.370264053344727;0.16375732421875;-13.024200439453125;-0.005889892578125
1445425406048;158.0418243408203;-90.02766418457031;-8.025405883789062;2.125091552734375;-14.299072265625;1.9358367919921875
1445425406080;161.64425659179688;-95.6953125;-5.982340335845947;3.87066650390625;-13.1614990234375;2.7399749755859375
1445425406113;164.24217224121094;-98.09569549560547;-5.066473960876465;1.41900634765625;-11.45513916015625;0.13140869140625
1445425406147;164.90823364257812;-102.19499206542969;-3.3510007858276367;-0.267730712890625;-10.25872802734375;0.19024658203125
1445425406180;160.68246459960938;-103.97874450683594;-2.5543806552886963;-0.3069610595703125;-8.94464111328125;0.935546875
1445425406215;145.2783660888672;-107.71052551269531;-1.7466919422149658;-0.4442596435546875;-8.571990966796875;1.3670501708984375
1445425406245;132.9886932373047;-111.82991027832031;-1.831043004989624;-0.287353515625;-8.218948364257812;0.896331787109375
1445425406279;126.50160217285156;-113.58683776855469;-1.9917256832122803;0.5560302734375;-7.92474365234375;0.07257080078125
1445425406311;112.53236389160156;-116.10980224609375;-2.455206871032715;1.2032623291015625;-7.610931396484375;-0.0843353271484375
1445425406347;98.30892944335938;-117.14373779296875;-3.04437518119812;2.183929443359375;-6.4537506103515625;-0.0451202392578125
1445425406378;92.51950073242188;-117.03966522216797;-3.317582607269287;2.811553955078125;-6.0222625732421875;-0.6138916015625
1445425406414;85.38275146484375;-115.6231918334961;-3.703054666519165;2.7723236083984375;-7.0225372314453125;-1.9868316650390625
1445425406445;82.84857177734375;-112.75220489501953;-4.399293899536133;1.3797760009765625;-9.886077880859375;-6.360595703125
1445425406478;81.58920288085938;-111.18446350097656;-5.099277019500732;-0.97381591796875;-13.377243041992188;-9.027999877929688
1445425406512;78.64410400390625;-109.74768829345703;-5.526965618133545;-0.0519866943359375;-13.651840209960938;-8.12579345703125
1445425406543;77.44149780273438;-110.3910903930664;-5.271406173706055;-1.8367919921875;-8.905410766601562;-6.92938232421875
1445425406578;76.15509033203125;-112.58596801757812;-4.962347507476807;2.2035369873046875;-11.21978759765625;-4.144287109375
1445425406612;79.571044921875;-113.51305389404297;-4.754156589508057;4.6551971435546875;-14.279464721679688;-4.08544921875
1445425406641;82.25326538085938;-113.59762573242188;-4.924034595489502;3.75299072265625;-12.690780639648438;-0.515838623046875
1445425406675;88.70193481445312;-115.27079772949219;-4.9191975593566895;3.0272979736328125;-7.35595703125;2.70074462890625
1445425406708;93.13687133789062;-114.22124481201172;-2.9048240184783936;2.0074005126953125;-5.4534759521484375;4.603240966796875
1445425406741;97.1422119140625;-111.39511108398438;-1.7441737651824951;0.654083251953125;-12.867294311523438;1.072845458984375
1445425406774;103.67138671875;-105.75314331054688;-1.4578032493591309;-0.6796112060546875;-12.867294311523438;-0.2804718017578125
1445425406806;100.48095703125;-102.10069274902344;-1.9796425104141235;0.16375732421875;-8.76812744140625;-0.0254974365234375
1445425406841;98.52853393554688;-100.31537628173828;-2.0180928707122803;1.928955078125;-8.4935302734375;-0.1431732177734375
1445425406872;96.31329345703125;-96.4518814086914;-2.979532241821289;1.3209381103515625;-9.415359497070312;-0.3981475830078125
1445425406906;96.853759765625;-94.91377258300781;-3.653181791305542;-0.3854217529296875;-9.846847534179688;-0.5942840576171875
1445425406939;98.4931640625;-92.15933990478516;-4.705507755279541;-0.287353515625;-9.631103515625;-0.3589324951171875
1445425406972;99.711181640625;-89.22813415527344;-5.679897785186768;0.04608154296875;-9.317291259765625;-0.0254974365234375
1445425407005;100.6009521484375;-87.88080596923828;-6.133254528045654;0.2618255615234375;-9.199615478515625;0.4648284912109375
1445425407037;103.0628662109375;-85.23191833496094;-7.144740581512451;0.477569580078125;-9.317291259765625;0.5432891845703125
1445425407070;105.58065795898438;-82.42821502685547;-8.426366806030273;0.8306121826171875;-9.552658081054688;0.2098541259765625
1445425407103;107.09536743164062;-81.21610260009766;-9.156771659851074;0.7717742919921875;-10.631378173828125;0.9747772216796875
1445425407136;110.43891906738281;-79.17947387695312;-10.77880859375;0.418731689453125;-11.710113525390625;0.641357421875
1445425407170;113.31315612792969;-77.73168182373047;-12.289886474609375;-1.4249267578125;-13.1026611328125;-0.2020263671875
1445425407203;114.66738891601562;-77.6102294921875;-12.66726016998291;0.0068511962890625;-13.808746337890625;-1.437652587890625
1445425407235;117.18765258789062;-77.82550811767578;-12.792675018310547;-0.5619354248046875;-13.122268676757812;-1.18267822265625
1445425407268;119.99472045898438;-79.51384735107422;-11.675443649291992;-0.9345855712890625;-11.043258666992188;-1.18267822265625
1445425407301;121.01492309570312;-81.34160614013672;-10.54074478149414;-0.3069610595703125;-11.376693725585938;-0.2804718017578125
1445425407334;121.79861450195312;-86.92510223388672;-7.944097518920898;3.0272979736328125;-14.534439086914062;2.6026763916015625
1445425407368;121.94082641601562;-89.93389892578125;-6.4895830154418945;5.3612823486328125;-13.73028564453125;1.190521240234375
1445425407401;123.12437438964844;-95.10154724121094;-3.8531992435455322;4.3021697998046875;-12.631942749023438;-0.2804718017578125
1445425407434;122.39962768554688;-99.2515869140625;-1.8265860080718994;0.4383392333984375;-11.16094970703125;-0.3785400390625
1445425407467;118.117431640625;-100.99776458740234;-1.063212275505066;-0.6207733154296875;-8.238555908203125;0.4648284912109375
1445425407500;106.96878051757812;-104.96505737304688;-0.1701522320508957;-0.2481231689453125;-7.4148101806640625;0.680572509765625
1445425407533;97.59686279296875;-109.4102783203125;-0.30156105756759644;0.22259521484375;-7.0029296875;1.014007568359375
1445425407566;92.68991088867188;-111.4936752319336;-0.690253496170044;1.18365478515625;-6.9048614501953125;0.562896728515625
1445425407598;83.43710327148438;-114.6525650024414;-1.64628005027771;1.3405609130859375;-6.806793212890625;0.01373291015625
1445425407632;79.532470703125;-115.44548034667969;-2.096524953842163;1.6347503662109375;-6.1595458984375;-0.751190185546875
1445425407665;73.43807983398438;-115.3845443725586;-2.6125991344451904;1.497467041015625;-5.9241943359375;-0.810028076171875
1445425407698;70.47567749023438;-113.50018310546875;-2.422124147415161;1.36016845703125;-7.316741943359375;-2.3006439208984375
1445425407731;70.4327392578125;-111.98612976074219;-2.206631898880005;2.4585113525390625;-10.454864501953125;-6.478271484375
1445425407764;70.67535400390625;-109.0533676147461;-2.9081308841705322;1.222869873046875;-13.1614990234375;-9.14569091796875
1445425407796;66.935546875;-109.12240600585938;-4.1652421951293945;-0.4638671875;-13.73028564453125;-7.8315887451171875
1445425407829;64.56658935546875;-110.39983367919922;-4.443741798400879;-2.0721588134765625;-8.650436401367188;-7.2039642333984375
1445425407863;61.88885498046875;-112.92288970947266;-4.565677165985107;-1.2483978271484375;-8.415084838867188;-5.301483154296875
1445425407897;63.24755859375;-114.03438568115234;-4.022401809692383;3.7333831787109375;-14.377532958984375;-3.3205413818359375
1445425407929;64.60919189453125;-114.0619125366211;-3.882047414779663;5.714324951171875;-15.063995361328125;-3.595123291015625
1445425407962;67.11825561523438;-115.8379898071289;-3.757218360900879;4.9101715087890625;-6.72833251953125;1.700469970703125
1445425407994;70.025146484375;-115.3689956665039;-3.0254087448120117;1.9681854248046875;-5.100433349609375;3.26953125
1445425408030;74.05999755859375;-113.0620346069336;-2.168363332748413;-1.20916748046875;-12.494644165039062;2.210418701171875
1445425408062;79.7445068359375;-107.89661407470703;-2.3168716430664062;-2.6409454345703125;-13.985260009765625;0.0921783447265625
1445425408094;78.36578369140625;-104.36167907714844;-2.527419090270996;-0.97381591796875;-10.356796264648438;-0.182403564453125
1445425408127;77.62545776367188;-102.40168762207031;-2.296015501022339;1.2621002197265625;-8.807342529296875;0.24908447265625
1445425408164;74.7493896484375;-98.10712432861328;-2.8649606704711914;2.8311614990234375;-7.86590576171875;0.01373291015625
1445425408195;73.8153076171875;-94.77315521240234;-4.216325283050537;1.497467041015625;-9.140777587890625;0.4844512939453125
1445425408226;73.6727294921875;-93.20314025878906;-4.800600528717041;1.30133056640625;-9.258453369140625;-0.005889892578125
1445425408258;74.11404418945312;-90.10211181640625;-5.940163612365723;0.301055908203125;-9.533035278320312;-0.4766082763671875
1445425408292;74.54669189453125;-88.66548156738281;-6.507336139678955;-1.09149169921875;-9.670333862304688;0.13140869140625
1445425408327;75.14431762695312;-86.0606460571289;-7.340721130371094;-0.6796112060546875;-9.415359497070312;0.30792236328125
1445425408358;75.64791870117188;-83.58100891113281;-7.951050281524658;1.2817230224609375;-9.729171752929688;0.876708984375
1445425408391;75.98974609375;-82.2991943359375;-8.484172821044922;1.7132110595703125;-11.533599853515625;0.7198028564453125
1445425408424;76.9010009765625;-80.00260162353516;-10.131279945373535;0.0656890869140625;-12.337738037109375;1.0924530029296875
1445425408456;77.554931640625;-78.58959197998047;-11.589258193969727;-1.522979736328125;-12.220062255859375;0.386383056640625
1445425408490;77.92510986328125;-78.44639587402344;-11.666411399841309;0.34027099609375;-13.475311279296875;-1.2415313720703125
1445425408523;78.75146484375;-78.33285522460938;-11.127083778381348;-0.150054931640625;-13.61260986328125;-1.2807464599609375
1445425408556;79.03488159179688;-79.7404556274414;-9.969463348388672;-1.2680206298828125;-11.945480346679688;-0.868865966796875
1445425408589;78.90121459960938;-81.44970703125;-9.006610870361328;0.595245361328125;-11.631668090820312;-0.77081298828125
1445425408621;77.7843017578125;-86.5365219116211;-6.754498481750488;4.5375213623046875;-14.338302612304688;2.328094482421875
1445425408655;77.33380126953125;-93.1197738647461;-4.826610565185547;6.5576934814453125;-13.436080932617188;2.210418701171875
1445425408687;77.74099731445312;-96.06307220458984;-3.97277569770813;6.1850433349609375;-12.749618530273438;0.6021270751953125
1445425408721;79.34848022460938;-101.23460388183594;-2.5195841789245605;2.55657958984375;-11.10211181640625;-0.2216339111328125
1445425408754;78.44146728515625;-103.47418975830078;-1.8433284759521484;0.04608154296875;-8.630828857421875;0.13140869140625
1445425408787;74.07354736328125;-107.55673217773438;-0.8186823725700378;-0.032379150390625;-7.885528564453125;0.2686920166015625
1445425408820;69.36846923828125;-111.72276306152344;-0.8548846244812012;0.301055908203125;-6.944091796875;0.9159393310546875
1445425408852;66.41253662109375;-113.52651977539062;-1.240097165107727;0.8894500732421875;-6.37530517578125;0.7982635498046875
1445425408885;60.21026611328125;-116.07212829589844;-2.363868236541748;1.497467041015625;-5.17889404296875;-0.1627960205078125
1445425408919;55.1617431640625;-116.59935760498047;-3.436668872833252;1.0071258544921875;-4.5708770751953125;-1.084625244140625
1445425408951;53.75592041015625;-115.8309326171875;-3.45377516746521;0.6933135986328125;-5.0023651123046875;-1.3984375
1445425408984;53.253448486328125;-112.8526382446289;-2.7143146991729736;1.8701171875;-7.4148101806640625;-2.32025146484375
1445425409020;54.785064697265625;-109.58765411376953;-2.451009511947632;2.811553955078125;-11.592437744140625;-5.929107666015625
1445425409051;55.3153076171875;-108.50326538085938;-2.6767635345458984;2.0074005126953125;-14.652114868164062;-9.302597045898438
1445425409084;53.138153076171875;-109.51532745361328;-2.6069886684417725;-1.5426025390625;-14.593276977539062;-8.655349731445312
1445425409117;50.5377197265625;-111.57622528076172;-2.408921718597412;-0.836517333984375;-7.35595703125;-5.5760650634765625
1445425409150;47.2315673828125;-114.48883819580078;-2.4896292686462402;-1.4445343017578125;-5.1396636962890625;-4.71307373046875
1445425409183;46.36993408203125;-115.51524353027344;-1.6910297870635986;2.1446990966796875;-7.9835968017578125;-3.3205413818359375
1445425409215;45.707916259765625;-115.25738525390625;-1.0953387022018433;6.5576934814453125;-18.417861938476562;-5.5760650634765625
1445425409248;46.223724365234375;-114.26516723632812;-1.1886457204818726;6.1654205322265625;-16.927261352539062;-3.45782470703125
1445425409281;48.106536865234375;-115.82173156738281;0.03525744006037712;4.635589599609375;-5.29656982421875;2.58306884765625
1445425409314;50.5308837890625;-114.69385528564453;1.280637264251709;3.6745452880859375;-4.27667236328125;3.289154052734375
1445425409347;61.42413330078125;-108.28260803222656;3.6212069988250732;0.3795013427734375;-13.710678100585938;1.26898193359375
1445425409381;68.33303833007812;-101.98641204833984;3.9760847091674805;-2.150604248046875;-10.847137451171875;-0.300079345703125
1445425409414;69.36090087890625;-99.6725082397461;4.414818286895752;-0.5030975341796875;-9.06231689453125;0.13140869140625
1445425409447;72.05026245117188;-95.01424407958984;5.667817115783691;3.1057586669921875;-7.826690673828125;0.4648284912109375
1445425409479;73.5960693359375;-92.5950698852539;5.669081687927246;3.0076904296875;-8.807342529296875;0.5432891845703125
1445425409512;78.109619140625;-88.32167053222656;4.966185092926025;0.536407470703125;-9.96453857421875;1.9162139892578125
1445425409546;83.76336669921875;-84.54546356201172;3.7266221046447754;-1.0130462646484375;-10.101821899414062;2.46539306640625
1445425409579;86.28594970703125;-82.74246978759766;3.209322690963745;-0.0519866943359375;-9.866470336914062;1.876983642578125
1445425409611;90.81146240234375;-79.26884460449219;2.315849542617798;0.1245269775390625;-9.944915771484375;1.8573760986328125
1445425409645;95.015380859375;-76.34931182861328;1.143109679222107;-0.6796112060546875;-10.14105224609375;1.5435638427734375
1445425409678;97.08999633789062;-75.10193634033203;0.4901779294013977;-1.09149169921875;-10.180282592773438;1.3670501708984375
1445425409713;100.5738525390625;-72.83907318115234;-0.9984995126724243;-1.0130462646484375;-10.690231323242188;1.465118408203125
1445425409744;102.08486938476562;-71.85164642333984;-1.7786808013916016;-0.032379150390625;-10.552932739257812;1.131683349609375
1445425409777;105.61697387695312;-70.43303680419922;-3.5356216430664062;-0.0716094970703125;-10.631378173828125;1.190521240234375
1445425409812;110.08706665039062;-69.90928649902344;-5.226509094238281;0.34027099609375;-12.259292602539062;1.014007568359375
1445425409843;112.5616455078125;-69.85028839111328;-5.713991165161133;1.5759124755859375;-12.59271240234375;-0.1039581298828125
1445425409877;117.67808532714844;-70.88939666748047;-6.066997528076172;1.7132110595703125;-12.278900146484375;-0.4177703857421875
1445425409912;121.94583129882812;-74.99034881591797;-5.413127899169922;0.6148681640625;-10.847137451171875;1.4847259521484375
1445425409942;124.16957092285156;-77.88355255126953;-4.561701774597168;3.3607330322265625;-14.436370849609375;3.0341796875
1445425409975;128.9617919921875;-83.34542846679688;-2.393237590789795;4.6748199462890625;-15.750457763671875;2.269256591796875
1445425410008;134.63211059570312;-88.28546905517578;-1.0121824741363525;4.9886322021484375;-12.41619873046875;0.2294769287109375
1445425410040;137.30377197265625;-90.75605010986328;-0.6567063331604004;4.71405029296875;-11.317855834960938;-0.6138916015625
1445425410074;140.29164123535156;-95.82975769042969;-0.7324552536010742;3.7137603759765625;-10.121444702148438;-0.1627960205078125
1445425410107;140.5663604736328;-101.50532531738281;-1.2887945175170898;1.24249267578125;-9.611495971679688;1.26898193359375
1445425410139;140.4524688720703;-104.04960632324219;-1.4648661613464355;0.654083251953125;-8.670059204101562;1.8966064453125
1445425410172;139.4437255859375;-108.22920227050781;-2.035626173019409;0.9482879638671875;-6.9636993408203125;1.26898193359375
1445425410205;138.5359649658203;-109.93531799316406;-2.6780693531036377;1.2621002197265625;-5.0219879150390625;-0.3589324951171875
1445425410239;137.3396453857422;-112.20185089111328;-4.339550971984863;1.0659637451171875;-4.727783203125;-1.378814697265625
1445425410272;137.14892578125;-112.13383483886719;-5.908483505249023;0.1245269775390625;-5.728057861328125;-2.7713623046875
1445425410305;137.45159912109375;-111.12733459472656;-6.389890193939209;-0.405029296875;-6.7675628662109375;-2.9478759765625
1445425410338;138.3963165283203;-107.97310638427734;-6.681815147399902;-0.6992340087890625;-7.0029296875;-3.261688232421875
1445425410370;140.0545196533203;-104.23184967041016;-5.966885566711426;-1.3268585205078125;-9.45458984375;-6.8313140869140625
1445425410404;141.3246612548828;-102.87466430664062;-5.483216285705566;-0.3069610595703125;-15.573944091796875;-10.302871704101562
1445425410436;142.5400390625;-103.12024688720703;-4.473433494567871;-0.895355224609375;-11.984695434570312;-8.51806640625
1445425410469;140.29962158203125;-106.89242553710938;-3.8817617893218994;2.811553955078125;-8.709274291992188;-4.458099365234375
1445425410503;139.89805603027344;-108.2804946899414;-4.051207542419434;5.1063079833984375;-11.023651123046875;-3.4970550537109375
1445425410535;141.83151245117188;-109.72429656982422;-4.7139201164245605;5.5574188232421875;-12.435806274414062;-2.26141357421875
1445425410568;144.39405822753906;-110.87965393066406;-4.55867862701416;4.007965087890625;-7.257904052734375;2.58306884765625
1445425410602;145.81167602539062;-110.88286590576172;-3.6093502044677734;3.8510589599609375;-6.9048614501953125;3.9363861083984375
1445425410634;151.72116088867188;-107.08019256591797;-1.4626526832580566;2.929229736328125;-10.984420776367188;2.40655517578125
1445425410668;155.00401306152344;-104.3287124633789;-0.9950154423713684;-0.326568603515625;-10.984420776367188;0.445220947265625
1445425410700;158.3825225830078;-99.66129302978516;-0.5820496678352356;-0.522705078125;-10.003753662109375;0.2294769287109375
1445425410734;161.44097900390625;-95.50224304199219;0.2044476419687271;1.046356201171875;-9.297683715820312;0.8571014404296875
1445425410769;163.39427185058594;-93.50543212890625;0.5950149297714233;2.164306640625;-9.219223022460938;0.504058837890625
1445425410800;168.1255340576172;-89.7440185546875;0.3690590262413025;1.4582366943359375;-9.866470336914062;0.9747772216796875
1445425410832;173.80935668945312;-86.3651123046875;-0.5280697345733643;0.22259521484375;-9.925308227539062;2.661529541015625
1445425410865;176.47132873535156;-84.70392608642578;-1.0207624435424805;0.2029876708984375;-9.788009643554688;2.896881103515625
1445425410904;180.7930908203125;-81.56768798828125;-2.085017204284668;0.6344757080078125;-10.14105224609375;2.58306884765625
1445425410932;185.46337890625;-78.51296997070312;-3.291842222213745;1.2032623291015625;-10.121444702148438;1.5435638427734375
1445425410964;188.2216796875;-77.255126953125;-4.095008373260498;0.28143310546875;-10.239120483398438;1.4258880615234375
1445425410998;193.57928466796875;-75.42249298095703;-5.681308746337891;-1.4445343017578125;-10.356796264648438;1.6024017333984375
1445425411032;197.7393798828125;-73.86443328857422;-7.060507297515869;-1.111114501953125;-10.847137451171875;1.1120758056640625
1445425411064;199.482421875;-73.17530822753906;-7.747105121612549;-0.3854217529296875;-10.435256958007812;1.014007568359375
1445425411097;203.41705322265625;-72.17757415771484;-9.17529296875;0.242218017578125;-10.494094848632812;1.523956298828125
1445425411129;205.86279296875;-71.94659423828125;-9.815485954284668;0.9090576171875;-10.278350830078125;1.1512908935546875
1445425411164;211.51385498046875;-71.91905212402344;-10.79894733428955;1.36016845703125;-10.219512939453125;0.562896728515625
1445425411197;216.91751098632812;-72.16970825195312;-11.795666694641113;1.24249267578125;-12.35736083984375;0.994384765625
1445425411229;219.53192138671875;-72.55477905273438;-11.989294052124023;1.2032623291015625;-12.435806274414062;1.072845458984375
1445425411261;224.040771484375;-74.48532104492188;-11.578947067260742;-0.34619140625;-12.02392578125;0.2294769287109375
1445425411295;227.4735107421875;-78.67540740966797;-9.865726470947266;1.5955352783203125;-11.710113525390625;0.81787109375
1445425411328;229.45587158203125;-81.31867218017578;-8.81982421875;3.262664794921875;-12.828079223632812;0.9159393310546875
1445425411362;234.24429321289062;-87.4466552734375;-7.365735054016113;5.91046142578125;-13.338027954101562;0.994384765625
1445425411393;237.31756591796875;-90.66173553466797;-7.019618511199951;3.7725982666015625;-11.082489013671875;0.13140869140625
1445425411427;242.96002197265625;-96.31678009033203;-6.565181255340576;2.693878173828125;-10.552932739257812;-0.3197021484375
1445425411462;243.98727416992188;-101.52729797363281;-6.510524272918701;1.2032623291015625;-9.768402099609375;-0.0254974365234375
1445425411492;244.18338012695312;-103.9645767211914;-6.651421546936035;0.7325439453125;-8.591598510742188;0.58251953125
1445425411527;244.11056518554688;-108.50520324707031;-7.021425724029541;0.7913818359375;-8.101272583007812;0.7394256591796875
1445425411561;242.85296630859375;-111.65657043457031;-7.44384241104126;1.36016845703125;-6.865631103515625;-0.2020263671875
1445425411594;242.0809326171875;-112.52798461914062;-7.901496887207031;1.556304931640625;-5.9830322265625;-1.5357208251953125
1445425411626;240.90625;-112.94538116455078;-8.905723571777344;1.4582366943359375;-5.6888275146484375;-1.9868316650390625
1445425411657;240.28192138671875;-111.72456359863281;-9.551112174987793;1.41900634765625;-5.8653564453125;-2.0456695556640625
1445425411690;240.3426513671875;-110.50308990478516;-9.687530517578125;1.5759124755859375;-6.43414306640625;-2.4771575927734375
1445425411724;240.74722290039062;-107.32763671875;-9.90228271484375;2.2231597900390625;-9.06231689453125;-4.732696533203125
1445425411757;240.84368896484375;-105.93717956542969;-10.153600692749023;2.9684600830078125;-14.789398193359375;-9.537948608398438
1445425411790;240.54812622070312;-104.90382385253906;-10.932649612426758;1.2817230224609375;-15.10321044921875;-9.067230224609375
1445425411823;238.24948120117188;-107.97537994384766;-10.190682411193848;0.477569580078125;-10.14105224609375;-6.18408203125
1445425411855;236.790771484375;-109.83002471923828;-9.646329879760742;0.418731689453125;-5.9045867919921875;-5.1641845703125
1445425411889;235.02801513671875;-112.34834289550781;-8.980712890625;2.046630859375;-7.2775115966796875;-4.281585693359375
1445425411922;233.96212768554688;-113.1778335571289;-8.917171478271484;5.7535552978515625;-13.1026611328125;-3.8697052001953125
1445425411956;233.50997924804688;-113.2718276977539;-9.180706024169922;3.92950439453125;-10.494094848632812;-0.810028076171875
1445425411987;233.24114990234375;-114.4400405883789;-8.882445335388184;4.007965087890625;-6.747955322265625;0.7394256591796875
1445425412021;233.98712158203125;-114.61058044433594;-7.9871697425842285;2.73309326171875;-7.0813751220703125;2.386932373046875
1445425412053;239.62350463867188;-111.2697982788086;-6.056575775146484;2.301605224609375;-9.709564208984375;2.720367431640625
1445425412087;246.074462890625;-106.70694732666016;-5.172888278961182;-0.5030975341796875;-12.35736083984375;0.2098541259765625
1445425412120;248.49676513671875;-102.22523498535156;-4.680394649505615;-0.9934234619140625;-10.121444702148438;-0.1627960205078125
1445425412153;249.88491821289062;-100.20112609863281;-4.063133716583252;0.418731689453125;-9.513427734375;-0.2216339111328125
1445425412186;253.77273559570312;-96.33872985839844;-2.924896717071533;2.8507843017578125;-8.88580322265625;-0.241241455078125
1445425412220;255.82302856445312;-94.43373107910156;-2.751222610473633;2.10546875;-9.650726318359375;0.2883148193359375
1445425412251;260.14459228515625;-90.88758850097656;-2.930520534515381;1.1444244384765625;-9.807632446289062;0.58251953125
1445425412285;264.1615295410156;-87.964111328125;-3.3977255821228027;0.242218017578125;-9.788009643554688;0.7198028564453125
1445425412319;266.1395263671875;-86.74012756347656;-3.5438265800476074;-0.0519866943359375;-10.25872802734375;1.4847259521484375
1445425412351;270.0987548828125;-84.20696258544922;-3.424302816390991;0.359893798828125;-10.003753662109375;1.56317138671875
1445425412384;274.0283508300781;-81.75131225585938;-3.4165849685668945;1.4582366943359375;-9.709564208984375;1.1512908935546875
1445425412418;275.99334716796875;-80.73770904541016;-3.558433771133423;1.53668212890625;-9.591873168945312;1.131683349609375
1445425412450;279.94677734375;-78.8185043334961;-4.2270026206970215;1.3405609130859375;-10.474472045898438;1.818145751953125
1445425412482;281.9549560546875;-77.92947387695312;-4.71108865737915;0.869842529296875;-10.552932739257812;0.8374786376953125
1445425412516;286.6246643066406;-76.42941284179688;-5.92266321182251;0.654083251953125;-10.396026611328125;1.1120758056640625
1445425412549;292.26544189453125;-76.20787048339844;-7.0204362869262695;0.6148681640625;-11.298233032226562;1.6612396240234375
1445425412582;295.42938232421875;-76.38687896728516;-6.957326889038086;2.4585113525390625;-15.6719970703125;-1.202301025390625
1445425412614;301.807861328125;-78.00122833251953;-6.54767370223999;1.9485626220703125;-14.769790649414062;-1.6141815185546875
1445425412648;310.1460266113281;-82.97452545166016;-6.50548791885376;2.5958099365234375;-10.749069213867188;0.7394256591796875
1445425412681;313.94140625;-86.34735107421875;-6.3353657722473145;3.6745452880859375;-11.494369506835938;-0.300079345703125
1445425412714;320.1756591796875;-93.59918975830078;-5.970149517059326;3.2038116455078125;-12.318130493164062;-0.3981475830078125
1445425412746;324.8312072753906;-100.96858978271484;-6.211836338043213;1.36016845703125;-12.220062255859375;-0.2020263671875
1445425412780;326.1806945800781;-104.1525650024414;-6.717970371246338;1.0659637451171875;-11.317855834960938;-0.4177703857421875
1445425412813;327.6339416503906;-109.12979888916016;-7.972767353057861;1.0267486572265625;-9.493820190429688;-1.5945587158203125
1445425412846;328.3589172363281;-111.08663940429688;-8.394499778747559;1.1444244384765625;-8.532760620117188;-1.4768829345703125
1445425412879;329.4390869140625;-114.5116195678711;-9.017990112304688;1.4582366943359375;-6.4537506103515625;-0.574676513671875
1445425412912;329.94061279296875;-116.98390197753906;-9.623263359069824;1.7720489501953125;-5.4338531494140625;-0.810028076171875
1445425412945;330.2188415527344;-117.72704315185547;-9.835803985595703;1.556304931640625;-5.100433349609375;-2.37908935546875
1445425412977;331.465087890625;-117.87248229980469;-10.121618270874023;1.30133056640625;-5.1200408935546875;-3.026336669921875
1445425413012;333.5994873046875;-115.99441528320312;-10.267637252807617;1.0659637451171875;-5.3161773681640625;-3.51666259765625
1445425413044;334.7472839355469;-114.6387939453125;-10.267827987670898;1.2032623291015625;-6.983306884765625;-5.67413330078125
1445425413077;336.6034851074219;-111.61417388916016;-10.187605857849121;1.811279296875;-8.94464111328125;-7.6746826171875
1445425413112;336.53948974609375;-110.16168975830078;-10.89236068725586;1.2817230224609375;-14.024490356445312;-11.008941650390625
1445425413142;335.76312255859375;-110.88752746582031;-11.050931930541992;0.7129364013671875;-12.749618530273438;-10.891265869140625
1445425413179;333.4941101074219;-113.2424545288086;-11.100199699401855;1.0267486572265625;-8.591598510742188;-7.8904266357421875
1445425413211;331.3048400878906;-115.650634765625;-10.878859519958496;4.7924957275390625;-9.474197387695312;-6.3409881591796875
1445425413245;330.7965087890625;-116.82343292236328;-10.60580062866211;8.636703491210938;-9.827239990234375;-3.830474853515625
1445425413274;331.84332275390625;-118.90570831298828;-10.393345832824707;7.1264801025390625;-7.9835968017578125;-1.2219085693359375
1445425413311;333.0476379394531;-118.9759750366211;-10.344651222229004;3.1645965576171875;-8.003204345703125;0.6609649658203125
1445425413341;338.4437561035156;-117.69335174560547;-9.111557006835938;1.8897247314453125;-8.925033569335938;2.8184356689453125
1445425413374;348.1660461425781;-114.00484466552734;-6.578134536743164;1.2032623291015625;-11.51397705078125;1.26898193359375
1445425413407;352.3198547363281;-111.47206115722656;-5.766246795654297;-0.97381591796875;-10.670608520507812;0.01373291015625
1445425413439;357.7840270996094;-106.51995086669922;-5.314952850341797;-1.0718841552734375;-10.062606811523438;-0.1039581298828125
1445425413473;1.162689208984375;-102.12628173828125;-5.653685092926025;0.1833648681640625;-9.434967041015625;-0.6138916015625
1445425413506;2.262603759765625;-100.18220520019531;-5.925568580627441;0.987518310546875;-9.45458984375;-0.9277191162109375
1445425413538;3.24005126953125;-96.27862548828125;-6.480228900909424;1.12481689453125;-9.631103515625;-0.82965087890625
1445425413571;5.2515869140625;-92.3316421508789;-6.79429817199707;0.5560302734375;-9.140777587890625;-0.5550537109375
1445425413604;6.42095947265625;-90.5068130493164;-7.09031867980957;0.5560302734375;-9.160385131835938;-0.4569854736328125
1445425413637;8.73773193359375;-87.32743072509766;-8.07149887084961;0.654083251953125;-9.297683715820312;0.4844512939453125
1445425413671;9.801361083984375;-85.97789001464844;-8.732039451599121;0.7129364013671875;-9.474197387695312;0.504058837890625
1445425413703;11.271514892578125;-83.43232727050781;-10.315479278564453;0.6737060546875;-9.650726318359375;0.6609649658203125
1445425413737;12.6961669921875;-80.78739929199219;-12.236834526062012;1.47784423828125;-11.21978759765625;0.58251953125
1445425413770;13.663421630859375;-79.48175048828125;-13.351332664489746;1.2032623291015625;-12.102386474609375;-0.0843353271484375
1445425413802;15.166351318359375;-77.2723159790039;-15.956052780151367;-0.9345855712890625;-12.47503662109375;0.3471527099609375
1445425413836;16.571533203125;-77.0732421875;-17.56745719909668;-0.660003662109375;-13.749893188476562;-1.6730194091796875
1445425413871;17.706024169921875;-77.15919494628906;-17.708040237426758;-0.8169097900390625;-13.122268676757812;-1.378814697265625
1445425413902;19.117431640625;-78.57334899902344;-17.32853889465332;-1.6406707763671875;-11.533599853515625;-1.3984375
1445425413935;18.995758056640625;-82.38922882080078;-15.009318351745605;-1.6995086669921875;-12.161224365234375;-0.4373779296875
1445425413967;18.357391357421875;-85.04936218261719;-13.327122688293457;-0.58154296875;-13.651840209960938;1.2885894775390625
1445425414000;16.197723388671875;-91.19538116455078;-9.789342880249023;4.694427490234375;-15.6719970703125;2.386932373046875
1445425414034;15.5618896484375;-97.06489562988281;-6.943976879119873;4.6551971435546875;-13.710678100585938;0.4844512939453125
1445425414067;16.27764892578125;-99.57355499267578;-5.670516490936279;2.2819976806640625;-12.455429077148438;-0.2020263671875
1445425414100;15.372314453125;-103.22456359863281;-3.1716225147247314;-0.1304473876953125;-10.08221435546875;-0.1431732177734375
1445425414133;13.3074951171875;-105.01795959472656;-2.127863645553589;-0.718841552734375;-7.9835968017578125;1.21014404296875
1445425414166;7.70263671875;-109.18779754638672;-1.229203701019287;-0.91497802734375;-7.4540252685546875;1.6808624267578125
1445425414198;358.4771728515625;-113.4174575805664;-2.446983814239502;-0.2481231689453125;-6.630279541015625;1.9554443359375
1445425414232;353.5779724121094;-115.18515014648438;-3.3807318210601807;0.869842529296875;-5.8849639892578125;0.759033203125
1445425414265;345.58160400390625;-117.4510726928711;-4.834106922149658;1.5759124755859375;-5.610382080078125;0.2098541259765625
1445425414297;340.6582336425781;-117.40985870361328;-5.3577494621276855;2.066253662109375;-5.276947021484375;-0.3981475830078125
1445425414333;339.2060546875;-116.50057220458984;-5.362649917602539;2.7723236083984375;-6.55181884765625;-1.712249755859375
1445425414363;337.2164306640625;-113.45040893554688;-6.117854118347168;2.752716064453125;-8.356246948242188;-3.595123291015625
1445425414397;334.4866943359375;-110.51890563964844;-8.172591209411621;-0.895355224609375;-13.534149169921875;-10.40093994140625
1445425414430;332.83074951171875;-110.34525299072266;-8.634710311889648;-0.287353515625;-13.926422119140625;-9.9498291015625
1445425414462;329.24560546875;-111.65825653076172;-8.949532508850098;-0.0716094970703125;-11.90625;-7.302032470703125
1445425414495;327.61895751953125;-112.56745910644531;-8.879612922668457;1.615142822265625;-11.27862548828125;-6.3213653564453125
1445425414528;325.7512512207031;-114.14803314208984;-8.423797607421875;4.262939453125;-12.965362548828125;-6.3802032470703125
1445425414562;326.0714416503906;-115.7979736328125;-8.205137252807617;5.5181884765625;-11.298233032226562;-1.261138916015625
1445425414594;326.783203125;-116.88443756103516;-7.982059001922607;3.439178466796875;-4.8062286376953125;2.3084869384765625
1445425414627;330.4014587402344;-115.53736114501953;-6.428537368774414;0.7325439453125;-5.5123138427734375;4.3874969482421875
1445425414661;339.493408203125;-109.9638442993164;-3.7543859481811523;0.7521514892578125;-12.396575927734375;2.8576507568359375
1445425414694;342.35101318359375;-106.95624542236328;-3.434096574783325;-0.836517333984375;-11.317855834960938;-0.123565673828125
1445425414728;344.09600830078125;-102.53848266601562;-3.5413172245025635;1.53668212890625;-8.336624145507812;-0.0254974365234375
1445425414761;345.7382507324219;-98.2957534790039;-3.9230237007141113;2.49774169921875;-8.846572875976562;0.0921783447265625
1445425414792;346.0043029785156;-95.9199447631836;-4.5382161140441895;1.497467041015625;-9.572265625;0.13140869140625
1445425414828;346.997314453125;-91.840576171875;-5.2456955909729;0.869842529296875;-8.82696533203125;-0.1431732177734375
1445425414858;348.0507507324219;-89.99424743652344;-5.48968505859375;1.497467041015625;-9.297683715820312;-0.005889892578125
1445425414891;350.3552551269531;-86.69383239746094;-6.34036111831665;1.105194091796875;-9.434967041015625;0.327545166015625
1445425414932;352.51983642578125;-84.18392181396484;-7.542547225952148;0.04608154296875;-9.317291259765625;0.8571014404296875
1445425414960;353.542724609375;-83.00300598144531;-8.145346641540527;0.301055908203125;-9.297683715820312;0.9747772216796875
1445425414991;355.1308288574219;-80.2981185913086;-9.517786979675293;0.654083251953125;-10.08221435546875;1.190521240234375
1445425415024;357.08740234375;-77.64904022216797;-11.249655723571777;2.066253662109375;-12.121994018554688;-0.5942840576171875
1445425415056;357.8462829589844;-76.24412536621094;-12.364204406738281;0.1245269775390625;-12.573104858398438;-0.1627960205078125
1445425415090;358.7767333984375;-75.12383270263672;-14.601248741149902;-3.30780029296875;-12.788848876953125;0.1510162353515625
1445425415122;0.35186767578125;-75.11060333251953;-14.44122314453125;-0.5030975341796875;-13.651840209960938;-0.9277191162109375
1445425415156;1.196044921875;-75.329345703125;-14.047541618347168;-0.7972869873046875;-12.808456420898438;-0.77081298828125
1445425415188;2.2607421875;-77.52119445800781;-11.713340759277344;-0.4834747314453125;-11.239395141601562;-1.5357208251953125
1445425415221;2.367218017578125;-79.66897583007812;-9.849056243896484;2.10546875;-14.828628540039062;2.445770263671875
1445425415255;2.071868896484375;-85.38705444335938;-6.041887283325195;4.812103271484375;-16.260406494140625;2.838043212890625
1445425415287;2.656097412109375;-91.03349304199219;-3.00384783744812;7.6952667236328125;-15.10321044921875;0.4844512939453125
1445425415321;3.969635009765625;-93.79423522949219;-1.7974990606307983;3.9883575439453125;-12.082763671875;-0.6727447509765625
1445425415354;7.722686767578125;-98.3890609741211;0.36994484066963196;1.105194091796875;-10.9451904296875;0.13140869140625
1445425415387;7.692535400390625;-102.80335235595703;2.630976438522339;-0.1108245849609375;-8.709274291992188;0.504058837890625
1445425415420;6.5030517578125;-105.19132232666016;3.2558798789978027;0.34027099609375;-7.5913238525390625;1.1512908935546875
1445425415452;2.077301025390625;-110.01422119140625;3.3605029582977295;0.9090576171875;-6.8852386474609375;1.44549560546875
1445425415486;355.94488525390625;-114.61163330078125;1.971387267112732;1.673980712890625;-5.0023651123046875;1.26898193359375
1445425415519;353.2200012207031;-116.29563903808594;0.9592443704605103;2.066253662109375;-4.021697998046875;0.3471527099609375
1445425415552;350.1241149902344;-116.9603042602539;-0.4704802334308624;1.046356201171875;-4.080535888671875;-1.4180450439453125
1445425415585;349.7081604003906;-115.76378631591797;-0.5916551947593689;-0.091217041015625;-7.4540252685546875;-3.39898681640625
1445425415617;349.4283447265625;-112.10253143310547;-0.5520440936088562;-0.032379150390625;-9.846847534179688;-4.8896026611328125
1445425415651;347.96197509765625;-110.0051498413086;-1.2299976348876953;-0.2481231689453125;-11.317855834960938;-8.165023803710938
1445425415683;347.49969482421875;-109.63408660888672;-1.4275553226470947;2.046630859375;-10.121444702148438;-8.733810424804688
1445425415718;345.3459777832031;-109.68878173828125;-2.31740665435791;1.615142822265625;-10.121444702148438;-7.360870361328125
1445425415750;342.4527893066406;-110.97539520263672;-3.312058687210083;3.1645965576171875;-13.357635498046875;-5.1641845703125
1445425415783;342.1642150878906;-111.65983581542969;-3.484726667404175;5.12591552734375;-11.925857543945312;-2.26141357421875
1445425415816;344.5074157714844;-113.27796173095703;-3.7181265354156494;2.55657958984375;-9.572265625;0.8571014404296875
1445425415849;345.956298828125;-113.88610076904297;-3.1579742431640625;0.7325439453125;-7.3363494873046875;5.0151214599609375
1445425415883;351.1979675292969;-111.82488250732422;-0.0004576226638164371;1.1444244384765625;-9.297683715820312;5.15240478515625
1445425415914;0.7032470703125;-105.23700714111328;2.723262071609497;1.732818603515625;-12.063156127929688;0.36676025390625
1445425415947;3.548828125;-101.97238159179688;2.9053215980529785;0.6148681640625;-9.140777587890625;0.445220947265625
1445425415980;6.933135986328125;-96.82423400878906;2.9770758152008057;1.47784423828125;-8.473922729492188;0.896331787109375
1445425416014;11.8985595703125;-91.78982543945312;2.744769811630249;2.125091552734375;-8.807342529296875;1.700469970703125
1445425416047;14.07891845703125;-89.28034210205078;2.1797335147857666;0.928680419921875;-9.572265625;2.7988128662109375
1445425416080;18.827667236328125;-85.19670867919922;0.6070700287818909;0.3795013427734375;-9.846847534179688;3.642181396484375
1445425416112;24.44171142578125;-81.30844116210938;-1.1801334619522095;0.0853118896484375;-10.552932739257812;2.0731201171875
1445425416146;27.1590576171875;-79.46257781982422;-1.8750089406967163;-0.287353515625;-10.513702392578125;1.759307861328125
1445425416181;32.6973876953125;-76.4832534790039;-3.051863670349121;-0.7580718994140625;-10.14105224609375;1.8573760986328125
1445425416213;37.26275634765625;-74.15640258789062;-4.299764156341553;-0.7972869873046875;-9.90570068359375;1.3474273681640625
1445425416245;39.249969482421875;-73.19627380371094;-5.075300693511963;0.22259521484375;-10.415634155273438;0.8374786376953125
1445425416280;42.3397216796875;-71.64424133300781;-7.006944179534912;-0.4246368408203125;-10.729446411132812;1.2297515869140625
1445425416312;45.29095458984375;-70.63340759277344;-8.636370658874512;-1.0130462646484375;-11.317855834960938;0.4059906005859375
1445425416344;47.153839111328125;-70.39598846435547;-9.22835636138916;-0.718841552734375;-11.200164794921875;0.24908447265625
1445425416377;51.1951904296875;-71.0276107788086;-10.109599113464355;-0.3069610595703125;-13.1026611328125;0.58251953125
1445425416414;53.308837890625;-71.83331298828125;-9.988073348999023;2.066253662109375;-11.847412109375;-0.3981475830078125
1445425416447;57.323974609375;-75.27084350585938;-8.626372337341309;3.7137603759765625;-11.729736328125;1.4062652587890625
1445425416479;61.9583740234375;-81.4754867553711;-6.647258281707764;5.263214111328125;-14.86785888671875;2.0535125732421875
1445425416509;64.09286499023438;-84.73802185058594;-5.642644882202148;6.32232666015625;-14.769790649414062;2.0338897705078125
1445425416541;69.87408447265625;-90.73336029052734;-3.8663876056671143;6.0477447509765625;-13.063430786132812;0.5432891845703125
1445425416574;75.91317749023438;-95.5435791015625;-2.5805580615997314;3.57647705078125;-10.552932739257812;-1.3592071533203125
1445425416608;76.5997314453125;-98.0533676147461;-2.396761655807495;0.10491943359375;-9.395751953125;-0.064727783203125
1445425416640;75.93197631835938;-103.57064056396484;-2.352382183074951;-0.287353515625;-8.905410766601562;0.052947998046875
1445425416673;75.30044555664062;-105.82022094726562;-2.427234172821045;0.8306121826171875;-7.1402130126953125;0.4844512939453125
1445425416707;72.78512573242188;-109.76851654052734;-3.360335350036621;1.12481689453125;-6.3360748291015625;0.30792236328125
1445425416739;69.43991088867188;-112.49076080322266;-5.176053047180176;1.4582366943359375;-5.276947021484375;-0.6727447509765625
1445425416772;68.32766723632812;-113.15318298339844;-5.953930377960205;1.53668212890625;-5.041595458984375;-1.7318572998046875
1445425416806;67.90390014648438;-112.42874908447266;-6.590111255645752;1.30133056640625;-5.2573394775390625;-1.9279937744140625
1445425416839;69.62603759765625;-109.74099731445312;-6.09975528717041;0.477569580078125;-6.944091796875;-2.9282684326171875
1445425416873;70.58355712890625;-107.89275360107422;-5.764140605926514;-0.718841552734375;-9.278060913085938;-5.3210906982421875
1445425416904;71.055419921875;-103.87838745117188;-5.425362586975098;-0.522705078125;-11.768951416015625;-8.223861694335938
1445425416938;70.97589111328125;-101.93782043457031;-5.06550931930542;-1.2483978271484375;-15.3189697265625;-10.597061157226562
1445425416970;70.26889038085938;-102.95640563964844;-4.757246971130371;-1.15032958984375;-13.49493408203125;-8.674972534179688
1445425417004;67.04019165039062;-107.06394958496094;-4.140172958374023;-0.032379150390625;-7.6501617431640625;-6.360595703125
1445425417036;64.67776489257812;-110.0384292602539;-4.098630428314209;3.439178466796875;-8.336624145507812;-3.9285430908203125
1445425417070;64.02490234375;-110.93458557128906;-3.9109561443328857;5.5181884765625;-12.455429077148438;-4.399261474609375
1445425417103;64.79476928710938;-111.62400817871094;-3.5597527027130127;5.96929931640625;-14.514816284179688;-2.4183197021484375
1445425417136;65.70947265625;-112.28827667236328;-3.6303606033325195;5.8712310791015625;-4.0609283447265625;2.0142822265625
1445425417169;67.90728759765625;-113.59440612792969;-2.470210075378418;4.6159820556640625;-4.0020904541015625;2.9164886474609375
1445425417201;75.0946044921875;-109.32118225097656;-0.7558165192604065;1.7720489501953125;-13.239959716796875;3.4460601806640625
1445425417234;79.70391845703125;-106.11370849609375;-0.24130448698997498;-1.3268585205078125;-12.47503662109375;-0.0451202392578125
1445425417268;83.25027465820312;-100.94375610351562;0.4343051612377167;-1.20916748046875;-10.337188720703125;0.13140869140625
1445425417301;86.62451171875;-96.1876220703125;1.753535509109497;1.9485626220703125;-8.101272583007812;1.0924530029296875
1445425417334;88.53289794921875;-93.75584411621094;2.0080647468566895;2.67425537109375;-9.395751953125;1.6024017333984375
1445425417367;93.03302001953125;-89.4463119506836;1.0471348762512207;2.0270233154296875;-10.376419067382812;2.0142822265625
1445425417400;98.14788818359375;-86.2475357055664;-0.38156452775001526;0.7521514892578125;-10.14105224609375;2.5634613037109375
1445425417432;101.1029052734375;-84.81531524658203;-1.2032979726791382;0.3795013427734375;-10.062606811523438;3.014556884765625
1445425417467;106.79988098144531;-82.10556030273438;-2.541374921798706;-0.3069610595703125;-10.631378173828125;3.4460601806640625
1445425417500;112.7572021484375;-79.30594635009766;-3.4921188354492188;-0.01275634765625;-10.062606811523438;1.7789306640625
1445425417531;115.50527954101562;-78.24069213867188;-4.226601600646973;-0.208892822265625;-10.062606811523438;1.56317138671875
1445425417565;120.17404174804688;-76.92146301269531;-6.124432563781738;-0.5030975341796875;-10.690231323242188;2.2300262451171875
1445425417598;122.33792114257812;-76.47395324707031;-7.10382604598999;0.026458740234375;-10.278350830078125;1.9946746826171875
1445425417631;126.41506958007812;-75.67284393310547;-9.147994995117188;0.4579620361328125;-10.003753662109375;1.641632080078125
1445425417664;130.79066467285156;-75.495849609375;-11.394268989562988;1.0071258544921875;-10.376419067382812;2.2888641357421875
1445425417697;133.3660888671875;-75.76293182373047;-12.484786987304688;0.4579620361328125;-10.494094848632812;2.46539306640625
1445425417731;139.206298828125;-76.95945739746094;-14.306124687194824;0.0656890869140625;-10.7686767578125;2.0535125732421875
1445425417763;146.46661376953125;-78.7610092163086;-15.25344181060791;1.6543731689453125;-11.670883178710938;2.661529541015625
1445425417796;150.36605834960938;-79.90422058105469;-15.345060348510742;1.4582366943359375;-11.200164794921875;2.720367431640625
1445425417829;157.689453125;-83.52943420410156;-14.956918716430664;0.2618255615234375;-10.749069213867188;2.52423095703125
1445425417862;163.6949462890625;-87.83243560791016;-13.542783737182617;2.5369720458984375;-12.376968383789062;2.0338897705078125
1445425417895;166.28219604492188;-89.96987915039062;-12.847625732421875;3.7922210693359375;-12.004318237304688;1.6612396240234375
1445425417930;172.11422729492188;-93.92953491210938;-12.040855407714844;6.02813720703125;-10.02337646484375;0.386383056640625
1445425417966;175.12582397460938;-95.95054626464844;-11.80228042602539;5.4005126953125;-8.905410766601562;0.1706390380859375
1445425417994;179.869384765625;-99.61483764648438;-12.30916976928711;4.380615234375;-8.630828857421875;0.1706390380859375
1445425418030;184.44500732421875;-102.68684387207031;-13.132928848266602;2.67425537109375;-8.532760620117188;0.2098541259765625
1445425418061;186.68170166015625;-103.87879180908203;-13.350139617919922;1.75244140625;-8.042434692382812;-0.1627960205078125
1445425418094;190.81036376953125;-105.53341674804688;-13.450691223144531;1.53668212890625;-7.7286224365234375;-0.5354461669921875
1445425418131;195.2515869140625;-106.4036865234375;-13.294758796691895;1.7132110595703125;-7.5913238525390625;-1.2219085693359375
1445425418159;197.4637451171875;-106.54208374023438;-13.145731925964355;2.2819976806640625;-7.610931396484375;-1.3592071533203125
1445425418191;201.501708984375;-106.05509948730469;-12.931927680969238;3.0076904296875;-7.7874603271484375;-1.319976806640625
1445425418225;204.97955322265625;-104.79098510742188;-13.040810585021973;2.419281005859375;-8.1993408203125;-0.6727447509765625
1445425418258;206.60528564453125;-103.99708557128906;-13.158852577209473;2.066253662109375;-8.728897094726562;-0.5942840576171875
1445425418291;209.91275024414062;-102.20828247070312;-13.159855842590332;1.36016845703125;-9.709564208984375;-0.8492584228515625
1445425418323;211.51092529296875;-101.1557846069336;-12.978133201599121;2.2035369873046875;-9.846847534179688;-0.7904205322265625
1445425418356;214.35986328125;-98.69137573242188;-12.484247207641602;2.55657958984375;-9.846847534179688;-0.6531219482421875
1445425418391;216.51031494140625;-95.76737213134766;-11.951950073242188;2.242767333984375;-9.729171752929688;0.3471527099609375
1445425418424;217.68618774414062;-94.246826171875;-11.529805183410645;2.301605224609375;-9.06231689453125;1.44549560546875
1445425418455;220.22235107421875;-91.24752044677734;-10.355274200439453;2.43890380859375;-8.88580322265625;1.582794189453125
1445425418489;221.79348754882812;-88.01412200927734;-9.603333473205566;2.2623748779296875;-10.984420776367188;-0.3981475830078125
1445425418522;222.57766723632812;-86.48464965820312;-9.469321250915527;1.53668212890625;-13.259567260742188;-1.5553436279296875
1445425418555;224.08984375;-84.06502532958984;-9.262078285217285;1.6935882568359375;-13.55377197265625;-2.3006439208984375
1445425418587;224.33477783203125;-82.73617553710938;-9.261879920959473;-0.208892822265625;-12.553482055664062;-1.5357208251953125
1445425418620;224.3314208984375;-82.61554718017578;-9.192737579345703;-1.0718841552734375;-11.553207397460938;-0.6727447509765625
1445425418654;224.50347900390625;-82.68392944335938;-8.717605590820312;-0.2481231689453125;-10.5921630859375;-0.4373779296875
1445425418686;224.47357177734375;-82.7291488647461;-8.409456253051758;1.8308868408203125;-9.513427734375;0.8571014404296875
1445425418720;225.1544189453125;-82.6924057006836;-8.053362846374512;2.5369720458984375;-9.552658081054688;0.81787109375
1445425418752;226.62603759765625;-82.55921936035156;-8.255454063415527;1.5170745849609375;-12.063156127929688;-1.378814697265625
1445425418786;228.5238037109375;-83.38485717773438;-8.563353538513184;-0.1108245849609375;-10.31756591796875;-0.3393096923828125
1445425418818;229.32354736328125;-83.94979858398438;-8.635705947875977;-0.287353515625;-9.572265625;0.5432891845703125
1445425418851;230.14364624023438;-84.42778015136719;-8.564994812011719;0.5756378173828125;-9.611495971679688;0.445220947265625
1445425418885;230.48330688476562;-84.39410400390625;-8.511841773986816;1.5759124755859375;-9.944915771484375;-0.2804718017578125
1445425418918;231.90350341796875;-84.15058135986328;-8.707529067993164;1.673980712890625;-9.944915771484375;-0.300079345703125
1445425418951;233.79681396484375;-83.75018310546875;-9.07787036895752;1.3797760009765625;-9.474197387695312;-0.0451202392578125
1445425418984;234.74649047851562;-83.54349517822266;-9.26407527923584;1.3209381103515625;-9.395751953125;-0.123565673828125
1445425419016;236.77700805664062;-83.1265869140625;-9.826343536376953;1.3209381103515625;-9.807632446289062;-0.3785400390625
1445425419049;239.30697631835938;-82.9200210571289;-10.709583282470703;1.12481689453125;-9.788009643554688;-0.3785400390625
1445425419084;240.66952514648438;-82.99928283691406;-11.203325271606445;0.6933135986328125;-9.807632446289062;-0.3589324951171875
1445425419115;243.55230712890625;-83.43326568603516;-12.19857120513916;-0.3657989501953125;-10.062606811523438;-0.182403564453125
1445425419153;246.45394897460938;-83.85404205322266;-13.260520935058594;-0.522705078125;-10.454864501953125;0.6609649658203125
1445425419183;247.66207885742188;-83.93548583984375;-13.85339641571045;-0.3854217529296875;-10.5921630859375;0.9159393310546875
1445425419214;249.50927734375;-83.70040130615234;-14.971783638000488;0.8894500732421875;-12.53387451171875;0.504058837890625
1445425419252;251.10403442382812;-83.45548248291016;-15.515710830688477;1.0267486572265625;-13.90679931640625;-1.06500244140625
1445425419281;251.81539916992188;-83.49050903320312;-15.718379974365234;0.5167999267578125;-13.436080932617188;-1.378814697265625
1445425419314;253.01910400390625;-85.0163345336914;-15.85657024383545;2.046630859375;-11.435531616210938;-0.94732666015625
1445425419349;254.1175537109375;-86.57550811767578;-15.664511680603027;4.2825469970703125;-9.415359497070312;-0.1431732177734375
1445425419379;257.7384033203125;-90.617919921875;-14.915322303771973;4.5963592529296875;-9.12115478515625;-0.123565673828125
1445425419412;259.7647705078125;-92.70674133300781;-14.387398719787598;4.812103271484375;-9.631103515625;-0.3589324951171875
1445425419449;262.58056640625;-96.51016235351562;-13.310430526733398;4.9886322021484375;-9.748779296875;-0.515838623046875
1445425419479;264.47613525390625;-99.99014282226562;-13.027904510498047;5.12591552734375;-9.376129150390625;-0.5354461669921875
1445425419512;265.52227783203125;-101.56263732910156;-13.195234298706055;4.498291015625;-8.748504638671875;-0.94732666015625
1445425419553;267.0928955078125;-104.40998840332031;-13.714523315429688;2.6546478271484375;-8.3170166015625;-1.3003692626953125
1445425419578;268.1698913574219;-106.868896484375;-13.93702220916748;2.164306640625;-8.591598510742188;-1.457275390625
1445425419611;268.40234375;-107.81214141845703;-13.88378620147705;2.3408355712890625;-8.76812744140625;-1.771087646484375
1445425419646;268.053955078125;-109.11698913574219;-13.577018737792969;2.61541748046875;-8.4346923828125;-1.6141815185546875
1445425419677;267.16522216796875;-109.61183166503906;-13.312505722045898;3.046905517578125;-8.1405029296875;-1.6141815185546875
1445425419710;266.6317443847656;-109.57479858398438;-13.218335151672363;3.3018798828125;-8.1993408203125;-1.96722412109375
1445425419742;265.6427001953125;-109.19562530517578;-13.121739387512207;3.4195709228515625;-8.5523681640625;-2.3006439208984375
1445425419778;264.27581787109375;-108.4880142211914;-13.35090446472168;3.2822723388671875;-9.45458984375;-2.8105926513671875
1445425419808;263.5990295410156;-108.19984436035156;-13.505611419677734;3.3018798828125;-9.611495971679688;-2.7909698486328125
1445425419843;263.03619384765625;-108.11962127685547;-13.66955852508545;3.831451416015625;-9.278060913085938;-2.634063720703125
1445425419874;262.79522705078125;-108.41361999511719;-13.83005428314209;3.92950439453125;-9.3369140625;-2.5948486328125
1445425419910;262.5198974609375;-108.50818634033203;-13.993229866027832;3.5960845947265625;-9.317291259765625;-2.6144561767578125
1445425419941;261.7398681640625;-108.53436279296875;-14.382830619812012;3.321502685546875;-9.199615478515625;-2.5359954833984375
1445425419978;260.81182861328125;-108.6286849975586;-14.91429328918457;3.0861358642578125;-9.12115478515625;-2.692901611328125
1445425420007;260.4080810546875;-108.7532958984375;-15.197623252868652;3.2430419921875;-9.081939697265625;-2.6536865234375
1445425420039;260.0342102050781;-109.10860443115234;-15.63352108001709;3.5372467041015625;-8.748504638671875;-2.3594818115234375
1445425420075;259.6163330078125;-109.21527099609375;-15.975214004516602;3.3411102294921875;-9.180007934570312;-2.634063720703125
1445425420107;259.1637268066406;-109.07588958740234;-16.194875717163086;3.4195709228515625;-9.140777587890625;-2.7321319580078125
1445425420138;258.4520263671875;-108.76008605957031;-16.57056427001953;3.81182861328125;-9.06231689453125;-2.6144561767578125
1445425420173;258.38372802734375;-108.67849731445312;-16.697582244873047;3.75299072265625;-9.238845825195312;-2.7321319580078125
1445425420204;258.47283935546875;-108.54667663574219;-16.987852096557617;3.6745452880859375;-9.12115478515625;-2.7517547607421875
1445425420238;258.29193115234375;-108.35987854003906;-17.44192886352539;3.3999481201171875;-8.905410766601562;-2.6732940673828125
1445425420270;258.22796630859375;-108.31015014648438;-17.687000274658203;3.2038116455078125;-8.787734985351562;-2.7713623046875
1445425420304;258.3746337890625;-108.24577331542969;-18.200626373291016;3.1253662109375;-8.94464111328125;-2.8498077392578125
1445425420336;258.44940185546875;-108.21062469482422;-18.507442474365234;3.380340576171875;-9.513427734375;-2.5359954833984375
1445425420370;258.5783386230469;-108.25348663330078;-19.075498580932617;3.7137603759765625;-9.356521606445312;-2.2418060302734375
1445425420402;259.2867736816406;-108.6724853515625;-19.175966262817383;3.75299072265625;-8.473922729492188;-2.26141357421875
1445425420436;259.85919189453125;-108.77706146240234;-19.121244430541992;3.3018798828125;-8.532760620117188;-2.8890380859375
1445425420469;261.1395263671875;-108.48333740234375;-19.162111282348633;3.1253662109375;-8.630828857421875;-3.1047821044921875
1445425420501;262.20135498046875;-107.89910888671875;-19.598020553588867;3.1645965576171875;-8.3758544921875;-3.3009185791015625
1445425420534;262.4185791015625;-107.62836456298828;-19.87580680847168;3.1842041015625;-8.4935302734375;-3.4185943603515625
1445425420567;262.14996337890625;-107.17626190185547;-20.287261962890625;3.1057586669921875;-8.5523681640625;-3.3205413818359375
1445425420601;261.59307861328125;-106.89942169189453;-20.29564094543457;3.6549224853515625;-8.611221313476562;-3.653961181640625
1445425420636;261.1068420410156;-106.7983169555664;-20.33064842224121;3.615692138671875;-8.591598510742188;-3.536285400390625
1445425420667;259.9579772949219;-106.70657348632812;-20.416290283203125;3.3999481201171875;-8.238555908203125;-3.0459442138671875
1445425420699;259.5314025878906;-106.78160095214844;-20.345340728759766;3.949127197265625;-8.238555908203125;-3.261688232421875
1445425420733;259.0179138183594;-106.87937927246094;-20.03499412536621;4.243316650390625;-8.101272583007812;-3.6343536376953125
1445425420766;258.8689880371094;-106.763427734375;-19.62152099609375;4.5375213623046875;-7.9835968017578125;-3.34014892578125
1445425420799;258.8481750488281;-106.70235443115234;-19.39180564880371;4.5963592529296875;-7.57171630859375;-2.6144561767578125
1445425420831;258.88079833984375;-106.58865356445312;-18.869487762451172;4.7336578369140625;-7.5128631591796875;-2.8694305419921875
1445425420865;259.00335693359375;-106.25392150878906;-18.095170974731445;5.2239837646484375;-7.63055419921875;-3.39898681640625
1445425420898;259.1776123046875;-106.02239990234375;-17.605451583862305;6.283111572265625;-9.944915771484375;-4.7523040771484375
1445425420931;259.1348876953125;-105.68212127685547;-16.829431533813477;7.1264801025390625;-11.90625;-4.59539794921875
1445425420965;259.53912353515625;-105.63116455078125;-16.720048904418945;5.322052001953125;-11.78857421875;-1.9279937744140625
1445425420996;261.7647705078125;-106.98516845703125;-16.262754440307617;4.380615234375;-8.2581787109375;0.4256134033203125
1445425421030;266.09722900390625;-106.89994812011719;-15.212523460388184;1.811279296875;-7.9835968017578125;0.386383056640625
1445425421064;269.122802734375;-106.22362518310547;-14.421952247619629;0.301055908203125;-11.572830200195312;-0.1431732177734375
1445425421102;274.2312316894531;-104.04708099365234;-12.621378898620605;-0.91497802734375;-10.8275146484375;-0.574676513671875
1445425421128;278.47882080078125;-101.31961059570312;-10.512185096740723;-0.267730712890625;-9.827239990234375;-0.9669342041015625
1445425421162;280.6085205078125;-100.01371002197266;-9.70684814453125;0.6148681640625;-9.670333862304688;-0.868865966796875
1445425421195;284.2301025390625;-97.30035400390625;-9.078636169433594;-0.01275634765625;-9.944915771484375;-0.6727447509765625
1445425421231;286.7472229003906;-94.50012969970703;-8.57918643951416;0.10491943359375;-9.729171752929688;-0.4569854736328125
1445425421261;287.952392578125;-93.12217712402344;-8.309118270874023;0.6344757080078125;-9.984146118164062;-0.5942840576171875
1445425421294;290.4239196777344;-90.46113586425781;-8.104434967041016;0.595245361328125;-10.160659790039062;-0.4962158203125
1445425421328;292.83154296875;-88.26886749267578;-8.06298828125;0.5756378173828125;-9.925308227539062;0.30792236328125
1445425421362;294.1747741699219;-87.30846405029297;-8.037598609924316;1.2817230224609375;-9.748779296875;0.680572509765625
1445425421395;296.80340576171875;-85.2933120727539;-8.307632446289062;1.18365478515625;-9.631103515625;0.9747772216796875
1445425421425;297.9765319824219;-84.21385955810547;-8.722505569458008;1.222869873046875;-9.886077880859375;0.9159393310546875
1445425421458;300.20416259765625;-82.02667999267578;-9.912429809570312;1.30133056640625;-10.219512939453125;0.4059906005859375
1445425421491;302.4345703125;-80.11582946777344;-11.391879081726074;0.4383392333984375;-10.925582885742188;0.30792236328125
1445425421525;303.7062683105469;-79.48241424560547;-12.085614204406738;-0.1304473876953125;-11.808181762695312;0.13140869140625
1445425421558;306.2884521484375;-78.62178802490234;-13.20085334777832;-0.542327880859375;-11.925857543945312;0.24908447265625
1445425421591;308.654296875;-78.28253173828125;-14.080172538757324;-0.0519866943359375;-11.768951416015625;-0.9865570068359375
1445425421623;309.9240417480469;-78.35322570800781;-14.43444538116455;-0.4638671875;-13.377243041992188;-1.4768829345703125
1445425421657;311.54547119140625;-79.11488342285156;-14.55020523071289;-0.660003662109375;-12.9849853515625;-1.457275390625
1445425421689;311.6254577636719;-81.60909271240234;-13.481988906860352;-1.3268585205078125;-11.612045288085938;-1.00616455078125
1445425421724;311.16888427734375;-83.64964294433594;-12.717582702636719;0.8502197265625;-11.945480346679688;-0.2804718017578125
1445425421755;310.4432067871094;-89.33917236328125;-10.521638870239258;2.73309326171875;-12.553482055664062;0.562896728515625
1445425421789;311.27667236328125;-95.9251937866211;-8.097915649414062;5.3024444580078125;-12.396575927734375;2.0535125732421875
1445425421824;312.11126708984375;-98.79025268554688;-7.1515350341796875;4.2825469970703125;-12.02392578125;1.6024017333984375
1445425421855;313.4148254394531;-103.24122619628906;-5.333215236663818;0.3206634521484375;-11.39630126953125;-0.4373779296875
1445425421887;313.0750732421875;-104.7686996459961;-4.234096050262451;0.1833648681640625;-9.317291259765625;-0.5354461669921875
1445425421920;310.8866271972656;-107.91461944580078;-2.6399176120758057;0.1441497802734375;-8.807342529296875;-0.1431732177734375
1445425421953;306.81109619140625;-110.87760162353516;-1.806378960609436;0.3991241455078125;-8.160110473632812;0.7982635498046875
1445425421988;304.2216796875;-112.13682556152344;-1.5659013986587524;1.0855865478515625;-7.5324859619140625;0.1706390380859375
1445425422019;299.0893249511719;-113.89391326904297;-1.3742821216583252;1.24249267578125;-7.297119140625;-0.3981475830078125
1445425422052;296.7020263671875;-114.32543182373047;-1.4730498790740967;1.6347503662109375;-6.72833251953125;-1.202301025390625
1445425422085;292.99310302734375;-113.8946762084961;-1.7786483764648438;1.673980712890625;-6.7871856689453125;-1.5553436279296875
1445425422119;290.640625;-111.99478912353516;-2.1320745944976807;1.6347503662109375;-7.9639739990234375;-1.96722412109375
1445425422152;289.6882019042969;-110.9369888305664;-2.3476788997650146;2.0074005126953125;-9.219223022460938;-3.57550048828125
1445425422185;287.6258544921875;-109.2002182006836;-3.2463464736938477;1.5759124755859375;-9.748779296875;-4.8699798583984375
1445425422217;284.8370666503906;-108.53378295898438;-4.121171474456787;-0.1892852783203125;-12.141616821289062;-6.7136383056640625
1445425422251;283.2804260253906;-108.762939453125;-4.1429572105407715;-0.091217041015625;-10.847137451171875;-5.870269775390625
1445425422284;279.63739013671875;-110.1216049194336;-3.908168315887451;-0.5030975341796875;-9.00347900390625;-5.7722015380859375
1445425422317;277.0818786621094;-111.71355438232422;-3.2352893352508545;2.3996734619140625;-8.964248657226562;-3.791259765625
1445425422350;275.8448181152344;-112.20011138916016;-3.034428358078003;4.4786834716796875;-12.808456420898438;-3.712799072265625
1445425422382;274.1795349121094;-112.12346649169922;-3.569533586502075;4.8709564208984375;-13.083053588867188;-4.144287109375
1445425422416;274.49835205078125;-112.49003601074219;-3.755274534225464;3.4587860107421875;-8.395462036132812;0.327545166015625
1445425422449;276.402587890625;-113.78081512451172;-3.1814615726470947;2.55657958984375;-6.944091796875;2.8576507568359375
1445425422481;280.75604248046875;-111.56510162353516;-1.789747714996338;2.125091552734375;-9.238845825195312;2.896881103515625
1445425422514;284.4725036621094;-109.53608703613281;-1.1187503337860107;-0.4834747314453125;-12.220062255859375;0.19024658203125
1445425422548;290.5479736328125;-105.4562759399414;-1.191344141960144;-1.9348602294921875;-11.33746337890625;-0.2216339111328125
1445425422581;292.7983703613281;-102.33079528808594;-1.504665493965149;-0.3069610595703125;-9.12115478515625;-0.3393096923828125
1445425422613;294.0377502441406;-100.72109985351562;-1.5274453163146973;2.0270233154296875;-9.238845825195312;-0.4373779296875
1445425422646;295.75787353515625;-97.47384643554688;-2.1273515224456787;1.6543731689453125;-9.90570068359375;-0.300079345703125
1445425422680;297.05255126953125;-94.60360717773438;-2.9236245155334473;0.2029876708984375;-9.90570068359375;-0.4962158203125
1445425422713;297.8812561035156;-93.20640563964844;-3.114292621612549;0.4971771240234375;-9.533035278320312;-0.6727447509765625
1445425422748;299.6908874511719;-90.56175994873047;-3.400240182876587;0.4971771240234375;-9.670333862304688;-0.4373779296875
1445425422780;301.68035888671875;-88.15005493164062;-3.8385376930236816;-0.01275634765625;-10.02337646484375;0.111785888671875
1445425422813;302.6215515136719;-87.03205871582031;-4.033769607543945;-0.542327880859375;-9.650726318359375;0.13140869140625
1445425422846;304.1455383300781;-85.05130004882812;-4.37961483001709;-0.4638671875;-9.670333862304688;0.4059906005859375
1445425422878;305.5787353515625;-83.07989501953125;-4.9240241050720215;0.5756378173828125;-10.003753662109375;0.621734619140625
1445425422914;306.22076416015625;-82.02888488769531;-5.34503698348999;1.438629150390625;-10.435256958007812;0.1706390380859375
1445425422949;307.2948303222656;-79.97453308105469;-6.626445293426514;0.869842529296875;-10.8275146484375;0.111785888671875
1445425422978;308.2854309082031;-78.29586791992188;-8.11319351196289;-0.5030975341796875;-10.7686767578125;0.7786407470703125
1445425423011;309.0003356933594;-77.8141098022461;-8.656091690063477;-0.601165771484375;-10.749069213867188;1.014007568359375
1445425423047;311.16387939453125;-77.51470184326172;-9.288492202758789;0.595245361328125;-11.670883178710938;-0.5942840576171875
1445425423077;313.3771057128906;-78.06550598144531;-9.556450843811035;0.34027099609375;-12.788848876953125;-1.0257720947265625
1445425423111;314.21075439453125;-78.83491516113281;-9.403888702392578;-0.405029296875;-12.35736083984375;-1.1042327880859375
1445425423141;315.3631896972656;-82.29143524169922;-8.087164878845215;-0.228515625;-12.043548583984375;-2.08489990234375
1445425423174;315.7611083984375;-85.1463851928711;-7.079214572906494;2.5761871337890625;-13.475311279296875;-0.2216339111328125
1445425423208;316.75006103515625;-92.0202407836914;-5.119322776794434;4.066802978515625;-13.436080932617188;0.5236663818359375
1445425423241;318.63897705078125;-98.72452545166016;-3.718461513519287;4.812103271484375;-12.47503662109375;0.621734619140625
1445425423274;319.65533447265625;-101.71900177001953;-3.1665337085723877;3.4195709228515625;-12.631942749023438;0.052947998046875
1445425423307;319.7831115722656;-106.20561218261719;-2.077442169189453;1.0267486572265625;-9.709564208984375;-0.6531219482421875
1445425423340;319.50689697265625;-108.24945831298828;-1.6623904705047607;0.418731689453125;-7.7874603271484375;0.13140869140625
1445425423373;318.3633728027344;-112.09484100341797;-1.3490545749664307;0.4383392333984375;-7.35595703125;0.24908447265625
1445425423406;315.7906494140625;-115.18907928466797;-1.3983452320098877;0.9090576171875;-6.296844482421875;-0.3785400390625
1445425423439;314.20599365234375;-116.24122619628906;-1.594980001449585;1.673980712890625;-5.17889404296875;-1.0257720947265625
1445425423472;311.77716064453125;-116.89685821533203;-2.2990283966064453;1.673980712890625;-5.041595458984375;-1.4180450439453125
1445425423505;310.99322509765625;-115.29542541503906;-2.7108991146087646;1.2032623291015625;-6.2772369384765625;-2.1829681396484375
1445425423540;310.90667724609375;-113.79181671142578;-2.756713390350342;1.2817230224609375;-8.630828857421875;-3.6343536376953125
1445425423571;310.9443359375;-110.39094543457031;-2.772418975830078;1.18365478515625;-10.101821899414062;-4.850372314453125
1445425423604;311.0691223144531;-107.77703857421875;-3.081035852432251;0.8894500732421875;-11.867019653320312;-7.8512115478515625
1445425423636;310.8092041015625;-107.16022491455078;-3.1909070014953613;0.3991241455078125;-11.886642456054688;-8.165023803710938
1445425423670;308.6023864746094;-107.47315216064453;-3.445835828781128;-1.111114501953125;-10.7686767578125;-6.3017578125
1445425423703;307.1153869628906;-108.08438110351562;-3.4693334102630615;-1.8171844482421875;-7.7089996337890625;-5.1053466796875
1445425423736;304.9906311035156;-109.46368408203125;-2.742741584777832;0.5560302734375;-9.160385131835938;-3.712799072265625
1445425423769;304.20318603515625;-109.61722564697266;-1.9657812118530273;5.1063079833984375;-13.475311279296875;-4.2619781494140625
1445425423801;304.3671569824219;-109.2192611694336;-2.0430095195770264;3.2822723388671875;-11.925857543945312;-1.75146484375
1445425423835;305.2949523925781;-110.41998291015625;-2.017515182495117;3.1449737548828125;-8.1405029296875;0.621734619140625
1445425423867;308.2818298339844;-110.58876037597656;-1.063009262084961;1.8897247314453125;-6.4537506103515625;3.328369140625
1445425423901;311.71221923828125;-108.68695831298828;-0.5290603637695312;0.6344757080078125;-12.02392578125;0.6609649658203125
1445425423934;317.1716613769531;-104.62322235107422;-0.9299898743629456;-1.1895599365234375;-12.573104858398438;-0.4569854736328125
1445425423966;318.64129638671875;-101.95075225830078;-0.9093173742294312;-1.0130462646484375;-9.846847534179688;-0.6138916015625
1445425424000;319.4832763671875;-100.45733642578125;-0.5964092016220093;0.9678955078125;-9.042709350585938;-0.2804718017578125
1445425424033;320.4278259277344;-97.28269958496094;-0.7723931074142456;2.10546875;-9.611495971679688;-0.2608642578125
1445425424065;320.8699645996094;-95.82373809814453;-1.1203265190124512;0.8894500732421875;-9.846847534179688;-0.5354461669921875
1445425424099;321.71160888671875;-93.26639556884766;-1.8699918985366821;0.477569580078125;-9.729171752929688;-0.2804718017578125
1445425424132;322.9912109375;-90.79850006103516;-2.5758097171783447;0.1833648681640625;-9.68994140625;0.19024658203125
1445425424165;323.68560791015625;-89.4984359741211;-2.927069902420044;0.28143310546875;-9.709564208984375;0.7198028564453125
1445425424198;324.965576171875;-86.86044311523438;-3.7354841232299805;0.536407470703125;-9.611495971679688;0.7001953125
1445425424232;325.7362365722656;-84.35025787353516;-4.947627067565918;0.8306121826171875;-9.748779296875;0.6021270751953125
1445425424265;326.1488952636719;-83.19268798828125;-5.700082302093506;0.7521514892578125;-10.180282592773438;0.680572509765625
1445425424297;327.3141784667969;-81.07844543457031;-7.277121543884277;0.8502197265625;-10.494094848632812;0.327545166015625
1445425424331;328.2788391113281;-79.32240295410156;-8.89296817779541;-0.4834747314453125;-11.141326904296875;-0.241241455078125
1445425424363;328.81036376953125;-78.8104476928711;-9.564502716064453;-1.09149169921875;-11.082489013671875;0.3471527099609375
1445425424396;330.5392761230469;-78.6240463256836;-10.057583808898926;-0.1892852783203125;-11.78857421875;-0.4766082763671875
1445425424429;331.5242004394531;-78.75736999511719;-10.00246810913086;0.7521514892578125;-13.024200439453125;-1.692626953125
1445425424462;332.88916015625;-79.89249420166016;-9.638834953308105;0.2029876708984375;-12.259292602539062;-1.437652587890625
1445425424495;333.676025390625;-82.9439926147461;-9.0433349609375;-0.228515625;-10.984420776367188;-1.7318572998046875
1445425424528;333.60272216796875;-85.47860717773438;-8.4425048828125;2.183929443359375;-13.181106567382812;0.1706390380859375
1445425424562;333.12786865234375;-91.84879302978516;-6.520527362823486;3.5960845947265625;-13.84796142578125;0.7786407470703125
1445425424595;334.0760803222656;-98.06961059570312;-4.389355182647705;3.9098968505859375;-12.53387451171875;0.4059906005859375
1445425424627;335.0935363769531;-100.69483184814453;-3.3967130184173584;1.8308868408203125;-11.690505981445312;-0.94732666015625
1445425424661;335.1949768066406;-104.68222045898438;-1.8709189891815186;0.6737060546875;-10.749069213867188;-0.868865966796875
1445425424695;333.4629211425781;-108.25186157226562;-0.8319070339202881;0.1245269775390625;-8.591598510742188;-0.3785400390625
1445425424727;332.1681823730469;-110.16107940673828;-0.6210530996322632;0.7717742919921875;-7.1598358154296875;0.13140869140625
1445425424761;328.6869201660156;-113.66453552246094;-0.6363971829414368;1.1444244384765625;-6.9048614501953125;-0.123565673828125
1445425424791;326.6452941894531;-115.06087493896484;-0.769577145576477;1.47784423828125;-6.49298095703125;-0.94732666015625
1445425424824;322.68560791015625;-116.51004791259766;-1.185803771018982;1.7132110595703125;-6.061492919921875;-1.3592071533203125
1445425424858;320.53265380859375;-115.86236572265625;-1.3244609832763672;1.811279296875;-5.786895751953125;-2.1045074462890625
1445425424891;320.2967834472656;-114.7950439453125;-1.2016499042510986;1.24249267578125;-7.375579833984375;-2.7517547607421875
1445425424924;320.34442138671875;-111.81633758544922;-0.9538459181785583;1.164031982421875;-8.454315185546875;-3.791259765625
1445425424957;320.6956787109375;-108.9935531616211;-1.2328656911849976;1.5170745849609375;-10.807907104492188;-6.3998260498046875
1445425424990;320.6746520996094;-108.0757827758789;-1.5960510969161987;-0.091217041015625;-12.376968383789062;-7.9688873291015625
1445425425023;319.260986328125;-107.76898956298828;-2.086095094680786;-0.85614013671875;-12.278900146484375;-7.04705810546875
1445425425055;317.2645263671875;-108.88379669189453;-1.661978840827942;-2.601715087890625;-9.238845825195312;-5.79180908203125
1445425425089;316.3448181152344;-109.62006378173828;-1.187135934829712;-0.0716094970703125;-8.395462036132812;-2.2221832275390625
1445425425122;315.5412902832031;-110.58185577392578;0.20507687330245972;3.4784088134765625;-10.9451904296875;-1.692626953125
1445425425155;316.30072021484375;-108.71414184570312;-0.0607733279466629;4.94940185546875;-15.201278686523438;-4.222747802734375
1445425425188;316.6151428222656;-108.97783660888672;-0.22062762081623077;4.145263671875;-12.102386474609375;-1.143463134765625
1445425425220;318.935791015625;-109.74156951904297;0.5550401210784912;3.4195709228515625;-5.4534759521484375;3.15185546875
1445425425254;322.2094421386719;-108.21382141113281;1.0823744535446167;0.34027099609375;-10.572540283203125;2.7988128662109375
1445425425288;329.6370544433594;-103.18791198730469;1.261120319366455;-1.3660736083984375;-13.0438232421875;0.6609649658203125
1445425425320;332.0870666503906;-100.1331558227539;1.1169415712356567;-1.974090576171875;-10.5921630859375;-0.77081298828125
1445425425353;332.775146484375;-98.59410858154297;1.116786241531372;2.2819976806640625;-8.356246948242188;-0.2804718017578125
1445425425386;333.4827575683594;-95.49551391601562;0.458224356174469;2.8899993896484375;-8.689666748046875;-0.0254974365234375
1445425425420;335.1144104003906;-92.9844970703125;-0.6015645861625671;1.18365478515625;-10.160659790039062;0.2686920166015625
1445425425453;335.9676208496094;-91.82050323486328;-0.9894293546676636;-0.228515625;-9.709564208984375;0.052947998046875
1445425425485;337.9474792480469;-89.61080932617188;-1.579540491104126;-0.267730712890625;-9.591873168945312;0.327545166015625
1445425425517;340.1977233886719;-87.18946838378906;-2.1657376289367676;-0.1304473876953125;-9.768402099609375;0.7001953125
1445425425553;340.90948486328125;-85.9904556274414;-2.4520561695098877;0.1441497802734375;-9.748779296875;0.641357421875
1445425425583;341.73193359375;-83.84137725830078;-3.2410905361175537;0.16375732421875;-9.944915771484375;0.7982635498046875
1445425425616;342.4055480957031;-81.8681411743164;-4.533419609069824;0.2618255615234375;-10.239120483398438;0.759033203125
1445425425651;342.58172607421875;-80.92597198486328;-5.2456865310668945;0.34027099609375;-10.356796264648438;0.4648284912109375
1445425425683;342.69671630859375;-79.10765838623047;-6.716033458709717;-0.3854217529296875;-11.141326904296875;0.4256134033203125
1445425425716;342.80267333984375;-78.35610961914062;-7.380658149719238;-0.34619140625;-10.984420776367188;0.36676025390625
1445425425749;343.80596923828125;-77.55775451660156;-8.08853816986084;0.301055908203125;-10.9451904296875;-0.005889892578125
1445425425781;345.80731201171875;-77.65177917480469;-8.297224998474121;1.0267486572265625;-12.278900146484375;-1.261138916015625
1445425425814;346.8027648925781;-78.09504699707031;-8.320514678955078;0.0068511962890625;-12.278900146484375;-1.6730194091796875
1445425425847;348.35888671875;-79.96770477294922;-7.939558029174805;-0.3657989501953125;-12.200454711914062;-2.281036376953125
1445425425882;349.4726867675781;-84.48021697998047;-6.947123050689697;0.7325439453125;-12.71038818359375;-1.574951171875
1445425425914;349.0289306640625;-87.76872253417969;-6.2854413986206055;2.5369720458984375;-13.239959716796875;1.072845458984375
1445425425946;347.77447509765625;-94.90058135986328;-5.025534152984619;3.2038116455078125;-12.788848876953125;1.2885894775390625
1445425425981;347.8794250488281;-98.28706359863281;-4.432323455810547;2.5173492431640625;-12.41619873046875;-0.6531219482421875
1445425426018;348.66204833984375;-104.10707092285156;-2.990840196609497;1.4582366943359375;-11.651275634765625;-0.5942840576171875
1445425426045;347.46246337890625;-108.27033996582031;-1.730223536491394;0.928680419921875;-10.415634155273438;-0.82965087890625
1445425426078;346.58807373046875;-110.11730194091797;-1.229767084121704;0.5167999267578125;-7.610931396484375;-0.005889892578125
1445425426112;343.7396240234375;-113.75725555419922;-0.9667802453041077;0.654083251953125;-6.689117431640625;0.052947998046875
1445425426145;340.06640625;-116.71903991699219;-1.4361506700515747;0.9482879638671875;-5.7084503173828125;-0.751190185546875
1445425426177;338.2992248535156;-117.62064361572266;-1.7806974649429321;1.8701171875;-5.3750152587890625;-1.4768829345703125
1445425426214;335.9959716796875;-117.73444366455078;-2.2224459648132324;1.928955078125;-5.29656982421875;-1.75146484375
1445425426244;335.7161865234375;-115.47747802734375;-2.049051284790039;1.6347503662109375;-6.55181884765625;-2.7125244140625
1445425426277;335.9044189453125;-113.63764190673828;-1.895101547241211;1.222869873046875;-8.94464111328125;-4.0070037841796875
1445425426319;336.2778625488281;-109.79956817626953;-1.887026309967041;1.6543731689453125;-11.376693725585938;-6.8901519775390625
1445425426345;336.454345703125;-107.4092788696289;-2.2813146114349365;1.4582366943359375;-12.200454711914062;-7.988494873046875
1445425426375;335.8724670410156;-107.23570251464844;-2.473724842071533;0.654083251953125;-12.082763671875;-7.7335205078125
1445425426411;334.1564636230469;-108.16805267333984;-2.343181848526001;-1.7583465576171875;-10.19989013671875;-6.3017578125
1445425426442;333.5503845214844;-108.87911224365234;-1.9327082633972168;-0.326568603515625;-9.846847534179688;-4.1246795654296875
1445425426475;333.22857666015625;-110.02970123291016;-1.215516448020935;1.615142822265625;-11.141326904296875;-3.57550048828125
1445425426507;333.6674499511719;-109.73310852050781;-1.1221164464950562;2.7723236083984375;-11.10211181640625;-0.6138916015625
1445425426540;334.13812255859375;-110.29920196533203;-0.6799373626708984;3.380340576171875;-5.845733642578125;2.46539306640625
1445425426574;336.3099670410156;-110.14640045166016;0.6667166352272034;2.43890380859375;-7.5128631591796875;2.955718994140625
1445425426607;342.7322998046875;-106.02497100830078;1.5545181035995483;-0.6796112060546875;-12.259292602539062;0.1510162353515625
1445425426641;345.485107421875;-103.85994720458984;1.4836448431015015;-1.5033721923828125;-10.7686767578125;-0.868865966796875
1445425426672;347.4936828613281;-100.94200134277344;1.4358313083648682;0.0853118896484375;-9.45458984375;-0.6138916015625
1445425426705;348.71435546875;-97.88229370117188;1.1079607009887695;1.9485626220703125;-9.06231689453125;-0.3981475830078125
1445425426739;349.26885986328125;-96.39775085449219;0.613345205783844;1.41900634765625;-9.552658081054688;-0.2608642578125
1445425426771;350.1868896484375;-93.75379943847656;-0.4854790270328522;0.1245269775390625;-10.02337646484375;-0.2216339111328125
1445425426806;351.3005676269531;-91.38508605957031;-1.22343909740448;0.0853118896484375;-9.68994140625;-0.182403564453125
1445425426838;351.9712829589844;-90.15619659423828;-1.553252100944519;0.1441497802734375;-9.572265625;0.13140869140625
1445425426871;353.1145324707031;-87.61483001708984;-2.4046003818511963;-0.0519866943359375;-9.729171752929688;0.759033203125
1445425426903;353.4585266113281;-86.3928451538086;-2.871408224105835;0.1245269775390625;-9.670333862304688;0.562896728515625
1445425426937;353.8020935058594;-84.01696014404297;-3.946072578430176;0.28143310546875;-9.807632446289062;0.5236663818359375
1445425426970;353.9696960449219;-81.72032165527344;-5.30950927734375;0.3991241455078125;-10.611770629882812;-0.005889892578125
1445425427003;353.9952087402344;-80.63250732421875;-6.093197822570801;-0.7972869873046875;-10.788284301757812;-0.1039581298828125
1445425427036;353.9210510253906;-79.07284545898438;-7.748908042907715;-1.405303955078125;-10.690231323242188;0.4256134033203125
1445425427069;354.31640625;-78.47152709960938;-8.668128967285156;-0.4638671875;-11.180557250976562;0.01373291015625
1445425427101;354.63232421875;-78.34689331054688;-8.702678680419922;0.6737060546875;-11.10211181640625;-1.3592071533203125
1445425427135;355.5820617675781;-78.84064483642578;-8.851846694946289;1.3209381103515625;-12.396575927734375;-2.006439208984375
1445425427168;356.3551025390625;-81.38240814208984;-8.760589599609375;0.04608154296875;-11.886642456054688;-1.888763427734375
1445425427201;356.822509765625;-83.45968627929688;-8.359282493591309;0.1833648681640625;-11.572830200195312;-2.281036376953125
1445425427233;356.4810485839844;-89.09110260009766;-6.9366865158081055;-0.0519866943359375;-13.0438232421875;0.30792236328125
1445425427267;355.85943603515625;-92.4376220703125;-5.868999004364014;2.7723236083984375;-13.436080932617188;0.7198028564453125
1445425427299;355.3438720703125;-98.75448608398438;-3.8534882068634033;3.498016357421875;-12.906524658203125;0.13140869140625
1445425427333;354.9407043457031;-103.70085906982422;-2.304222345352173;1.615142822265625;-12.514266967773438;-0.6531219482421875
1445425427365;353.97723388671875;-105.61365509033203;-1.660288691520691;0.654083251953125;-10.925582885742188;-0.7119598388671875
1445425427399;351.1929626464844;-109.29100799560547;-0.8005749583244324;0.928680419921875;-9.611495971679688;-0.4962158203125
1445425427431;347.5806579589844;-113.10012817382812;-0.9082713723182678;1.164031982421875;-7.434417724609375;0.2294769287109375
1445425427468;345.54302978515625;-114.77588653564453;-1.0549507141113281;0.8894500732421875;-6.55181884765625;-0.4766082763671875
1445425427497;341.6197814941406;-116.68690490722656;-1.28776216506958;1.2817230224609375;-6.238006591796875;-0.94732666015625
1445425427531;338.6871337890625;-116.89002227783203;-1.5685020685195923;1.75244140625;-5.845733642578125;-1.51611328125
1445425427564;338.0549011230469;-116.29573822021484;-1.5353891849517822;1.791656494140625;-5.9830322265625;-1.9279937744140625
1445425427597;338.028564453125;-113.89128875732422;-1.3040529489517212;1.6935882568359375;-8.4935302734375;-3.7520294189453125
1445425427629;338.03778076171875;-112.40929412841797;-1.4407044649124146;1.3993988037109375;-10.219512939453125;-5.3799285888671875
1445425427662;337.7742614746094;-109.96917724609375;-2.2559616565704346;1.046356201171875;-10.5921630859375;-6.105621337890625
1445425427698;336.92340087890625;-108.6704330444336;-3.2226529121398926;-0.5030975341796875;-10.219512939453125;-6.5763397216796875
1445425427731;335.2376403808594;-108.23875427246094;-3.2187588214874268;-2.11138916015625;-9.788009643554688;-5.8310394287109375
1445425427761;334.5752868652344;-108.23812103271484;-2.70847487449646;-1.915252685546875;-8.866195678710938;-5.4387664794921875
1445425427795;333.255615234375;-108.69697570800781;-1.3827881813049316;1.673980712890625;-10.8863525390625;-3.4970550537109375
1445425427828;332.56768798828125;-108.66898345947266;-1.0179933309555054;3.3999481201171875;-13.985260009765625;-4.6346282958984375
1445425427861;331.9801025390625;-108.1602783203125;-0.8671427369117737;2.6546478271484375;-12.71038818359375;-2.32025146484375
1445425427893;332.9282531738281;-109.41976165771484;-0.2573530077934265;3.8510589599609375;-6.1007080078125;1.523956298828125
1445425427927;334.4387512207031;-108.99171447753906;-0.06234085559844971;1.105194091796875;-9.278060913085938;2.445770263671875
1445425427961;340.0594787597656;-105.17977905273438;0.01590665802359581;-0.7384490966796875;-12.573104858398438;0.994384765625
1445425427993;343.1036071777344;-101.66841888427734;-0.15275907516479492;-1.5622100830078125;-11.023651123046875;-0.810028076171875
1445425428029;343.5942687988281;-100.36177825927734;0.023886024951934814;1.6347503662109375;-8.787734985351562;-0.4569854736328125
1445425428064;344.0215759277344;-97.48548126220703;0.10047213733196259;2.43890380859375;-8.748504638671875;-0.123565673828125
1445425428091;344.2126770019531;-96.08411407470703;-0.12685123085975647;1.41900634765625;-9.90570068359375;-0.064727783203125
1445425428143;346.09295654296875;-92.61820220947266;-1.0066649913787842;0.7913818359375;-9.788009643554688;-0.2804718017578125
1445425428158;346.7994384765625;-91.51344299316406;-1.328204870223999;0.6344757080078125;-9.788009643554688;-0.3981475830078125
1445425428190;347.3824462890625;-90.4628677368164;-1.7075003385543823;0.0853118896484375;-9.807632446289062;0.2883148193359375
1445425428223;348.6618957519531;-88.33187866210938;-2.574336290359497;-0.287353515625;-10.14105224609375;0.2883148193359375
1445425428257;349.6124572753906;-86.043212890625;-3.409846782684326;-0.5030975341796875;-9.925308227539062;0.562896728515625
1445425428289;349.7994689941406;-84.95536041259766;-3.7971954345703125;0.4579620361328125;-9.670333862304688;0.5432891845703125
1445425428323;350.0185852050781;-82.826904296875;-4.620260238647461;0.8894500732421875;-9.886077880859375;0.4256134033203125
1445425428357;350.4693603515625;-80.83431243896484;-5.63853120803833;0.7129364013671875;-10.160659790039062;-0.1431732177734375
1445425428389;350.6225891113281;-80.00432586669922;-6.183236122131348;0.04608154296875;-10.297958374023438;-0.1039581298828125
1445425428421;350.9656982421875;-78.93516540527344;-7.117430686950684;-0.660003662109375;-11.062881469726562;0.30792236328125
1445425428455;351.7434387207031;-78.27877044677734;-7.3917646408081055;0.301055908203125;-11.121719360351562;0.111785888671875
1445425428488;352.29833984375;-78.12345123291016;-7.375543594360352;0.928680419921875;-10.7098388671875;-0.2020263671875
1445425428521;353.12237548828125;-78.59199523925781;-7.474270343780518;1.12481689453125;-10.807907104492188;-0.810028076171875
1445425428560;353.55828857421875;-80.31372833251953;-7.237956523895264;-0.326568603515625;-11.553207397460938;-0.5354461669921875
1445425428622;353.19464111328125;-85.1611328125;-6.421368598937988;0.418731689453125;-12.102386474609375;-1.319976806640625
1445425428626;353.19464111328125;-85.1611328125;-6.421368598937988;0.418731689453125;-12.102386474609375;-1.319976806640625
1445425428655;352.6117858886719;-87.78691864013672;-6.341503620147705;0.4579620361328125;-12.455429077148438;1.0336151123046875
1445425428688;350.3994445800781;-93.1551284790039;-5.8617939949035645;0.7325439453125;-11.298233032226562;0.7394256591796875
1445425428722;349.193115234375;-97.95487976074219;-4.869598865509033;2.10546875;-10.690231323242188;-0.3981475830078125
1445425428755;348.98797607421875;-100.05887603759766;-4.2314019203186035;2.4781341552734375;-11.376693725585938;-0.4373779296875
1445425428788;347.1177978515625;-103.57598114013672;-3.4209563732147217;2.5761871337890625;-10.7098388671875;-0.88848876953125
1445425428820;345.1866760253906;-106.667724609375;-3.586243152618408;1.7720489501953125;-9.493820190429688;-1.3003692626953125
1445425428853;344.06512451171875;-108.2281265258789;-3.943730592727661;1.18365478515625;-9.042709350585938;-0.9080963134765625
1445425428886;341.7184753417969;-111.16686248779297;-4.668007850646973;0.5756378173828125;-8.120880126953125;-1.06500244140625
1445425428919;339.22906494140625;-113.32400512695312;-5.322546482086182;0.9090576171875;-7.1402130126953125;-1.3984375
1445425428952;338.04644775390625;-113.95550537109375;-5.608114242553711;1.5170745849609375;-6.8852386474609375;-1.6730194091796875
