sep=;
timestamp;gyro-alpha;gyro-beta;gyro-gamma;accel-x;accel-y;accel-z
1445425525774;47.08514404296875;-157.0553741455078;25.48065185546875;-4.700347900390625;-3.5117645263671875;-7.8512115478515625
1445425525808;46.789459228515625;-157.37042236328125;26.07784652709961;-4.68072509765625;-3.4333038330078125;-7.9100494384765625
1445425525841;46.42547607421875;-157.7093048095703;26.69704246520996;-4.876861572265625;-3.2567901611328125;-7.9688873291015625
1445425525874;46.180023193359375;-157.84156799316406;26.975229263305664;-5.01416015625;-3.19793701171875;-7.94927978515625
1445425525907;45.78521728515625;-158.11573791503906;27.368684768676758;-5.053375244140625;-3.158721923828125;-7.7923736572265625
1445425525941;45.334075927734375;-158.45510864257812;27.631969451904297;-4.935699462890625;-3.0018157958984375;-7.7923736572265625
1445425525973;45.007537841796875;-158.6239776611328;27.707744598388672;-5.112213134765625;-3.0410308837890625;-7.8512115478515625
1445425526006;44.48834228515625;-158.84173583984375;27.954872131347656;-4.935699462890625;-3.0410308837890625;-7.811981201171875
1445425526040;44.3255615234375;-158.91476440429688;28.121999740600586;-4.62188720703125;-2.9429779052734375;-7.811981201171875
1445425526073;44.085662841796875;-159.06216430664062;28.350221633911133;-4.44537353515625;-2.8645172119140625;-7.870819091796875
1445425526105;43.796966552734375;-159.02980041503906;29.003761291503906;-4.759185791015625;-2.84490966796875;-7.94927978515625
1445425526139;43.595245361328125;-158.9356689453125;29.27737045288086;-4.8964691162109375;-3.1194915771484375;-7.870819091796875
1445425526171;43.179412841796875;-158.66116333007812;29.748151779174805;-4.9749298095703125;-3.3156280517578125;-7.7727508544921875
1445425526204;43.170928955078125;-158.6241455078125;29.84047508239746;-4.700347900390625;-3.13909912109375;-8.027725219726562
1445425526239;43.20111083984375;-158.57937622070312;29.92617416381836;-4.6022796630859375;-3.1194915771484375;-7.94927978515625
1445425526272;43.291595458984375;-158.52337646484375;30.11460304260254;-4.6611175537109375;-3.1783294677734375;-7.9688873291015625
1445425526303;43.54937744140625;-158.64968872070312;30.224626541137695;-4.759185791015625;-3.0410308837890625;-7.811981201171875
1445425526337;43.545013427734375;-158.64495849609375;30.37973403930664;-4.4061431884765625;-2.6683807373046875;-7.7139129638671875
1445425526369;43.39569091796875;-158.39625549316406;30.563142776489258;-5.190673828125;-3.13909912109375;-7.4785614013671875
1445425526402;43.4560546875;-158.3877716064453;30.51374053955078;-4.935699462890625;-3.1783294677734375;-7.8512115478515625
1445425526436;43.72296142578125;-158.4097900390625;30.760631561279297;-4.876861572265625;-3.099884033203125;-8.027725219726562
1445425526468;43.24432373046875;-158.21353149414062;31.356691360473633;-5.4064178466796875;-3.02142333984375;-7.6158447265625
1445425526506;42.43865966796875;-157.9893341064453;31.57941246032715;-5.58294677734375;-3.19793701171875;-7.4785614013671875
1445425526535;42.204498291015625;-157.9213409423828;31.631202697753906;-5.622161865234375;-3.13909912109375;-7.5373992919921875
1445425526567;41.867950439453125;-157.86465454101562;31.70438003540039;-5.1514434814453125;-3.276397705078125;-7.7139129638671875
1445425526602;41.72454833984375;-157.8359375;31.692975997924805;-5.0337677001953125;-3.2960052490234375;-7.7727508544921875
1445425526634;41.784637451171875;-157.89419555664062;31.837139129638672;-5.01416015625;-2.90374755859375;-7.8315887451171875
1445425526667;41.806365966796875;-157.7849578857422;31.800289154052734;-5.1318359375;-3.1783294677734375;-7.6550750732421875
1445425526700;41.7821044921875;-157.7607421875;31.715896606445312;-5.1710662841796875;-3.217559814453125;-7.7335205078125
1445425526736;41.924652099609375;-157.69456481933594;31.618309020996094;-5.1514434814453125;-3.2371673583984375;-7.7335205078125
1445425526767;42.123382568359375;-157.62173461914062;31.37764549255371;-5.0337677001953125;-3.3744659423828125;-7.7335205078125
1445425526799;42.257232666015625;-157.61090087890625;31.26106834411621;-5.0337677001953125;-3.335235595703125;-7.7139129638671875
1445425526831;42.464263916015625;-157.6065673828125;31.130416870117188;-5.1318359375;-3.276397705078125;-7.8315887451171875
1445425526866;42.531280517578125;-157.64541625976562;31.03664207458496;-5.2299041748046875;-3.3156280517578125;-7.8512115478515625
1445425526897;42.6014404296875;-157.87936401367188;30.815473556518555;-5.2102813720703125;-3.3156280517578125;-7.8315887451171875
1445425526930;42.57501220703125;-158.32583618164062;30.697341918945312;-5.1710662841796875;-3.158721923828125;-7.694305419921875
1445425526966;42.46673583984375;-158.52293395996094;30.638870239257812;-5.2887420654296875;-3.08026123046875;-7.5962371826171875
1445425526997;42.162322998046875;-158.8716278076172;30.489765167236328;-5.2887420654296875;-3.02142333984375;-7.5373992919921875
1445425527030;41.9739990234375;-159.11099243164062;30.506072998046875;-5.112213134765625;-3.0018157958984375;-7.753143310546875
1445425527063;41.9107666015625;-159.19052124023438;30.4998722076416;-5.112213134765625;-2.9429779052734375;-7.8315887451171875
1445425527095;41.83526611328125;-159.3402099609375;30.448688507080078;-5.0926055908203125;-2.9233551025390625;-7.6550750732421875
1445425527128;41.95660400390625;-159.4344482421875;30.386808395385742;-4.700347900390625;-2.78607177734375;-7.7727508544921875
1445425527162;42.216339111328125;-159.56748962402344;30.224517822265625;-4.7199554443359375;-2.84490966796875;-7.9100494384765625
1445425527194;42.228759765625;-159.57015991210938;30.228961944580078;-5.053375244140625;-2.96258544921875;-8.00811767578125
1445425527227;42.25177001953125;-159.6103973388672;30.175140380859375;-4.8572540283203125;-2.825286865234375;-7.8512115478515625
1445425527260;42.555419921875;-159.88851928710938;29.756027221679688;-4.6022796630859375;-2.648773193359375;-7.8904266357421875
1445425527292;42.792327880859375;-160.00338745117188;29.426424026489258;-4.1707763671875;-2.393798828125;-7.4981689453125
1445425527326;43.356536865234375;-159.95205688476562;28.6636905670166;-4.425750732421875;-2.707611083984375;-7.7727508544921875
1445425527359;43.808013916015625;-159.4899139404297;28.025203704833984;-4.484588623046875;-2.9429779052734375;-7.811981201171875
1445425527392;44.435791015625;-158.99652099609375;27.247852325439453;-4.131561279296875;-2.9821929931640625;-7.7923736572265625
1445425527426;44.78375244140625;-158.71763610839844;26.876949310302734;-4.131561279296875;-2.9821929931640625;-8.027725219726562
1445425527459;45.285400390625;-158.0557098388672;26.36821937561035;-4.3473052978515625;-3.5117645263671875;-8.341537475585938
1445425527490;45.52264404296875;-157.69512939453125;26.241201400756836;-4.6414947509765625;-3.5509796142578125;-8.24346923828125
1445425527524;45.6309814453125;-157.6250762939453;26.237937927246094;-4.5826568603515625;-3.5117645263671875;-8.24346923828125
1445425527558;45.7568359375;-157.4732208251953;26.176513671875;-4.5434417724609375;-3.394073486328125;-8.145401000976562
1445425527592;45.71832275390625;-157.38209533691406;26.167402267456055;-4.700347900390625;-3.4725341796875;-8.106185913085938
1445425527623;45.551849365234375;-157.23953247070312;26.206335067749023;-4.73956298828125;-3.4921417236328125;-8.145401000976562
1445425527657;45.354034423828125;-157.16375732421875;26.22589683532715;-4.68072509765625;-3.4725341796875;-8.027725219726562
1445425527688;45.34527587890625;-157.14053344726562;26.142972946166992;-4.484588623046875;-3.5117645263671875;-8.00811767578125
1445425527723;45.441925048828125;-157.13087463378906;25.82033348083496;-4.2296142578125;-3.5313720703125;-8.106185913085938
1445425527755;45.608489990234375;-157.13172912597656;25.451614379882812;-4.1511688232421875;-3.6098175048828125;-8.145401000976562
1445425527789;45.6688232421875;-157.15748596191406;25.24848747253418;-4.2100067138671875;-3.5902099609375;-8.086563110351562
1445425527821;45.839874267578125;-157.26051330566406;24.836660385131836;-4.249237060546875;-3.5706024169921875;-8.086563110351562
1445425527855;46.22967529296875;-157.47991943359375;24.344589233398438;-3.9942626953125;-3.3156280517578125;-8.223861694335938
1445425527888;46.39404296875;-157.61903381347656;24.151365280151367;-3.8961944580078125;-3.19793701171875;-8.106185913085938
1445425527921;46.728118896484375;-157.86334228515625;23.869369506835938;-3.9942626953125;-3.02142333984375;-8.24346923828125
1445425527953;53.171600341796875;-157.92044067382812;23.762372970581055;-3.9354248046875;-3.1194915771484375;-8.165023803710938
1445425527986;53.3326416015625;-157.92999267578125;23.591421127319336;-4.0138702392578125;-3.2371673583984375;-8.18463134765625
1445425528019;53.38067626953125;-157.8634033203125;23.42282485961914;-3.9354248046875;-3.452911376953125;-8.145401000976562
1445425528053;53.400238037109375;-157.8330841064453;23.368162155151367;-3.9354248046875;-3.4921417236328125;-8.165023803710938
1445425528086;53.3370361328125;-157.74298095703125;23.326189041137695;-3.9746551513671875;-3.4725341796875;-8.204238891601562
1445425528118;53.25408935546875;-157.7097930908203;23.38417625427246;-4.0138702392578125;-3.452911376953125;-8.223861694335938
1445425528152;53.19268798828125;-157.6974334716797;23.442188262939453;-4.0334930419921875;-3.3156280517578125;-8.204238891601562
1445425528184;53.087432861328125;-157.6787567138672;23.57951545715332;-4.0531005859375;-3.276397705078125;-8.24346923828125
1445425528217;52.910888671875;-157.6089324951172;23.72814178466797;-4.0727081298828125;-3.2567901611328125;-8.106185913085938
1445425528251;52.822174072265625;-157.57032775878906;23.79535484313965;-4.0334930419921875;-3.276397705078125;-8.145401000976562
1445425528283;52.6806640625;-157.47598266601562;23.929868698120117;-3.8765869140625;-3.394073486328125;-8.263092041015625
1445425528316;52.474334716796875;-157.31846618652344;24.143613815307617;-3.8373565673828125;-3.4725341796875;-8.204238891601562
1445425528349;52.361602783203125;-157.22625732421875;24.288103103637695;-3.8373565673828125;-3.5117645263671875;-8.204238891601562
1445425528383;52.142120361328125;-157.0390625;24.566097259521484;-3.9354248046875;-3.5509796142578125;-8.24346923828125
1445425528415;52.0567626953125;-156.9464111328125;24.68067741394043;-3.9354248046875;-3.5902099609375;-8.145401000976562
1445425528450;51.8779296875;-156.782470703125;24.83319091796875;-3.9354248046875;-3.6098175048828125;-8.086563110351562
1445425528483;51.709869384765625;-156.6602325439453;24.951082229614258;-4.0531005859375;-3.6294403076171875;-8.12579345703125
1445425528514;51.64801025390625;-156.60720825195312;25.006935119628906;-4.0531005859375;-3.5902099609375;-8.06695556640625
1445425528547;51.517822265625;-156.49342346191406;25.057159423828125;-4.0727081298828125;-3.6882781982421875;-8.165023803710938
1445425528581;51.41937255859375;-156.43870544433594;25.076875686645508;-4.1707763671875;-3.6490478515625;-8.145401000976562
1445425528614;51.368408203125;-156.43067932128906;25.085044860839844;-4.1707763671875;-3.6098175048828125;-8.12579345703125
1445425528646;51.36993408203125;-156.43133544921875;25.048566818237305;-4.1707763671875;-3.5902099609375;-8.12579345703125
1445425528679;51.393524169921875;-156.44332885742188;25.038585662841797;-4.1119384765625;-3.5313720703125;-8.145401000976562
1445425528712;51.4036865234375;-156.438232421875;25.042369842529297;-4.0923309326171875;-3.5706024169921875;-8.06695556640625
1445425528745;51.455963134765625;-156.44773864746094;25.07588768005371;-4.0727081298828125;-3.5313720703125;-8.086563110351562
1445425528779;51.48114013671875;-156.45281982421875;25.0902156829834;-4.0531005859375;-3.5117645263671875;-8.086563110351562
1445425528812;51.539337158203125;-156.46624755859375;25.130125045776367;-4.0727081298828125;-3.5117645263671875;-8.12579345703125
1445425528844;51.56658935546875;-156.47389221191406;25.206851959228516;-4.1511688232421875;-3.5117645263671875;-8.165023803710938
1445425528878;51.547576904296875;-156.47291564941406;25.257797241210938;-4.1511688232421875;-3.4921417236328125;-8.086563110351562
1445425528910;51.44189453125;-156.4454345703125;25.391511917114258;-4.1707763671875;-3.5117645263671875;-8.00811767578125
1445425528944;51.34326171875;-156.41737365722656;25.496822357177734;-4.1707763671875;-3.5313720703125;-8.047332763671875
1445425528976;51.271759033203125;-156.40147399902344;25.552953720092773;-4.2296142578125;-3.5509796142578125;-8.06695556640625
1445425529009;51.075439453125;-156.35244750976562;25.66693878173828;-4.2688446044921875;-3.6098175048828125;-8.027725219726562
1445425529042;50.98187255859375;-156.3345947265625;25.72854232788086;-4.2100067138671875;-3.5902099609375;-8.086563110351562
1445425529076;50.933685302734375;-156.33428955078125;25.776042938232422;-4.190399169921875;-3.5706024169921875;-8.086563110351562
1445425529109;50.853485107421875;-156.3155517578125;25.83598518371582;-4.2296142578125;-3.5706024169921875;-8.047332763671875
1445425529142;50.821380615234375;-156.30821228027344;25.853618621826172;-4.2688446044921875;-3.5117645263671875;-7.9688873291015625
1445425529174;50.839874267578125;-156.31185913085938;25.86549186706543;-4.2688446044921875;-3.4921417236328125;-8.027725219726562
1445425529207;50.88763427734375;-156.317138671875;25.875160217285156;-4.308074951171875;-3.4725341796875;-8.106185913085938
1445425529243;50.911956787109375;-156.30487060546875;25.886180877685547;-4.3276824951171875;-3.5117645263671875;-8.027725219726562
1445425529273;50.86798095703125;-156.2385711669922;25.9362850189209;-4.3276824951171875;-3.5509796142578125;-7.9688873291015625
1445425529309;50.766693115234375;-156.1796875;25.98162078857422;-4.308074951171875;-3.5313720703125;-7.988494873046875
1445425529339;50.6944580078125;-156.151123046875;26.00090789794922;-4.2884674072265625;-3.5902099609375;-8.00811767578125
1445425529373;50.603118896484375;-156.1162872314453;26.02637481689453;-4.308074951171875;-3.5706024169921875;-8.047332763671875
1445425529405;50.5716552734375;-156.09194946289062;26.04368782043457;-4.308074951171875;-3.5509796142578125;-8.06695556640625
1445425529438;50.55950927734375;-156.085693359375;26.05776023864746;-4.2688446044921875;-3.5706024169921875;-8.00811767578125
1445425529471;50.556365966796875;-156.06124877929688;26.06976890563965;-4.2884674072265625;-3.5902099609375;-8.00811767578125
1445425529504;50.578582763671875;-156.0635528564453;26.076305389404297;-4.2884674072265625;-3.5313720703125;-8.047332763671875
1445425529543;50.5828857421875;-156.03863525390625;26.094974517822266;-4.308074951171875;-3.5509796142578125;-7.9688873291015625
1445425529571;50.615447998046875;-156.04037475585938;26.116090774536133;-4.2884674072265625;-3.5313720703125;-7.988494873046875
1445425529603;50.590728759765625;-156.03594970703125;26.137392044067383;-4.3276824951171875;-3.5313720703125;-7.94927978515625
1445425529637;50.52020263671875;-156.0463104248047;26.204708099365234;-4.366912841796875;-3.4921417236328125;-7.94927978515625
1445425529669;50.47967529296875;-156.05886840820312;26.250797271728516;-4.366912841796875;-3.5117645263671875;-8.047332763671875
1445425529703;50.46197509765625;-156.0672149658203;26.269149780273438;-4.308074951171875;-3.5117645263671875;-8.086563110351562
1445425529736;50.396942138671875;-156.05662536621094;26.29829978942871;-4.308074951171875;-3.5313720703125;-8.027725219726562
1445425529769;50.346099853515625;-156.0264892578125;26.320878982543945;-4.249237060546875;-3.5509796142578125;-7.9688873291015625
1445425529801;50.34039306640625;-156.0225067138672;26.327335357666016;-4.2884674072265625;-3.5902099609375;-8.00811767578125
1445425529834;50.37811279296875;-156.02163696289062;26.324214935302734;-4.308074951171875;-3.5706024169921875;-8.06695556640625
1445425529868;50.395721435546875;-156.02574157714844;26.32383155822754;-4.2884674072265625;-3.5509796142578125;-7.9688873291015625
1445425529909;50.446197509765625;-156.04222106933594;26.328580856323242;-4.308074951171875;-3.5509796142578125;-7.929656982421875
1445425529935;50.4295654296875;-156.04832458496094;26.34259605407715;-4.3473052978515625;-3.4921417236328125;-7.9688873291015625
1445425529969;50.380096435546875;-156.0647430419922;26.361696243286133;-4.366912841796875;-3.4921417236328125;-8.027725219726562
1445425530000;50.305877685546875;-156.05186462402344;26.378808975219727;-4.3473052978515625;-3.4725341796875;-7.94927978515625
1445425530033;50.201995849609375;-156.045166015625;26.39011001586914;-4.3473052978515625;-3.5313720703125;-7.9100494384765625
1445425530092;50.07672119140625;-156.0347137451172;26.37207794189453;-4.2884674072265625;-3.5706024169921875;-7.9688873291015625
1445425530099;50.07672119140625;-156.0347137451172;26.37207794189453;-4.2884674072265625;-3.5706024169921875;-7.9688873291015625
1445425530131;50.07891845703125;-156.038818359375;26.356752395629883;-4.2688446044921875;-3.5509796142578125;-8.027725219726562
1445425530164;50.06005859375;-156.04348754882812;26.343006134033203;-4.249237060546875;-3.5509796142578125;-8.027725219726562
1445425530197;50.028564453125;-156.05514526367188;26.35234260559082;-4.3276824951171875;-3.5117645263671875;-7.988494873046875
1445425530230;50.006011962890625;-156.0616455078125;26.368886947631836;-4.366912841796875;-3.5117645263671875;-7.988494873046875
1445425530264;49.933135986328125;-156.0546875;26.4014835357666;-4.366912841796875;-3.5509796142578125;-8.00811767578125
1445425530297;49.865020751953125;-156.0441436767578;26.421255111694336;-4.3276824951171875;-3.6098175048828125;-7.929656982421875
1445425530330;49.835968017578125;-156.03155517578125;26.427541732788086;-4.3276824951171875;-3.5706024169921875;-7.929656982421875
1445425530362;49.773651123046875;-156.02133178710938;26.450801849365234;-4.4061431884765625;-3.5117645263671875;-7.929656982421875
1445425530396;49.779022216796875;-156.02569580078125;26.43781280517578;-4.3276824951171875;-3.5117645263671875;-8.00811767578125
1445425530428;49.7645263671875;-156.01718139648438;26.439504623413086;-4.3473052978515625;-3.5313720703125;-7.94927978515625
1445425530461;49.753326416015625;-155.99900817871094;26.423091888427734;-4.308074951171875;-3.5509796142578125;-7.929656982421875
1445425530494;49.751220703125;-156.00294494628906;26.418781280517578;-4.3473052978515625;-3.5509796142578125;-8.047332763671875
1445425530528;49.7506103515625;-156.005615234375;26.405494689941406;-4.3473052978515625;-3.5902099609375;-8.047332763671875
1445425530561;49.75421142578125;-156.02578735351562;26.39862632751465;-4.3276824951171875;-3.5313720703125;-8.00811767578125
1445425530595;49.730743408203125;-156.02479553222656;26.39478874206543;-4.366912841796875;-3.5509796142578125;-7.9688873291015625
1445425530627;49.726959228515625;-156.02850341796875;26.39306640625;-4.3473052978515625;-3.5509796142578125;-7.94927978515625
1445425530659;49.673980712890625;-156.03555297851562;26.414573669433594;-4.3473052978515625;-3.4725341796875;-7.9688873291015625
1445425530692;49.62469482421875;-156.0142059326172;26.421403884887695;-4.308074951171875;-3.5902099609375;-7.9688873291015625
1445425530727;49.455413818359375;-155.95252990722656;26.45814323425293;-4.3865203857421875;-3.668670654296875;-7.9688873291015625
1445425530758;49.344970703125;-155.9154815673828;26.468740463256836;-4.3276824951171875;-3.6490478515625;-8.00811767578125
1445425530794;49.271575927734375;-155.90309143066406;26.484708786010742;-4.366912841796875;-3.5902099609375;-7.929656982421875
1445425530824;49.166107177734375;-155.89794921875;26.507247924804688;-4.366912841796875;-3.5706024169921875;-7.9688873291015625
1445425530858;49.15423583984375;-155.9070587158203;26.480918884277344;-4.308074951171875;-3.5902099609375;-7.988494873046875
1445425530905;49.129150390625;-155.9285430908203;26.478656768798828;-4.4061431884765625;-3.5706024169921875;-8.047332763671875
1445425530960;49.114044189453125;-155.94439697265625;26.495439529418945;-4.4649810791015625;-3.5902099609375;-7.9688873291015625
1445425530962;49.114044189453125;-155.94439697265625;26.495439529418945;-4.4649810791015625;-3.5902099609375;-7.9688873291015625
1445425530994;49.105499267578125;-155.94068908691406;26.497587203979492;-4.366912841796875;-3.5509796142578125;-7.929656982421875
1445425531027;49.097625732421875;-155.9406280517578;26.511940002441406;-4.3865203857421875;-3.5313720703125;-7.94927978515625
1445425531060;49.061370849609375;-155.92074584960938;26.525066375732422;-4.3473052978515625;-3.5706024169921875;-7.8904266357421875
1445425531093;49.03338623046875;-155.91514587402344;26.53589630126953;-4.366912841796875;-3.5313720703125;-7.9100494384765625
1445425531126;49.03363037109375;-155.93820190429688;26.538368225097656;-4.3276824951171875;-3.4921417236328125;-7.929656982421875
1445425531160;49.0247802734375;-155.94517517089844;26.535873413085938;-4.3276824951171875;-3.4725341796875;-7.9688873291015625
1445425531192;49.0247802734375;-155.94517517089844;26.535873413085938;-4.3473052978515625;-3.6098175048828125;-7.9688873291015625
1445425531225;48.99249267578125;-155.95098876953125;26.52928924560547;-4.3276824951171875;-3.6294403076171875;-8.027725219726562
1445425531257;48.9822998046875;-155.95034790039062;26.52724838256836;-4.3473052978515625;-3.5706024169921875;-8.00811767578125
1445425531291;49.01220703125;-156.00335693359375;26.538333892822266;-4.3473052978515625;-3.5509796142578125;-8.047332763671875
1445425531324;49.020965576171875;-156.05288696289062;26.54867172241211;-4.3865203857421875;-3.5117645263671875;-7.929656982421875
1445425531357;49.0511474609375;-156.086181640625;26.551040649414062;-4.3865203857421875;-3.452911376953125;-7.988494873046875
1445425531389;49.065093994140625;-156.1293487548828;26.566898345947266;-4.3865203857421875;-3.4333038330078125;-7.94927978515625
1445425531422;49.023284912109375;-156.13182067871094;26.58133888244629;-4.4061431884765625;-3.5117645263671875;-7.988494873046875
1445425531456;49.008331298828125;-156.12094116210938;26.580102920532227;-4.4061431884765625;-3.5117645263671875;-7.929656982421875
1445425531488;48.9635009765625;-156.0906524658203;26.58112907409668;-4.4061431884765625;-3.5902099609375;-7.9688873291015625
1445425531522;48.9482421875;-156.06349182128906;26.565330505371094;-4.4061431884765625;-3.5902099609375;-8.047332763671875
1445425531559;48.925567626953125;-156.04605102539062;26.564218521118164;-4.4061431884765625;-3.5902099609375;-7.988494873046875
1445425531587;48.93963623046875;-156.047119140625;26.547651290893555;-4.3865203857421875;-3.5509796142578125;-8.027725219726562
1445425531621;48.982940673828125;-156.05133056640625;26.5257625579834;-4.3473052978515625;-3.5509796142578125;-7.988494873046875
1445425531663;49.012054443359375;-156.0546417236328;26.51140594482422;-4.3865203857421875;-3.5117645263671875;-7.929656982421875
1445425531687;49.035247802734375;-156.05484008789062;26.498079299926758;-4.366912841796875;-3.5313720703125;-7.9688873291015625
1445425531721;49.046966552734375;-156.0496368408203;26.48723030090332;-4.3473052978515625;-3.5706024169921875;-7.9688873291015625
1445425531753;49.058135986328125;-156.04119873046875;26.474214553833008;-4.366912841796875;-3.5706024169921875;-7.94927978515625
1445425531786;49.083831787109375;-156.04788208007812;26.464385986328125;-4.3865203857421875;-3.5509796142578125;-7.94927978515625
1445425531819;49.083404541015625;-156.05503845214844;26.470176696777344;-4.4061431884765625;-3.4921417236328125;-7.988494873046875
1445425531852;49.100372314453125;-156.05233764648438;26.458189010620117;-4.3473052978515625;-3.452911376953125;-8.027725219726562
1445425531885;49.06134033203125;-156.03126525878906;26.464675903320312;-4.4061431884765625;-3.5706024169921875;-7.9688873291015625
1445425531919;48.973052978515625;-156.0021514892578;26.493684768676758;-4.4061431884765625;-3.5706024169921875;-7.94927978515625
1445425531951;48.962799072265625;-155.98680114746094;26.487852096557617;-4.366912841796875;-3.5902099609375;-8.00811767578125
1445425531984;48.999176025390625;-155.9818878173828;26.462867736816406;-4.3473052978515625;-3.6098175048828125;-7.988494873046875
1445425532017;48.987640380859375;-155.97421264648438;26.463693618774414;-4.3276824951171875;-3.5706024169921875;-8.00811767578125
1445425532051;49.019744873046875;-155.9800262451172;26.449420928955078;-4.366912841796875;-3.5902099609375;-8.00811767578125
1445425532083;49.023468017578125;-155.9833984375;26.449848175048828;-4.3865203857421875;-3.5509796142578125;-8.00811767578125
1445425532117;48.98272705078125;-155.97225952148438;26.46506118774414;-4.3865203857421875;-3.5509796142578125;-8.027725219726562
1445425532148;49.001220703125;-155.98153686523438;26.461406707763672;-4.3473052978515625;-3.5117645263671875;-7.929656982421875
1445425532184;49.005096435546875;-155.9871063232422;26.46343994140625;-4.3276824951171875;-3.5117645263671875;-7.988494873046875
1445425532215;48.91888427734375;-155.96368408203125;26.49567222595215;-4.3865203857421875;-3.5509796142578125;-7.94927978515625
1445425532250;48.859619140625;-155.9639892578125;26.530351638793945;-4.4061431884765625;-3.5313720703125;-8.027725219726562
1445425532281;48.85504150390625;-155.96707153320312;26.535377502441406;-4.4061431884765625;-3.5706024169921875;-7.9688873291015625
1445425532313;48.858795166015625;-155.9730987548828;26.537803649902344;-4.3473052978515625;-3.5509796142578125;-7.94927978515625
1445425532347;48.872314453125;-155.9768829345703;26.532859802246094;-4.3473052978515625;-3.5902099609375;-8.00811767578125
1445425532379;48.88763427734375;-155.9876708984375;26.532224655151367;-4.3473052978515625;-3.5706024169921875;-7.929656982421875
1445425532413;48.95458984375;-156.00697326660156;26.50812530517578;-4.308074951171875;-3.5313720703125;-7.929656982421875
1445425532447;48.9852294921875;-156.00894165039062;26.4918155670166;-4.308074951171875;-3.5313720703125;-7.929656982421875
1445425532479;48.98822021484375;-156.0055694580078;26.48748207092285;-4.2884674072265625;-3.5509796142578125;-8.027725219726562
1445425532511;48.99212646484375;-156.00027465820312;26.481122970581055;-4.308074951171875;-3.5313720703125;-8.027725219726562
1445425532544;48.975616455078125;-155.99658203125;26.48790740966797;-4.308074951171875;-3.5313720703125;-7.94927978515625
1445425532577;48.943878173828125;-155.99806213378906;26.50751495361328;-4.3473052978515625;-3.5509796142578125;-7.988494873046875
1445425532611;48.895050048828125;-155.99801635742188;26.535837173461914;-4.3865203857421875;-3.5117645263671875;-7.929656982421875
1445425532644;48.889404296875;-155.99916076660156;26.53999137878418;-4.3473052978515625;-3.5509796142578125;-7.929656982421875
1445425532676;48.925262451171875;-156.01907348632812;26.534454345703125;-4.3276824951171875;-3.5313720703125;-7.94927978515625
1445425532709;48.999053955078125;-156.06729125976562;26.528703689575195;-4.4061431884765625;-3.5313720703125;-7.988494873046875
1445425532743;48.999053955078125;-156.06729125976562;26.528703689575195;-4.3473052978515625;-3.452911376953125;-8.027725219726562
1445425532776;49.09930419921875;-156.11822509765625;26.509796142578125;-4.366912841796875;-3.5117645263671875;-8.00811767578125
1445425532809;49.11639404296875;-156.11805725097656;26.49973487854004;-4.3473052978515625;-3.5509796142578125;-8.047332763671875
1445425532842;49.08270263671875;-156.0975341796875;26.503437042236328;-4.3473052978515625;-3.5706024169921875;-7.988494873046875
1445425532875;49.072296142578125;-156.08180236816406;26.497331619262695;-4.308074951171875;-3.5706024169921875;-7.929656982421875
1445425532908;49.0711669921875;-156.0712127685547;26.489803314208984;-4.3276824951171875;-3.5706024169921875;-7.988494873046875
1445425532941;49.064239501953125;-156.0654296875;26.489377975463867;-4.3473052978515625;-3.5509796142578125;-8.00811767578125
1445425532973;49.027679443359375;-156.05055236816406;26.499177932739258;-4.3473052978515625;-3.5902099609375;-7.94927978515625
1445425533010;49.01519775390625;-156.04360961914062;26.501068115234375;-4.3865203857421875;-3.5313720703125;-7.988494873046875
1445425533044;48.95404052734375;-156.0248260498047;26.52216911315918;-4.425750732421875;-3.5313720703125;-7.929656982421875
1445425533072;48.976776123046875;-156.02975463867188;26.512744903564453;-4.308074951171875;-3.5117645263671875;-7.9688873291015625
1445425533107;48.98223876953125;-156.03173828125;26.511106491088867;-4.3276824951171875;-3.5509796142578125;-7.9688873291015625
1445425533139;48.994354248046875;-156.0475616455078;26.5162296295166;-4.3473052978515625;-3.452911376953125;-7.929656982421875
1445425533171;49.017181396484375;-156.0533905029297;26.5074405670166;-4.2884674072265625;-3.4921417236328125;-7.988494873046875
1445425533205;49.00262451171875;-156.03651428222656;26.502927780151367;-4.3276824951171875;-3.5509796142578125;-8.00811767578125
1445425533237;48.9808349609375;-156.01617431640625;26.499942779541016;-4.2884674072265625;-3.5902099609375;-8.00811767578125
1445425533271;48.947021484375;-156.02041625976562;26.522863388061523;-4.3865203857421875;-3.5509796142578125;-7.94927978515625
1445425533303;48.9326171875;-156.02252197265625;26.53282928466797;-4.366912841796875;-3.5313720703125;-8.00811767578125
1445425533337;48.92596435546875;-156.0371856689453;26.54793930053711;-4.4061431884765625;-3.5313720703125;-7.9688873291015625
1445425533370;48.927276611328125;-156.03565979003906;26.54600715637207;-4.44537353515625;-3.6098175048828125;-8.06695556640625
1445425533403;48.911773681640625;-156.0635528564453;26.576396942138672;-4.44537353515625;-3.5117645263671875;-7.9688873291015625
1445425533436;48.8541259765625;-156.06011962890625;26.60706901550293;-4.425750732421875;-3.5117645263671875;-7.988494873046875
1445425533469;48.825836181640625;-156.04852294921875;26.614517211914062;-4.4061431884765625;-3.5902099609375;-7.929656982421875
1445425533502;48.850128173828125;-156.0546417236328;26.605175018310547;-4.308074951171875;-3.5509796142578125;-7.929656982421875
1445425533534;48.9136962890625;-156.08877563476562;26.594627380371094;-4.2884674072265625;-3.4725341796875;-7.9688873291015625
1445425533571;48.904937744140625;-156.09078979492188;26.601226806640625;-4.308074951171875;-3.4333038330078125;-7.9688873291015625
1445425533602;48.9468994140625;-156.10585021972656;26.588560104370117;-4.3473052978515625;-3.5313720703125;-7.988494873046875
1445425533634;48.9259033203125;-156.11822509765625;26.610166549682617;-4.425750732421875;-3.5117645263671875;-7.94927978515625
1445425533667;48.907470703125;-156.12525939941406;26.626190185546875;-4.4061431884765625;-3.4921417236328125;-7.9688873291015625
1445425533700;48.861053466796875;-156.10580444335938;26.638025283813477;-4.425750732421875;-3.5313720703125;-8.027725219726562
1445425533733;48.854217529296875;-156.10008239746094;26.63756561279297;-4.3276824951171875;-3.5313720703125;-7.929656982421875
1445425533765;48.873931884765625;-156.0965118408203;26.62348175048828;-4.366912841796875;-3.5509796142578125;-8.027725219726562
1445425533814;48.90478515625;-156.10267639160156;26.61042594909668;-4.3865203857421875;-3.4921417236328125;-8.047332763671875
1445425533833;48.92413330078125;-156.11724853515625;26.610456466674805;-4.366912841796875;-3.452911376953125;-7.988494873046875
1445425533866;48.8939208984375;-156.12582397460938;26.634429931640625;-4.44537353515625;-3.5313720703125;-8.047332763671875
1445425533899;48.85418701171875;-156.12022399902344;26.652990341186523;-4.484588623046875;-3.5706024169921875;-8.047332763671875
1445425533931;48.8494873046875;-156.11767578125;26.65374755859375;-4.3865203857421875;-3.5509796142578125;-7.9688873291015625
1445425533964;48.81756591796875;-156.1068115234375;26.66379737854004;-4.366912841796875;-3.5706024169921875;-7.929656982421875
1445425533996;48.83184814453125;-156.11402893066406;26.66109275817871;-4.3276824951171875;-3.5117645263671875;-7.929656982421875
1445425534030;48.869232177734375;-156.13327026367188;26.654340744018555;-4.3473052978515625;-3.5509796142578125;-7.9688873291015625
1445425534063;48.910003662109375;-156.17340087890625;26.66166114807129;-4.3473052978515625;-3.452911376953125;-7.94927978515625
1445425534096;48.925628662109375;-156.1832733154297;26.660259246826172;-4.3276824951171875;-3.452911376953125;-7.988494873046875
1445425534129;48.92950439453125;-156.20025634765625;26.671064376831055;-4.3276824951171875;-3.452911376953125;-8.027725219726562
1445425534162;48.803466796875;-156.164794921875;26.716150283813477;-4.366912841796875;-3.5902099609375;-8.027725219726562
1445425534196;48.781005859375;-156.1397705078125;26.763879776000977;-4.366912841796875;-3.5509796142578125;-7.9100494384765625
1445425534229;48.6895751953125;-156.0811004638672;26.861635208129883;-4.44537353515625;-3.6490478515625;-7.9100494384765625
1445425534261;48.62310791015625;-156.08631896972656;26.960981369018555;-4.425750732421875;-3.5117645263671875;-7.94927978515625
1445425534294;48.599273681640625;-156.07293701171875;27.003524780273438;-4.4649810791015625;-3.4921417236328125;-7.929656982421875
1445425534327;48.5814208984375;-156.0172882080078;27.099679946899414;-4.44537353515625;-3.5509796142578125;-7.9100494384765625
1445425534360;48.576507568359375;-155.9935760498047;27.137039184570312;-4.4649810791015625;-3.6098175048828125;-7.8512115478515625
1445425534393;48.54498291015625;-156.0022735595703;27.146028518676758;-4.44537353515625;-3.6294403076171875;-7.929656982421875
1445425534426;48.496856689453125;-156.04583740234375;27.161190032958984;-4.44537353515625;-3.6490478515625;-7.94927978515625
1445425534459;48.45892333984375;-156.0542449951172;27.175743103027344;-4.425750732421875;-3.6294403076171875;-7.8904266357421875
1445425534493;48.341278076171875;-156.07168579101562;27.218536376953125;-4.484588623046875;-3.5902099609375;-7.9100494384765625
1445425534525;48.3035888671875;-156.17953491210938;27.23196029663086;-4.5238189697265625;-3.4136962890625;-7.9100494384765625
1445425534560;48.312713623046875;-156.2379150390625;27.229228973388672;-4.484588623046875;-3.3744659423828125;-7.929656982421875
1445425534591;48.3177490234375;-156.2999725341797;27.24333953857422;-4.50421142578125;-3.4136962890625;-7.9100494384765625
1445425534624;48.3651123046875;-156.3350067138672;27.251232147216797;-4.3276824951171875;-3.4333038330078125;-7.9100494384765625
1445425534657;48.375732421875;-156.35020446777344;27.270097732543945;-4.4061431884765625;-3.4333038330078125;-7.8904266357421875
1445425534689;48.3704833984375;-156.3422088623047;27.28431510925293;-4.4061431884765625;-3.5117645263671875;-7.94927978515625
1445425534723;48.32220458984375;-156.34913635253906;27.286834716796875;-4.484588623046875;-3.5313720703125;-8.00811767578125
1445425534756;48.282196044921875;-156.346923828125;27.280759811401367;-4.50421142578125;-3.452911376953125;-8.00811767578125
1445425534789;48.271636962890625;-156.3905792236328;27.24465560913086;-4.425750732421875;-3.452911376953125;-7.988494873046875
1445425534822;48.27056884765625;-156.41937255859375;27.216711044311523;-4.44537353515625;-3.4136962890625;-8.047332763671875
1445425534855;48.21978759765625;-156.41220092773438;27.135997772216797;-4.50421142578125;-3.4921417236328125;-8.00811767578125
1445425534888;48.207977294921875;-156.42869567871094;27.02324676513672;-4.4649810791015625;-3.5313720703125;-8.047332763671875
1445425534921;48.20843505859375;-156.4382781982422;26.962242126464844;-4.3865203857421875;-3.5313720703125;-8.047332763671875
1445425534954;48.180267333984375;-156.41989135742188;26.8499755859375;-4.3276824951171875;-3.5902099609375;-8.00811767578125
1445425534987;48.175537109375;-156.42189025878906;26.776966094970703;-4.3473052978515625;-3.5509796142578125;-7.988494873046875
1445425535021;48.207275390625;-156.42782592773438;26.733503341674805;-4.2296142578125;-3.5313720703125;-8.027725219726562
1445425535054;48.311309814453125;-156.4595947265625;26.7010498046875;-4.249237060546875;-3.452911376953125;-8.06695556640625
1445425535086;48.34136962890625;-156.4665069580078;26.732290267944336;-4.3276824951171875;-3.4333038330078125;-7.9100494384765625
1445425535119;48.332763671875;-156.4735565185547;26.757356643676758;-4.4061431884765625;-3.4136962890625;-7.94927978515625
1445425535152;48.30169677734375;-156.48953247070312;26.808774948120117;-4.50421142578125;-3.4333038330078125;-8.027725219726562
1445425535186;48.2799072265625;-156.49351501464844;26.8265323638916;-4.425750732421875;-3.4333038330078125;-7.94927978515625
1445425535218;48.191986083984375;-156.47068786621094;26.873737335205078;-4.425750732421875;-3.4725341796875;-7.94927978515625
1445425535251;48.078369140625;-156.44691467285156;26.917591094970703;-4.50421142578125;-3.4725341796875;-8.00811767578125
1445425535284;48.058746337890625;-156.43667602539062;26.923297882080078;-4.44537353515625;-3.4921417236328125;-8.06695556640625
1445425535317;47.999664306640625;-156.40682983398438;26.93027687072754;-4.3865203857421875;-3.4725341796875;-8.027725219726562
1445425535352;47.91546630859375;-156.3569793701172;26.940446853637695;-4.3865203857421875;-3.5117645263671875;-8.047332763671875
1445425535383;47.87445068359375;-156.32691955566406;26.945926666259766;-4.3865203857421875;-3.5509796142578125;-8.027725219726562
1445425535421;47.81195068359375;-156.28457641601562;26.955854415893555;-4.3473052978515625;-3.6098175048828125;-8.00811767578125
1445425535449;47.8349609375;-156.30303955078125;26.961774826049805;-4.3865203857421875;-3.5117645263671875;-7.9688873291015625
1445425535483;47.837677001953125;-156.31480407714844;26.967363357543945;-4.484588623046875;-3.4725341796875;-7.9688873291015625
1445425535517;47.871337890625;-156.33624267578125;26.95884132385254;-4.4649810791015625;-3.4921417236328125;-8.00811767578125
1445425535548;47.87939453125;-156.3520965576172;26.961986541748047;-4.4649810791015625;-3.4333038330078125;-7.9688873291015625
1445425535581;47.889678955078125;-156.3783416748047;26.965190887451172;-4.44537353515625;-3.452911376953125;-8.027725219726562
1445425535614;47.811187744140625;-156.35476684570312;26.976390838623047;-4.425750732421875;-3.452911376953125;-7.8904266357421875
1445425535646;47.77520751953125;-156.33956909179688;26.978010177612305;-4.4061431884765625;-3.4921417236328125;-7.929656982421875
1445425535679;47.76373291015625;-156.3088836669922;26.964609146118164;-4.4061431884765625;-3.5117645263671875;-7.988494873046875
1445425535713;47.7581787109375;-156.302001953125;26.964332580566406;-4.4649810791015625;-3.5117645263671875;-7.9688873291015625
1445425535747;47.798004150390625;-156.30062866210938;26.942394256591797;-4.425750732421875;-3.5117645263671875;-7.988494873046875
1445425535779;47.83624267578125;-156.2925567626953;26.928390502929688;-4.3865203857421875;-3.5313720703125;-7.929656982421875
1445425535812;47.854736328125;-156.27064514160156;26.908891677856445;-4.3473052978515625;-3.4921417236328125;-7.9100494384765625
1445425535846;47.83099365234375;-156.2583465576172;26.91449737548828;-4.366912841796875;-3.5509796142578125;-7.8904266357421875
1445425535878;47.82977294921875;-156.26531982421875;26.931535720825195;-4.44537353515625;-3.4725341796875;-7.9100494384765625
1445425535912;47.8096923828125;-156.25808715820312;26.943153381347656;-4.50421142578125;-3.4921417236328125;-7.8904266357421875
1445425535944;47.773895263671875;-156.2281036376953;26.948272705078125;-4.484588623046875;-3.4725341796875;-7.8904266357421875
1445425535977;47.718231201171875;-156.17832946777344;26.951900482177734;-4.44537353515625;-3.5509796142578125;-7.929656982421875
1445425536010;47.710205078125;-156.13772583007812;26.938657760620117;-4.4649810791015625;-3.5509796142578125;-7.929656982421875
1445425536043;47.719512939453125;-156.12734985351562;26.925546646118164;-4.3865203857421875;-3.5509796142578125;-7.94927978515625
1445425536076;47.7567138671875;-156.0885467529297;26.885488510131836;-4.366912841796875;-3.6294403076171875;-7.8315887451171875
1445425536109;47.805572509765625;-156.09408569335938;26.87206268310547;-4.3473052978515625;-3.5509796142578125;-8.00811767578125
1445425536141;47.865509033203125;-156.1009063720703;26.86478042602539;-4.425750732421875;-3.4725341796875;-7.94927978515625
1445425536175;47.973297119140625;-156.1219940185547;26.841936111450195;-4.4649810791015625;-3.5117645263671875;-8.047332763671875
1445425536208;48.019683837890625;-156.1387176513672;26.836877822875977;-4.484588623046875;-3.5117645263671875;-7.9688873291015625
1445425536241;48.126739501953125;-156.17242431640625;26.809810638427734;-4.4061431884765625;-3.4333038330078125;-7.9688873291015625
1445425536273;48.163604736328125;-156.1735382080078;26.791685104370117;-4.425750732421875;-3.5313720703125;-7.9688873291015625
1445425536307;48.21527099609375;-156.19386291503906;26.76762580871582;-4.44537353515625;-3.5313720703125;-8.027725219726562
1445425536340;48.18560791015625;-156.1819305419922;26.765228271484375;-4.425750732421875;-3.5117645263671875;-8.00811767578125
1445425536372;48.20947265625;-156.18601989746094;26.752056121826172;-4.3865203857421875;-3.5117645263671875;-8.06695556640625
1445425536406;48.20086669921875;-156.159423828125;26.730527877807617;-4.366912841796875;-3.5706024169921875;-8.086563110351562
1445425536439;48.137115478515625;-156.09512329101562;26.719249725341797;-4.3276824951171875;-3.5117645263671875;-7.9688873291015625
1445425536472;48.10894775390625;-156.0557098388672;26.713918685913086;-4.366912841796875;-3.5902099609375;-7.929656982421875
1445425536505;48.102569580078125;-156.0158233642578;26.69293785095215;-4.3276824951171875;-3.5313720703125;-7.94927978515625
1445425536538;48.052734375;-155.985107421875;26.69793701171875;-4.366912841796875;-3.5313720703125;-7.929656982421875
1445425536572;48.04150390625;-155.97259521484375;26.704668045043945;-4.4649810791015625;-3.5313720703125;-7.9688873291015625
1445425536603;48.015106201171875;-155.96939086914062;26.69074058532715;-4.4649810791015625;-3.5509796142578125;-7.94927978515625
1445425536637;48.058074951171875;-155.9908447265625;26.657470703125;-4.3865203857421875;-3.5509796142578125;-8.027725219726562
1445425536671;48.093353271484375;-156.0020751953125;26.670433044433594;-4.3473052978515625;-3.4921417236328125;-8.00811767578125
1445425536704;48.10699462890625;-156.00518798828125;26.7327823638916;-4.425750732421875;-3.4921417236328125;-7.929656982421875
1445425536735;48.05572509765625;-156.0319366455078;26.779781341552734;-4.484588623046875;-3.452911376953125;-7.9688873291015625
1445425536768;48.041534423828125;-156.03407287597656;26.78574562072754;-4.44537353515625;-3.4921417236328125;-8.06695556640625
1445425536803;48.01904296875;-156.02651977539062;26.793581008911133;-4.3865203857421875;-3.5509796142578125;-7.929656982421875
1445425536835;48.03460693359375;-156.03334045410156;26.78468132019043;-4.3276824951171875;-3.5313720703125;-7.988494873046875
1445425536868;48.00408935546875;-156.05184936523438;26.80131721496582;-4.3865203857421875;-3.5117645263671875;-7.929656982421875
1445425536901;47.950103759765625;-156.03497314453125;26.82140350341797;-4.4649810791015625;-3.5509796142578125;-7.870819091796875
1445425536935;47.94091796875;-156.0386199951172;26.833419799804688;-4.484588623046875;-3.5509796142578125;-7.9688873291015625
1445425536967;47.968170166015625;-156.0496063232422;26.83043670654297;-4.4061431884765625;-3.5902099609375;-7.9688873291015625
1445425537000;47.98101806640625;-156.06199645996094;26.83556365966797;-4.4061431884765625;-3.5117645263671875;-7.94927978515625
1445425537033;47.9671630859375;-156.05662536621094;26.84136962890625;-4.44537353515625;-3.5509796142578125;-7.9688873291015625
1445425537067;47.9891357421875;-156.05142211914062;26.826492309570312;-4.3865203857421875;-3.5706024169921875;-7.988494873046875
1445425537098;47.96478271484375;-156.05105590820312;26.830636978149414;-4.3865203857421875;-3.5706024169921875;-7.9100494384765625
1445425537134;48.0028076171875;-156.06106567382812;26.81083106994629;-4.3865203857421875;-3.5117645263671875;-7.929656982421875
1445425537169;48.09356689453125;-156.0909423828125;26.78074836730957;-4.3865203857421875;-3.4921417236328125;-8.027725219726562
1445425537198;48.135589599609375;-156.1035614013672;26.76595687866211;-4.3473052978515625;-3.5117645263671875;-7.9688873291015625
1445425537231;48.176971435546875;-156.11973571777344;26.74750328063965;-4.425750732421875;-3.4725341796875;-7.94927978515625
1445425537263;48.228057861328125;-156.14056396484375;26.73885726928711;-4.4649810791015625;-3.4921417236328125;-7.988494873046875
1445425537299;48.2698974609375;-156.15036010742188;26.724451065063477;-4.3865203857421875;-3.4921417236328125;-7.94927978515625
1445425537330;48.323394775390625;-156.15516662597656;26.69194221496582;-4.3473052978515625;-3.5313720703125;-7.9688873291015625
1445425537363;48.364227294921875;-156.1641387939453;26.67756462097168;-4.3276824951171875;-3.452911376953125;-7.94927978515625
1445425537397;48.3582763671875;-156.16580200195312;26.68126106262207;-4.425750732421875;-3.452911376953125;-7.9688873291015625
1445425537429;48.38848876953125;-156.1790313720703;26.66659164428711;-4.425750732421875;-3.4921417236328125;-7.988494873046875
1445425537462;48.3309326171875;-156.17015075683594;26.67597198486328;-4.366912841796875;-3.5706024169921875;-7.9100494384765625
1445425537496;48.297271728515625;-156.1748046875;26.688756942749023;-4.366912841796875;-3.5509796142578125;-7.9100494384765625
1445425537528;48.19482421875;-156.1737518310547;26.732736587524414;-4.366912841796875;-3.4725341796875;-7.8904266357421875
1445425537563;48.180419921875;-156.1836395263672;26.73749542236328;-4.366912841796875;-3.5117645263671875;-7.94927978515625
1445425537593;48.208526611328125;-156.1876220703125;26.72463607788086;-4.3276824951171875;-3.4921417236328125;-7.94927978515625
1445425537627;48.279022216796875;-156.22865295410156;26.715185165405273;-4.3473052978515625;-3.452911376953125;-7.9100494384765625
1445425537660;48.30841064453125;-156.2498016357422;26.715248107910156;-4.3865203857421875;-3.4725341796875;-8.027725219726562
1445425537693;48.369293212890625;-156.26368713378906;26.69788360595703;-4.366912841796875;-3.5117645263671875;-8.00811767578125
1445425537726;48.38226318359375;-156.26483154296875;26.683408737182617;-4.3473052978515625;-3.4921417236328125;-7.9688873291015625
1445425537760;48.377777099609375;-156.26025390625;26.67349624633789;-4.3473052978515625;-3.5117645263671875;-7.94927978515625
1445425537792;48.469390869140625;-156.29222106933594;26.62368392944336;-4.308074951171875;-3.4921417236328125;-8.027725219726562
1445425537825;48.418426513671875;-156.2891387939453;26.62520980834961;-4.3473052978515625;-3.5313720703125;-7.988494873046875
1445425537858;48.350189208984375;-156.28045654296875;26.63939666748047;-4.3473052978515625;-3.5313720703125;-7.988494873046875
1445425537891;48.257293701171875;-156.26695251464844;26.657733917236328;-4.366912841796875;-3.5117645263671875;-7.929656982421875
1445425537924;48.2095947265625;-156.28334045410156;26.680583953857422;-4.366912841796875;-3.4725341796875;-7.9688873291015625
1445425537957;48.19976806640625;-156.29580688476562;26.691679000854492;-4.44537353515625;-3.4725341796875;-7.929656982421875
1445425537990;48.207977294921875;-156.3064727783203;26.695951461791992;-4.3473052978515625;-3.452911376953125;-7.9100494384765625
1445425538024;48.210296630859375;-156.2988739013672;26.70022964477539;-4.4061431884765625;-3.5117645263671875;-7.9100494384765625
1445425538056;48.1907958984375;-156.27589416503906;26.712862014770508;-4.4061431884765625;-3.5313720703125;-7.9100494384765625
1445425538089;48.1328125;-156.247314453125;26.732566833496094;-4.3865203857421875;-3.5902099609375;-7.929656982421875
1445425538124;48.102569580078125;-156.2419891357422;26.751996994018555;-4.4061431884765625;-3.5509796142578125;-7.94927978515625
1445425538154;48.021759033203125;-156.250732421875;26.801158905029297;-4.366912841796875;-3.4921417236328125;-7.988494873046875
1445425538188;47.94830322265625;-156.249755859375;26.83637046813965;-4.44537353515625;-3.4725341796875;-8.00811767578125
1445425538221;47.915863037109375;-156.23995971679688;26.84710693359375;-4.44537353515625;-3.5117645263671875;-7.94927978515625
1445425538253;47.9256591796875;-156.26190185546875;26.851341247558594;-4.425750732421875;-3.5117645263671875;-7.988494873046875
1445425538287;47.94573974609375;-156.28099060058594;26.855571746826172;-4.44537353515625;-3.452911376953125;-7.9688873291015625
1445425538319;47.984375;-156.32293701171875;26.869556427001953;-4.484588623046875;-3.4333038330078125;-8.047332763671875
1445425538353;47.9404296875;-156.32614135742188;26.895009994506836;-4.425750732421875;-3.4921417236328125;-8.047332763671875
1445425538387;47.923675537109375;-156.3240966796875;26.909313201904297;-4.4061431884765625;-3.5117645263671875;-7.988494873046875
1445425538420;47.806488037109375;-156.30087280273438;26.97435188293457;-4.484588623046875;-3.5313720703125;-7.988494873046875
1445425538452;47.7718505859375;-156.30429077148438;27.003623962402344;-4.4649810791015625;-3.5117645263671875;-7.988494873046875
1445425538484;47.74310302734375;-156.3044891357422;27.02328109741211;-4.4649810791015625;-3.5117645263671875;-7.988494873046875
1445425538517;47.6839599609375;-156.3062744140625;27.061542510986328;-4.44537353515625;-3.5509796142578125;-7.94927978515625
1445425538552;47.670654296875;-156.3255615234375;27.078369140625;-4.3865203857421875;-3.4921417236328125;-7.929656982421875
1445425538584;47.667724609375;-156.33688354492188;27.0869083404541;-4.425750732421875;-3.4921417236328125;-7.9688873291015625
1445425538621;47.65179443359375;-156.3555450439453;27.115982055664062;-4.425750732421875;-3.4725341796875;-7.9688873291015625
1445425538650;47.5693359375;-156.3673553466797;27.185916900634766;-4.5238189697265625;-3.452911376953125;-7.929656982421875
1445425538683;47.53741455078125;-156.3739471435547;27.209697723388672;-4.56304931640625;-3.4725341796875;-7.9688873291015625
1445425538716;47.450958251953125;-156.3411865234375;27.255367279052734;-4.5434417724609375;-3.5509796142578125;-8.027725219726562
1445425538749;47.428955078125;-156.33145141601562;27.26830291748047;-4.425750732421875;-3.5313720703125;-7.94927978515625
1445425538782;47.406005859375;-156.32089233398438;27.289846420288086;-4.4061431884765625;-3.5509796142578125;-7.94927978515625
1445425538814;47.407562255859375;-156.3211212158203;27.30793571472168;-4.425750732421875;-3.5117645263671875;-7.9688873291015625
1445425538849;47.415740966796875;-156.33287048339844;27.320287704467773;-4.484588623046875;-3.4725341796875;-7.988494873046875
1445425538880;47.366180419921875;-156.3300018310547;27.352018356323242;-4.484588623046875;-3.5117645263671875;-7.988494873046875
1445425538914;47.30517578125;-156.3271026611328;27.382734298706055;-4.484588623046875;-3.5313720703125;-7.929656982421875
1445425538947;47.290679931640625;-156.33218383789062;27.3913631439209;-4.50421142578125;-3.4921417236328125;-7.929656982421875
1445425538980;47.2886962890625;-156.33570861816406;27.39192771911621;-4.4649810791015625;-3.5117645263671875;-7.9688873291015625
1445425539013;47.3004150390625;-156.33595275878906;27.391523361206055;-4.484588623046875;-3.5313720703125;-7.988494873046875
1445425539046;47.39276123046875;-156.3675994873047;27.368074417114258;-4.4649810791015625;-3.5117645263671875;-8.027725219726562
1445425539078;47.5797119140625;-156.44509887695312;27.331321716308594;-4.484588623046875;-3.4921417236328125;-7.94927978515625
1445425539112;47.629241943359375;-156.49795532226562;27.307706832885742;-4.44537353515625;-3.394073486328125;-7.988494873046875
1445425539144;47.719268798828125;-156.5935516357422;27.2386531829834;-4.44537353515625;-3.4136962890625;-8.047332763671875
1445425539178;47.79443359375;-156.70608520507812;27.17631721496582;-4.50421142578125;-3.394073486328125;-8.106185913085938
1445425539214;47.810211181640625;-156.7671661376953;27.162294387817383;-4.5238189697265625;-3.3744659423828125;-8.086563110351562
1445425539244;47.86053466796875;-156.8526611328125;27.15166473388672;-4.5238189697265625;-3.3744659423828125;-8.00811767578125
1445425539276;47.9801025390625;-156.91624450683594;27.133888244628906;-4.4649810791015625;-3.3548583984375;-8.106185913085938
1445425539310;48.03857421875;-156.94920349121094;27.12208366394043;-4.4649810791015625;-3.335235595703125;-8.06695556640625
1445425539343;47.991546630859375;-156.9759521484375;27.124805450439453;-4.44537353515625;-3.3548583984375;-8.00811767578125
1445425539375;48.003173828125;-157.01077270507812;27.11223602294922;-4.425750732421875;-3.4136962890625;-8.06695556640625
1445425539413;47.99560546875;-157.0238494873047;27.114213943481445;-4.4061431884765625;-3.335235595703125;-8.047332763671875
1445425539442;48.024627685546875;-157.04537963867188;27.101612091064453;-4.44537353515625;-3.4136962890625;-8.027725219726562
1445425539476;48.02703857421875;-157.05690002441406;27.099931716918945;-4.3865203857421875;-3.394073486328125;-7.929656982421875
1445425539508;47.98602294921875;-157.05723571777344;27.117313385009766;-4.44537353515625;-3.4333038330078125;-7.94927978515625
1445425539543;47.92291259765625;-157.05584716796875;27.15508270263672;-4.44537353515625;-3.452911376953125;-7.929656982421875
1445425539575;47.934661865234375;-157.08290100097656;27.167436599731445;-4.4649810791015625;-3.3548583984375;-8.00811767578125
1445425539606;47.99493408203125;-157.13661193847656;27.178312301635742;-4.484588623046875;-3.3744659423828125;-7.9688873291015625
1445425539640;48.075042724609375;-157.2147674560547;27.198209762573242;-4.484588623046875;-3.276397705078125;-8.047332763671875
1445425539674;48.1005859375;-157.24896240234375;27.211904525756836;-4.4649810791015625;-3.2960052490234375;-8.086563110351562
1445425539706;48.102264404296875;-157.29638671875;27.253070831298828;-4.484588623046875;-3.335235595703125;-8.106185913085938
1445425539739;48.027801513671875;-157.2836151123047;27.2822265625;-4.50421142578125;-3.452911376953125;-8.00811767578125
1445425539773;47.99383544921875;-157.291748046875;27.304391860961914;-4.425750732421875;-3.3156280517578125;-7.94927978515625
1445425539805;47.98797607421875;-157.35838317871094;27.346439361572266;-4.5238189697265625;-3.217559814453125;-7.929656982421875
1445425539839;47.905670166015625;-157.36648559570312;27.324365615844727;-4.50421142578125;-3.335235595703125;-7.929656982421875
1445425539871;47.88665771484375;-157.40469360351562;27.284393310546875;-4.4061431884765625;-3.099884033203125;-8.047332763671875
1445425539904;47.907958984375;-157.39439392089844;27.22599983215332;-4.366912841796875;-3.394073486328125;-7.8512115478515625
1445425539936;47.9139404296875;-157.3637237548828;27.293750762939453;-4.5826568603515625;-3.3548583984375;-7.94927978515625
1445425539970;47.82830810546875;-157.29185485839844;27.25328826904297;-4.5434417724609375;-3.4921417236328125;-8.027725219726562
1445425540003;47.62237548828125;-157.2916717529297;27.27942657470703;-4.56304931640625;-3.394073486328125;-7.9100494384765625
1445425540038;47.609832763671875;-157.32081604003906;27.247760772705078;-4.44537353515625;-3.2567901611328125;-7.929656982421875
1445425540069;47.615386962890625;-157.43911743164062;27.161001205444336;-4.44537353515625;-3.217559814453125;-7.9688873291015625
1445425540102;47.634063720703125;-157.49143981933594;27.15006446838379;-4.4649810791015625;-3.13909912109375;-7.988494873046875
1445425540135;47.681060791015625;-157.5257110595703;27.086626052856445;-4.3865203857421875;-3.2371673583984375;-8.00811767578125
1445425540168;47.7952880859375;-157.51174926757812;26.998775482177734;-4.3473052978515625;-3.3548583984375;-8.145401000976562
1445425540201;47.896392822265625;-157.47962951660156;26.93421173095703;-4.2884674072265625;-3.3744659423828125;-8.06695556640625
1445425540234;47.948486328125;-157.4715118408203;26.903310775756836;-4.3473052978515625;-3.3744659423828125;-8.086563110351562
1445425540267;47.9658203125;-157.447265625;26.880598068237305;-4.3865203857421875;-3.394073486328125;-8.06695556640625
1445425540299;47.958953857421875;-157.43894958496094;26.871484756469727;-4.44537353515625;-3.335235595703125;-7.988494873046875
1445425540333;47.9835205078125;-157.42796325683594;26.854881286621094;-4.4649810791015625;-3.3548583984375;-8.00811767578125
1445425540367;48.01812744140625;-157.41488647460938;26.820016860961914;-4.366912841796875;-3.335235595703125;-7.9688873291015625
1445425540399;48.017822265625;-157.401123046875;26.807910919189453;-4.366912841796875;-3.3744659423828125;-8.00811767578125
1445425540432;47.944122314453125;-157.38418579101562;26.82438850402832;-4.4061431884765625;-3.3548583984375;-8.06695556640625
1445425540464;47.84783935546875;-157.34800720214844;26.867523193359375;-4.425750732421875;-3.3156280517578125;-8.00811767578125
1445425540498;47.80865478515625;-157.31100463867188;26.88921546936035;-4.3276824951171875;-3.3744659423828125;-7.929656982421875
1445425540531;47.8072509765625;-157.24899291992188;26.892709732055664;-4.366912841796875;-3.4333038330078125;-8.086563110351562
1445425540563;47.83880615234375;-157.25184631347656;26.874109268188477;-4.366912841796875;-3.3548583984375;-8.086563110351562
1445425540597;47.83056640625;-157.2589569091797;26.865880966186523;-4.425750732421875;-3.3156280517578125;-8.027725219726562
1445425540630;47.873992919921875;-157.2900390625;26.840330123901367;-4.425750732421875;-3.2960052490234375;-8.00811767578125
1445425540663;47.877777099609375;-157.2780303955078;26.836835861206055;-4.4061431884765625;-3.394073486328125;-7.9688873291015625
1445425540696;47.903564453125;-157.25865173339844;26.835556030273438;-4.366912841796875;-3.3548583984375;-8.027725219726562
1445425540728;47.893951416015625;-157.23817443847656;26.86585807800293;-4.44537353515625;-3.3156280517578125;-8.027725219726562
1445425540765;47.87921142578125;-157.21463012695312;26.88608741760254;-4.44537353515625;-3.3744659423828125;-8.00811767578125
1445425540796;47.709503173828125;-157.1368408203125;26.91582679748535;-4.4649810791015625;-3.452911376953125;-7.9688873291015625
1445425540828;47.68243408203125;-157.11611938476562;26.90239143371582;-4.4061431884765625;-3.4136962890625;-7.94927978515625
1445425540861;47.725830078125;-157.12399291992188;26.87753677368164;-4.425750732421875;-3.3548583984375;-7.94927978515625
1445425540894;47.716796875;-157.16241455078125;26.828542709350586;-4.425750732421875;-3.3744659423828125;-8.086563110351562
1445425540926;47.707244873046875;-157.22715759277344;26.794849395751953;-4.4061431884765625;-3.2567901611328125;-8.00811767578125
1445425540960;47.729461669921875;-157.25865173339844;26.79373550415039;-4.4649810791015625;-3.2371673583984375;-8.00811767578125
1445425540993;47.8486328125;-157.267822265625;26.768245697021484;-4.366912841796875;-3.2371673583984375;-8.047332763671875
1445425541026;47.902191162109375;-157.21046447753906;26.763870239257812;-4.3276824951171875;-3.3548583984375;-8.047332763671875
1445425541059;47.9302978515625;-157.16726684570312;26.764799118041992;-4.3865203857421875;-3.4333038330078125;-8.047332763671875
1445425541093;47.972869873046875;-157.07508850097656;26.76154136657715;-4.366912841796875;-3.4921417236328125;-8.027725219726562
1445425541125;48.002685546875;-157.04556274414062;26.745567321777344;-4.3276824951171875;-3.4136962890625;-8.047332763671875
1445425541157;48.0341796875;-157.00010681152344;26.724029541015625;-4.366912841796875;-3.394073486328125;-8.106185913085938
1445425541191;47.998443603515625;-156.9457550048828;26.693117141723633;-4.3865203857421875;-3.452911376953125;-8.027725219726562
1445425541225;48.010101318359375;-156.93582153320312;26.6752872467041;-4.425750732421875;-3.4333038330078125;-8.047332763671875
1445425541258;47.963714599609375;-156.9223175048828;26.653974533081055;-4.4061431884765625;-3.452911376953125;-8.027725219726562
1445425541290;47.910369873046875;-156.93057250976562;26.656497955322266;-4.4649810791015625;-3.394073486328125;-7.9688873291015625
1445425541323;47.87774658203125;-156.9364013671875;26.627498626708984;-4.3865203857421875;-3.4333038330078125;-8.00811767578125
1445425541357;47.8795166015625;-156.91842651367188;26.600069046020508;-4.3865203857421875;-3.4333038330078125;-7.988494873046875
1445425541389;47.859832763671875;-156.89947509765625;26.58861541748047;-4.3865203857421875;-3.4921417236328125;-7.9688873291015625
1445425541422;47.889801025390625;-156.8870849609375;26.555341720581055;-4.3473052978515625;-3.452911376953125;-8.047332763671875
1445425541456;47.954315185546875;-156.88711547851562;26.49830436706543;-4.44537353515625;-3.4725341796875;-8.047332763671875
1445425541488;48.005950927734375;-156.90122985839844;26.4586238861084;-4.3276824951171875;-3.452911376953125;-8.086563110351562
1445425541521;48.041046142578125;-156.91090393066406;26.417959213256836;-4.3473052978515625;-3.4333038330078125;-8.027725219726562
1445425541554;47.9508056640625;-156.88510131835938;26.426830291748047;-4.366912841796875;-3.4725341796875;-7.988494873046875
1445425541588;47.916473388671875;-156.8570098876953;26.437911987304688;-4.3473052978515625;-3.452911376953125;-7.94927978515625
1445425541620;47.92706298828125;-156.81393432617188;26.446781158447266;-4.2884674072265625;-3.452911376953125;-7.988494873046875
1445425541653;47.990966796875;-156.77212524414062;26.47895622253418;-4.2688446044921875;-3.3744659423828125;-7.94927978515625
1445425541686;48.020843505859375;-156.7534637451172;26.485322952270508;-4.2688446044921875;-3.394073486328125;-8.00811767578125
1445425541718;48.01947021484375;-156.69076538085938;26.50919532775879;-4.3276824951171875;-3.4333038330078125;-7.9688873291015625
1445425541752;48.035186767578125;-156.66641235351562;26.510156631469727;-4.3276824951171875;-3.452911376953125;-8.047332763671875
1445425541785;47.9605712890625;-156.62387084960938;26.511878967285156;-4.3473052978515625;-3.452911376953125;-8.027725219726562
1445425541818;47.884490966796875;-156.56781005859375;26.5139217376709;-4.3276824951171875;-3.5117645263671875;-7.94927978515625
1445425541852;47.85333251953125;-156.53990173339844;26.51093292236328;-4.366912841796875;-3.5706024169921875;-8.06695556640625
1445425541883;47.83245849609375;-156.51852416992188;26.500608444213867;-4.3473052978515625;-3.5509796142578125;-7.94927978515625
1445425541917;47.798065185546875;-156.5246124267578;26.514196395874023;-4.3865203857421875;-3.4725341796875;-8.00811767578125
1445425541952;47.728851318359375;-156.5135955810547;26.541589736938477;-4.425750732421875;-3.4725341796875;-8.00811767578125
1445425541984;47.600067138671875;-156.4609832763672;26.62851333618164;-4.4061431884765625;-3.452911376953125;-8.027725219726562
1445425542017;47.6868896484375;-156.3628387451172;26.834243774414062;-4.4649810791015625;-3.5117645263671875;-8.047332763671875
1445425542048;47.724395751953125;-156.3173065185547;26.95221710205078;-4.3865203857421875;-3.4725341796875;-7.9688873291015625
1445425542084;47.815185546875;-156.28634643554688;27.085744857788086;-4.50421142578125;-3.5117645263671875;-7.9688873291015625
1445425542117;47.994873046875;-156.29635620117188;27.214454650878906;-4.366912841796875;-3.452911376953125;-8.047332763671875
1445425542148;48.00958251953125;-156.30197143554688;27.271974563598633;-4.44537353515625;-3.4921417236328125;-7.94927978515625
1445425542180;48.02374267578125;-156.27301025390625;27.405210494995117;-4.5434417724609375;-3.5509796142578125;-7.94927978515625
1445425542213;48.052032470703125;-156.2613983154297;27.450958251953125;-4.5238189697265625;-3.5313720703125;-7.988494873046875
1445425542247;48.04345703125;-156.25306701660156;27.490076065063477;-4.5434417724609375;-3.5313720703125;-7.94927978515625
1445425542279;48.05975341796875;-156.2890625;27.55362319946289;-4.5826568603515625;-3.4725341796875;-8.00811767578125
1445425542313;48.066436767578125;-156.31747436523438;27.61600112915039;-4.6022796630859375;-3.4333038330078125;-7.94927978515625
1445425542346;47.976776123046875;-156.38986206054688;27.720138549804688;-4.62188720703125;-3.5117645263671875;-7.9688873291015625
1445425542380;47.8048095703125;-156.5337371826172;27.908775329589844;-4.6414947509765625;-3.4333038330078125;-7.9100494384765625
1445425542411;47.695465087890625;-156.6065216064453;28.01144790649414;-4.6414947509765625;-3.4333038330078125;-7.94927978515625
1445425542444;47.4703369140625;-156.78945922851562;28.130041122436523;-4.5434417724609375;-3.452911376953125;-7.94927978515625
1445425542478;47.068115234375;-156.98812866210938;28.283161163330078;-4.700347900390625;-3.4333038330078125;-7.8512115478515625
1445425542511;46.931121826171875;-157.07704162597656;28.361892700195312;-4.6611175537109375;-3.4921417236328125;-7.870819091796875
1445425542544;46.748046875;-157.29354858398438;28.533445358276367;-4.700347900390625;-3.452911376953125;-8.027725219726562
1445425542577;46.757110595703125;-157.46409606933594;28.582542419433594;-4.484588623046875;-3.13909912109375;-7.8315887451171875
1445425542609;46.914337158203125;-157.70140075683594;28.571685791015625;-4.3276824951171875;-3.13909912109375;-7.7923736572265625
1445425542643;46.9615478515625;-157.719970703125;28.463146209716797;-4.3865203857421875;-3.4333038330078125;-7.94927978515625
1445425542675;47.0635986328125;-157.87452697753906;28.470130920410156;-4.62188720703125;-2.707611083984375;-7.7139129638671875
1445425542709;47.37713623046875;-158.08285522460938;28.140966415405273;-4.44537353515625;-2.2957305908203125;-7.419708251953125
1445425542742;47.796295166015625;-157.87242126464844;27.793087005615234;-4.56304931640625;-2.7468414306640625;-7.8315887451171875
1445425542775;47.956695556640625;-157.62319946289062;27.66431427001953;-4.5434417724609375;-3.452911376953125;-8.30230712890625
1445425542808;48.160125732421875;-157.2305145263672;27.470624923706055;-4.425750732421875;-3.5509796142578125;-8.12579345703125
1445425542841;48.21295166015625;-157.06336975097656;27.365581512451172;-4.3276824951171875;-3.5313720703125;-7.811981201171875
1445425542874;48.29541015625;-156.70135498046875;27.184986114501953;-4.3276824951171875;-3.4725341796875;-7.694305419921875
1445425542906;48.411376953125;-156.35523986816406;27.020061492919922;-4.5434417724609375;-3.6098175048828125;-7.988494873046875
1445425542939;48.406890869140625;-156.2754669189453;26.960556030273438;-4.7199554443359375;-3.5706024169921875;-8.204238891601562
1445425542973;48.340576171875;-156.30360412597656;26.939699172973633;-4.6414947509765625;-3.4921417236328125;-8.106185913085938
1445425543006;48.21832275390625;-156.3517303466797;26.947895050048828;-4.4649810791015625;-3.4136962890625;-7.929656982421875
1445425543038;48.086669921875;-156.3274688720703;26.94930076599121;-4.4649810791015625;-3.6882781982421875;-7.94927978515625
1445425543072;47.959808349609375;-156.14712524414062;27.153928756713867;-4.308074951171875;-3.6490478515625;-7.811981201171875
1445425543105;47.931243896484375;-156.08392333984375;27.3143367767334;-4.5238189697265625;-3.6294403076171875;-7.94927978515625
1445425543139;47.829925537109375;-156.14073181152344;27.35586929321289;-4.3473052978515625;-3.4136962890625;-7.929656982421875
1445425543171;47.723876953125;-155.97808837890625;27.40843391418457;-4.3865203857421875;-3.6098175048828125;-7.870819091796875
1445425543203;47.966278076171875;-155.88851928710938;27.59598731994629;-4.2296142578125;-4.080535888671875;-7.6550750732421875
1445425543237;48.19580078125;-155.83538818359375;27.673067092895508;-4.1511688232421875;-2.884124755859375;-7.8512115478515625
1445425543270;48.38623046875;-155.81163024902344;27.683677673339844;-4.6611175537109375;-3.3548583984375;-7.694305419921875
1445425543303;48.6513671875;-155.5870819091797;27.821863174438477;-4.9553070068359375;-3.4333038330078125;-8.027725219726562
1445425543337;48.74066162109375;-155.4696502685547;27.79610824584961;-4.8376312255859375;-3.6098175048828125;-7.929656982421875
1445425543369;48.675384521484375;-155.23126220703125;27.725255966186523;-4.700347900390625;-3.8255767822265625;-7.870819091796875
1445425543402;48.548492431640625;-155.10777282714844;27.66041374206543;-4.62188720703125;-4.0020904541015625;-7.753143310546875
1445425543435;48.2923583984375;-154.9253387451172;27.491586685180664;-4.5434417724609375;-4.080535888671875;-7.7923736572265625
1445425543469;48.16302490234375;-154.93678283691406;27.28297996520996;-4.4061431884765625;-3.9432525634765625;-7.8512115478515625
1445425543505;48.17755126953125;-155.1212158203125;27.068904876708984;-4.308074951171875;-3.668670654296875;-7.9100494384765625
1445425543533;48.197967529296875;-155.24757385253906;26.98679542541504;-4.2688446044921875;-3.5706024169921875;-7.929656982421875
1445425543567;48.242218017578125;-155.50123596191406;26.89629364013672;-4.3865203857421875;-3.4333038330078125;-7.929656982421875
1445425543600;48.28619384765625;-155.62570190429688;26.880090713500977;-4.484588623046875;-3.4136962890625;-8.047332763671875
1445425543633;48.32281494140625;-155.7823486328125;26.89740562438965;-4.44537353515625;-3.4921417236328125;-8.047332763671875
1445425543665;48.30535888671875;-155.82415771484375;26.92789077758789;-4.44537353515625;-3.4921417236328125;-7.929656982421875
1445425543699;48.2703857421875;-155.85443115234375;26.984451293945312;-4.425750732421875;-3.5117645263671875;-7.929656982421875
1445425543733;48.189300537109375;-155.8330078125;27.041791915893555;-4.44537353515625;-3.5313720703125;-7.870819091796875
1445425543766;48.196441650390625;-155.829345703125;27.046838760375977;-4.4061431884765625;-3.5509796142578125;-7.988494873046875
1445425543797;48.175537109375;-155.83177185058594;27.04445457458496;-4.4061431884765625;-3.5706024169921875;-7.94927978515625
1445425543831;48.1207275390625;-155.8485565185547;27.047956466674805;-4.4649810791015625;-3.5706024169921875;-7.94927978515625
1445425543864;48.0950927734375;-155.8606414794922;27.045825958251953;-4.5238189697265625;-3.6098175048828125;-8.027725219726562
1445425543896;48.05865478515625;-155.87997436523438;27.047941207885742;-4.50421142578125;-3.6098175048828125;-8.00811767578125
1445425543929;48.110748291015625;-155.92391967773438;27.057783126831055;-4.4649810791015625;-3.5117645263671875;-7.94927978515625
1445425543964;48.121368408203125;-155.93524169921875;27.06211280822754;-4.484588623046875;-3.5509796142578125;-7.94927978515625
1445425543996;48.135986328125;-155.94619750976562;27.056482315063477;-4.484588623046875;-3.5313720703125;-7.929656982421875
1445425544029;48.18243408203125;-155.95486450195312;27.039350509643555;-4.3865203857421875;-3.5509796142578125;-7.94927978515625
1445425544062;48.264556884765625;-155.9777374267578;27.010080337524414;-4.3865203857421875;-3.5706024169921875;-8.027725219726562
1445425544094;48.32440185546875;-155.9954071044922;26.982370376586914;-4.44537353515625;-3.5509796142578125;-8.047332763671875
1445425544128;48.37994384765625;-156.01126098632812;26.960649490356445;-4.3473052978515625;-3.5117645263671875;-7.929656982421875
1445425544161;48.390289306640625;-156.0128173828125;26.956636428833008;-4.4061431884765625;-3.5706024169921875;-7.929656982421875
1445425544194;48.376434326171875;-156.0274200439453;26.96209716796875;-4.4649810791015625;-3.5313720703125;-7.9688873291015625
1445425544227;48.38714599609375;-156.03480529785156;26.953487396240234;-4.3865203857421875;-3.5117645263671875;-7.9688873291015625
1445425544261;48.389007568359375;-156.04937744140625;26.95804214477539;-4.4061431884765625;-3.4921417236328125;-7.94927978515625
1445425544293;48.3607177734375;-156.0660858154297;26.974607467651367;-4.44537353515625;-3.5313720703125;-7.9688873291015625
1445425544325;48.37957763671875;-156.08401489257812;26.967836380004883;-4.3865203857421875;-3.4921417236328125;-8.00811767578125
1445425544359;48.436187744140625;-156.0965118408203;26.94723892211914;-4.3865203857421875;-3.5313720703125;-8.00811767578125
1445425544392;48.470001220703125;-156.09059143066406;26.92300033569336;-4.425750732421875;-3.5902099609375;-7.988494873046875
1445425544425;48.4832763671875;-156.0869598388672;26.909793853759766;-4.3865203857421875;-3.5706024169921875;-7.94927978515625
1445425544457;48.58245849609375;-156.134765625;26.896841049194336;-4.484588623046875;-3.4921417236328125;-7.9688873291015625
1445425544491;48.618896484375;-156.1619110107422;26.900785446166992;-4.50421142578125;-3.394073486328125;-7.94927978515625
1445425544524;48.6475830078125;-156.1481475830078;26.878799438476562;-4.5238189697265625;-3.4725341796875;-7.929656982421875
1445425544557;48.57550048828125;-156.0681915283203;26.857952117919922;-4.44537353515625;-3.6294403076171875;-7.9100494384765625
1445425544591;48.5421142578125;-156.04344177246094;26.85755729675293;-4.425750732421875;-3.5313720703125;-7.870819091796875
1445425544623;48.456207275390625;-155.96315002441406;26.84749984741211;-4.3473052978515625;-3.5706024169921875;-7.8904266357421875
1445425544655;48.47125244140625;-155.86936950683594;26.835878372192383;-4.3276824951171875;-3.668670654296875;-7.988494873046875
1445425544690;48.4815673828125;-155.83982849121094;26.83316421508789;-4.308074951171875;-3.668670654296875;-7.94927978515625
1445425544721;48.53363037109375;-155.8551025390625;26.82145118713379;-4.308074951171875;-3.6098175048828125;-7.929656982421875
1445425544755;48.56256103515625;-155.8786163330078;26.81262969970703;-4.366912841796875;-3.5509796142578125;-7.9688873291015625
1445425544789;48.567901611328125;-155.95106506347656;26.812179565429688;-4.4649810791015625;-3.4725341796875;-8.00811767578125
1445425544821;48.57373046875;-156.04388427734375;26.78266143798828;-4.484588623046875;-3.5313720703125;-7.988494873046875
1445425544855;48.623199462890625;-156.14109802246094;26.716236114501953;-4.4649810791015625;-3.3744659423828125;-7.94927978515625
1445425544888;48.677947998046875;-156.17010498046875;26.67923355102539;-4.3865203857421875;-3.394073486328125;-7.9688873291015625
1445425544920;48.73138427734375;-156.14540100097656;26.665361404418945;-4.425750732421875;-3.452911376953125;-7.988494873046875
1445425544953;48.77734375;-156.11598205566406;26.658029556274414;-4.3865203857421875;-3.5313720703125;-8.06695556640625
1445425544986;48.775787353515625;-156.01422119140625;26.70192527770996;-4.366912841796875;-3.5902099609375;-7.9688873291015625
1445425545019;48.764923095703125;-155.9004364013672;26.772096633911133;-4.366912841796875;-3.6098175048828125;-7.988494873046875
1445425545052;48.72015380859375;-155.8152618408203;26.830116271972656;-4.425750732421875;-3.727508544921875;-7.9100494384765625
1445425545087;48.6126708984375;-155.6660919189453;26.93899154663086;-4.3865203857421875;-3.7667236328125;-7.94927978515625
1445425545118;48.5330810546875;-155.6199188232422;26.977195739746094;-4.3865203857421875;-3.8059539794921875;-7.9100494384765625
1445425545153;48.48663330078125;-155.6515350341797;26.988134384155273;-4.44537353515625;-3.6098175048828125;-7.870819091796875
1445425545186;48.497802734375;-155.83299255371094;26.95402717590332;-4.44537353515625;-3.5117645263671875;-7.929656982421875
1445425545217;48.557403564453125;-156.0502166748047;26.882997512817383;-4.425750732421875;-3.3548583984375;-7.94927978515625
1445425545250;48.57684326171875;-156.14234924316406;26.856529235839844;-4.4649810791015625;-3.3156280517578125;-7.9688873291015625
1445425545287;48.62646484375;-156.25997924804688;26.808547973632812;-4.44537353515625;-3.3156280517578125;-7.988494873046875
1445425545316;48.639434814453125;-156.26461791992188;26.797941207885742;-4.366912841796875;-3.4725341796875;-7.9688873291015625
1445425545348;48.669219970703125;-156.17942810058594;26.823585510253906;-4.3473052978515625;-3.5313720703125;-8.00811767578125
1445425545386;48.6849365234375;-156.0157470703125;26.849021911621094;-4.3276824951171875;-3.668670654296875;-7.94927978515625
1445425545416;48.712158203125;-155.93798828125;26.855451583862305;-4.366912841796875;-3.727508544921875;-7.9688873291015625
1445425545448;48.772125244140625;-155.83238220214844;26.888715744018555;-4.4061431884765625;-3.6490478515625;-7.988494873046875
1445425545482;48.809112548828125;-155.7919464111328;26.96040153503418;-4.484588623046875;-3.4921417236328125;-7.8315887451171875
1445425545516;48.841522216796875;-155.77688598632812;26.982675552368164;-4.44537353515625;-3.4921417236328125;-7.9100494384765625
1445425545547;48.794189453125;-155.722412109375;27.020463943481445;-4.484588623046875;-3.5117645263671875;-7.8904266357421875
1445425545581;48.561981201171875;-155.61973571777344;27.079238891601562;-4.484588623046875;-3.6098175048828125;-7.929656982421875
1445425545614;48.415496826171875;-155.57046508789062;27.12738800048828;-4.4649810791015625;-3.5902099609375;-7.929656982421875
1445425545645;48.188568115234375;-155.4936981201172;27.200271606445312;-4.484588623046875;-3.6294403076171875;-7.8315887451171875
1445425545680;48.104339599609375;-155.4370574951172;27.209793090820312;-4.4649810791015625;-3.7471160888671875;-7.9688873291015625
1445425545712;47.997528076171875;-155.32785034179688;27.225757598876953;-4.5238189697265625;-3.7667236328125;-8.00811767578125
1445425545745;48.055908203125;-155.29966735839844;27.200353622436523;-4.44537353515625;-3.6490478515625;-7.9688873291015625
1445425545780;48.119964599609375;-155.2971954345703;27.18098258972168;-4.4061431884765625;-3.5313720703125;-7.8904266357421875
1445425545811;48.2537841796875;-155.2646026611328;27.12580680847168;-4.4061431884765625;-3.5509796142578125;-7.929656982421875
1445425545844;48.392578125;-155.21188354492188;27.104970932006836;-4.3473052978515625;-3.6294403076171875;-7.8512115478515625
1445425545881;48.432342529296875;-155.18426513671875;27.104551315307617;-4.3473052978515625;-3.6882781982421875;-7.8904266357421875
1445425545910;48.465667724609375;-155.1797332763672;27.169525146484375;-4.3276824951171875;-3.668670654296875;-7.8315887451171875
1445425545943;48.501312255859375;-155.16537475585938;27.273584365844727;-4.308074951171875;-3.6098175048828125;-7.7923736572265625
1445425545975;48.492401123046875;-155.17196655273438;27.341646194458008;-4.3865203857421875;-3.6294403076171875;-7.811981201171875
1445425546009;48.3868408203125;-155.156982421875;27.523162841796875;-4.50421142578125;-3.7471160888671875;-7.8904266357421875
1445425546042;48.254638671875;-155.20314025878906;27.700233459472656;-4.5826568603515625;-3.727508544921875;-7.870819091796875
1445425546076;48.207061767578125;-155.23410034179688;27.782657623291016;-4.62188720703125;-3.6294403076171875;-7.870819091796875
1445425546107;48.113800048828125;-155.2793426513672;27.876361846923828;-4.6414947509765625;-3.5706024169921875;-7.8315887451171875
1445425546153;47.89068603515625;-155.35426330566406;27.911685943603516;-4.818023681640625;-3.5902099609375;-7.7727508544921875
1445425546174;47.80963134765625;-155.43121337890625;27.878536224365234;-4.7787933349609375;-3.6098175048828125;-7.753143310546875
1445425546208;47.61431884765625;-155.6261749267578;27.79497528076172;-4.5826568603515625;-3.5902099609375;-7.8315887451171875
1445425546240;47.546173095703125;-155.74510192871094;27.775699615478516;-4.50421142578125;-3.5313720703125;-8.047332763671875
1445425546273;47.30780029296875;-155.88064575195312;27.773273468017578;-4.56304931640625;-3.5313720703125;-8.027725219726562
1445425546305;47.0125732421875;-155.8762969970703;27.733413696289062;-4.5238189697265625;-3.6294403076171875;-7.94927978515625
1445425546340;46.81488037109375;-155.85330200195312;27.702957153320312;-4.484588623046875;-3.6882781982421875;-7.870819091796875
1445425546372;46.49603271484375;-155.984619140625;27.648250579833984;-4.44537353515625;-3.6098175048828125;-7.94927978515625
1445425546405;46.133087158203125;-156.1665802001953;27.760292053222656;-4.5434417724609375;-3.3548583984375;-8.145401000976562
1445425546438;46.035125732421875;-156.15928649902344;27.837350845336914;-4.484588623046875;-3.3548583984375;-7.8512115478515625
1445425546471;45.749298095703125;-156.1034698486328;28.1350154876709;-4.1707763671875;-3.6490478515625;-7.7923736572265625
1445425546504;45.2938232421875;-156.0404052734375;28.595531463623047;-4.5434417724609375;-3.4725341796875;-7.7923736572265625
1445425546537;45.082977294921875;-155.96510314941406;28.782808303833008;-4.7199554443359375;-3.5313720703125;-7.7727508544921875
1445425546570;44.955474853515625;-156.12396240234375;28.82076644897461;-4.876861572265625;-3.5706024169921875;-7.7923736572265625
1445425546602;44.88970947265625;-156.29722595214844;28.843576431274414;-4.50421142578125;-3.5706024169921875;-7.870819091796875
1445425546636;44.75238037109375;-156.41336059570312;29.075056076049805;-4.62188720703125;-3.5313720703125;-7.9100494384765625
1445425546668;44.60723876953125;-156.53720092773438;29.310495376586914;-4.73956298828125;-3.394073486328125;-7.8904266357421875
1445425546702;44.572509765625;-156.5845947265625;29.367401123046875;-4.8964691162109375;-3.4725341796875;-7.8315887451171875
1445425546734;44.64971923828125;-156.79908752441406;29.37688446044922;-4.700347900390625;-3.3548583984375;-7.7335205078125
1445425546768;44.62103271484375;-156.80966186523438;29.632091522216797;-4.56304931640625;-3.394073486328125;-7.7335205078125
1445425546802;44.815765380859375;-156.77822875976562;29.78754425048828;-4.818023681640625;-3.3744659423828125;-7.694305419921875
1445425546834;45.195709228515625;-156.812744140625;30.040756225585938;-4.56304931640625;-3.19793701171875;-7.7727508544921875
1445425546867;45.384552001953125;-156.76666259765625;30.105186462402344;-4.79840087890625;-3.217559814453125;-7.7923736572265625
1445425546900;45.734161376953125;-156.69198608398438;30.24575424194336;-4.876861572265625;-3.2960052490234375;-7.870819091796875
1445425546933;45.8204345703125;-156.62986755371094;30.323015213012695;-5.1514434814453125;-3.5313720703125;-7.694305419921875
1445425546965;45.764801025390625;-156.66348266601562;30.334217071533203;-5.327972412109375;-3.5117645263671875;-7.6158447265625
1445425547000;45.65087890625;-156.8143768310547;30.37041664123535;-5.2887420654296875;-3.452911376953125;-7.635467529296875
1445425547032;45.554901123046875;-156.92807006835938;30.41352653503418;-5.1710662841796875;-3.19793701171875;-7.6158447265625
1445425547067;45.399658203125;-157.14891052246094;30.56824493408203;-5.1318359375;-3.13909912109375;-7.635467529296875
1445425547098;45.33026123046875;-157.29063415527344;30.652618408203125;-4.9749298095703125;-3.1194915771484375;-7.811981201171875
1445425547131;45.255828857421875;-157.37820434570312;30.68718910217285;-4.876861572265625;-3.217559814453125;-7.870819091796875
1445425547166;45.24530029296875;-157.4121856689453;30.713409423828125;-4.935699462890625;-3.2371673583984375;-7.811981201171875
1445425547197;45.36004638671875;-157.52157592773438;30.745912551879883;-4.8572540283203125;-3.0606536865234375;-7.8315887451171875
1445425547230;45.462432861328125;-157.58444213867188;30.765365600585938;-4.8376312255859375;-3.02142333984375;-7.929656982421875
1445425547263;45.6539306640625;-157.56092834472656;30.831005096435547;-4.9160919189453125;-3.099884033203125;-7.870819091796875
1445425547296;45.7191162109375;-157.36521911621094;30.892690658569336;-4.8964691162109375;-3.5117645263671875;-7.694305419921875
1445425547330;45.760284423828125;-157.31536865234375;30.95528221130371;-4.8964691162109375;-3.4136962890625;-7.7139129638671875
1445425547362;45.741424560546875;-157.2030792236328;31.144474029541016;-4.994537353515625;-3.3548583984375;-7.5570068359375
1445425547394;45.706695556640625;-157.20187377929688;31.30304718017578;-5.2691192626953125;-3.2567901611328125;-7.694305419921875
1445425547430;45.738494873046875;-157.26954650878906;31.32301902770996;-5.1318359375;-3.13909912109375;-7.811981201171875
1445425547461;45.7667236328125;-157.32244873046875;31.447437286376953;-5.0926055908203125;-3.158721923828125;-7.6550750732421875
1445425547494;45.7203369140625;-157.29409790039062;31.473424911499023;-5.0926055908203125;-3.3156280517578125;-7.5177764892578125
1445425547531;45.713287353515625;-157.30738830566406;31.44895362854004;-5.1318359375;-3.2567901611328125;-7.7139129638671875
1445425547560;45.7750244140625;-157.46849060058594;31.342737197875977;-5.2691192626953125;-3.13909912109375;-7.8512115478515625
1445425547593;45.88037109375;-157.61740112304688;30.98352813720703;-5.327972412109375;-3.08026123046875;-7.7335205078125
1445425547626;45.986907958984375;-157.71258544921875;30.707014083862305;-5.190673828125;-3.08026123046875;-7.753143310546875
1445425547658;46.27435302734375;-157.93505859375;30.090843200683594;-4.935699462890625;-3.02142333984375;-7.8512115478515625
1445425547692;46.418121337890625;-158.02053833007812;29.80399513244629;-4.7787933349609375;-3.08026123046875;-7.8904266357421875
1445425547725;46.565460205078125;-158.08648681640625;29.372804641723633;-4.79840087890625;-3.1194915771484375;-7.7923736572265625
1445425547757;46.6585693359375;-158.038330078125;29.014392852783203;-4.73956298828125;-3.2960052490234375;-7.9100494384765625
1445425547791;46.722412109375;-157.99624633789062;28.892322540283203;-4.6022796630859375;-3.276397705078125;-7.8904266357421875
1445425547823;46.949462890625;-157.909423828125;28.699377059936523;-4.5238189697265625;-3.2371673583984375;-7.929656982421875
1445425547856;47.249664306640625;-157.8089599609375;28.656110763549805;-4.5238189697265625;-3.13909912109375;-7.9688873291015625
1445425547893;47.372650146484375;-157.7393798828125;28.698482513427734;-4.62188720703125;-3.1783294677734375;-7.9100494384765625
1445425547923;47.661895751953125;-157.57176208496094;28.800949096679688;-4.5826568603515625;-3.19793701171875;-7.94927978515625
1445425547956;47.839111328125;-157.43739318847656;28.850915908813477;-4.50421142578125;-3.394073486328125;-7.94927978515625
1445425547991;48.13275146484375;-157.21356201171875;29.034387588500977;-4.4061431884765625;-3.4921417236328125;-7.8512115478515625
1445425548022;48.196990966796875;-157.05308532714844;29.1873779296875;-4.68072509765625;-3.5117645263671875;-7.7335205078125
1445425548055;47.989532470703125;-157.00733947753906;29.407867431640625;-5.01416015625;-3.4725341796875;-7.7139129638671875
1445425548088;47.983062744140625;-157.01258850097656;29.503307342529297;-4.9749298095703125;-3.4725341796875;-7.753143310546875
1445425548121;48.019805908203125;-157.03936767578125;29.761110305786133;-4.9553070068359375;-3.276397705078125;-7.8904266357421875
1445425548154;47.982574462890625;-157.04727172851562;29.893203735351562;-5.2299041748046875;-3.1783294677734375;-7.753143310546875
1445425548187;47.73223876953125;-157.09442138671875;29.846302032470703;-5.3671875;-3.1783294677734375;-7.7139129638671875
1445425548220;47.550506591796875;-157.15538024902344;29.4061336517334;-5.0926055908203125;-3.276397705078125;-7.7139129638671875
1445425548252;47.4891357421875;-157.20123291015625;29.156774520874023;-5.072998046875;-3.335235595703125;-7.8512115478515625
1445425548285;47.4468994140625;-157.29736328125;28.6367244720459;-4.9160919189453125;-3.335235595703125;-7.8904266357421875
1445425548319;47.43597412109375;-157.4293212890625;28.059276580810547;-4.7199554443359375;-3.2960052490234375;-7.8315887451171875
1445425548351;47.435699462890625;-157.4986572265625;27.743398666381836;-4.700347900390625;-3.19793701171875;-7.94927978515625
1445425548385;47.568572998046875;-157.59085083007812;26.96641731262207;-4.4649810791015625;-3.276397705078125;-8.047332763671875
1445425548418;47.754638671875;-157.7423553466797;26.182010650634766;-3.9746551513671875;-3.2960052490234375;-8.145401000976562
1445425548450;47.805572509765625;-157.8173828125;25.90347671508789;-3.8765869140625;-3.2567901611328125;-8.24346923828125
1445425548484;47.824127197265625;-157.8582000732422;25.630399703979492;-3.9746551513671875;-3.2371673583984375;-8.12579345703125
1445425548517;47.7979736328125;-157.8133544921875;25.587383270263672;-4.0923309326171875;-3.3548583984375;-8.165023803710938
1445425548554;47.690155029296875;-157.6710205078125;25.50298309326172;-4.131561279296875;-3.3744659423828125;-8.145401000976562
1445425548584;47.66754150390625;-157.57582092285156;25.391056060791016;-4.0923309326171875;-3.4333038330078125;-8.106185913085938
1445425548616;47.7059326171875;-157.54783630371094;25.345294952392578;-4.0531005859375;-3.4136962890625;-8.18463134765625
1445425548653;47.87420654296875;-157.44944763183594;25.257991790771484;-3.9942626953125;-3.4136962890625;-8.18463134765625
1445425548682;48.05694580078125;-157.3297882080078;25.22258186340332;-3.9354248046875;-3.4333038330078125;-8.165023803710938
1445425548717;48.122772216796875;-157.28404235839844;25.21491050720215;-4.1511688232421875;-3.4725341796875;-8.18463134765625
1445425548753;48.08184814453125;-157.2043914794922;25.23096466064453;-4.2688446044921875;-3.5117645263671875;-8.12579345703125
1445425548781;47.985137939453125;-157.14743041992188;25.259197235107422;-4.308074951171875;-3.452911376953125;-8.047332763671875
1445425548814;47.890716552734375;-157.1173553466797;25.270490646362305;-4.3473052978515625;-3.4333038330078125;-8.06695556640625
1445425548847;47.666595458984375;-157.07376098632812;25.315879821777344;-4.4061431884765625;-3.4921417236328125;-8.06695556640625
1445425548880;47.567901611328125;-157.0552978515625;25.34328842163086;-4.308074951171875;-3.4921417236328125;-8.106185913085938
1445425548913;47.481201171875;-157.017333984375;25.341764450073242;-4.190399169921875;-3.4921417236328125;-8.12579345703125
1445425548945;47.523223876953125;-156.98898315429688;25.28139305114746;-4.0138702392578125;-3.4921417236328125;-8.24346923828125
1445425548981;47.542816162109375;-156.9753875732422;25.259185791015625;-4.0334930419921875;-3.4725341796875;-8.24346923828125
1445425549013;47.64251708984375;-156.9571990966797;25.225589752197266;-3.9942626953125;-3.452911376953125;-8.204238891601562
1445425549045;47.709686279296875;-156.93670654296875;25.168434143066406;-4.0334930419921875;-3.4136962890625;-8.204238891601562
1445425549081;47.701904296875;-156.92247009277344;25.154502868652344;-4.1511688232421875;-3.4725341796875;-8.106185913085938
1445425549111;47.682647705078125;-156.91226196289062;25.176387786865234;-4.2296142578125;-3.394073486328125;-8.106185913085938
1445425549144;47.589385986328125;-156.92408752441406;25.23578643798828;-4.3276824951171875;-3.4136962890625;-8.086563110351562
1445425549176;47.541290283203125;-156.92120361328125;25.263216018676758;-4.366912841796875;-3.4333038330078125;-8.086563110351562
1445425549210;47.4752197265625;-156.87301635742188;25.33782196044922;-4.249237060546875;-3.4725341796875;-8.106185913085938
1445425549242;47.4322509765625;-156.8407440185547;25.381322860717773;-4.249237060546875;-3.4921417236328125;-8.047332763671875
1445425549275;47.4515380859375;-156.8089599609375;25.40901756286621;-4.1707763671875;-3.4333038330078125;-8.12579345703125
1445425549310;47.46026611328125;-156.7534942626953;25.419858932495117;-4.131561279296875;-3.4725341796875;-8.06695556640625
1445425549342;47.444549560546875;-156.73660278320312;25.435951232910156;-4.1707763671875;-3.4725341796875;-8.00811767578125
1445425549375;47.43829345703125;-156.7274169921875;25.423748016357422;-4.131561279296875;-3.5117645263671875;-8.06695556640625
1445425549408;47.456756591796875;-156.7348175048828;25.397167205810547;-4.1511688232421875;-3.452911376953125;-8.18463134765625
1445425549441;47.4368896484375;-156.7333221435547;25.391855239868164;-4.131561279296875;-3.4921417236328125;-8.086563110351562
1445425549474;47.361114501953125;-156.74429321289062;25.404905319213867;-4.2100067138671875;-3.4921417236328125;-8.145401000976562
1445425549507;47.265289306640625;-156.75393676757812;25.432273864746094;-4.2296142578125;-3.4136962890625;-8.00811767578125
1445425549539;47.204803466796875;-156.7483673095703;25.45193099975586;-4.2100067138671875;-3.4725341796875;-8.06695556640625
1445425549573;47.10052490234375;-156.73643493652344;25.479581832885742;-4.1511688232421875;-3.4725341796875;-8.027725219726562
1445425549606;47.0428466796875;-156.72430419921875;25.496137619018555;-4.1511688232421875;-3.5313720703125;-8.106185913085938
1445425549639;46.96734619140625;-156.69322204589844;25.508216857910156;-4.1119384765625;-3.5313720703125;-8.145401000976562
1445425549672;46.9151611328125;-156.66220092773438;25.517608642578125;-4.1707763671875;-3.4725341796875;-8.047332763671875
1445425549706;46.914520263671875;-156.65444946289062;25.49887466430664;-4.2296142578125;-3.5313720703125;-8.106185913085938
1445425549738;46.985626220703125;-156.6894989013672;25.434417724609375;-4.2296142578125;-3.4725341796875;-8.06695556640625
1445425549771;47.0587158203125;-156.708251953125;25.39334487915039;-4.1511688232421875;-3.452911376953125;-8.06695556640625
1445425549804;47.078277587890625;-156.69338989257812;25.39385223388672;-4.1119384765625;-3.4725341796875;-8.027725219726562
1445425549837;47.074676513671875;-156.65577697753906;25.455476760864258;-4.131561279296875;-3.5117645263671875;-8.027725219726562
1445425549870;47.034423828125;-156.63482666015625;25.54863929748535;-4.2100067138671875;-3.4921417236328125;-8.00811767578125
1445425549903;47.020721435546875;-156.62173461914062;25.574432373046875;-4.2296142578125;-3.4921417236328125;-8.06695556640625
1445425549936;46.971466064453125;-156.6218719482422;25.62693214416504;-4.2296142578125;-3.452911376953125;-8.00811767578125
1445425549971;46.97149658203125;-156.6288299560547;25.636445999145508;-4.2100067138671875;-3.4725341796875;-8.06695556640625
1445425550003;46.998565673828125;-156.6404266357422;25.663618087768555;-4.190399169921875;-3.4725341796875;-8.06695556640625
1445425550034;46.890228271484375;-156.66009521484375;25.72676658630371;-4.2688446044921875;-3.4333038330078125;-8.06695556640625
1445425550068;46.831390380859375;-156.6592559814453;25.75048828125;-4.1119384765625;-3.5117645263671875;-8.047332763671875
1445425550101;46.75762939453125;-156.69009399414062;25.806428909301758;-4.1511688232421875;-3.5117645263671875;-8.106185913085938
1445425550134;46.696533203125;-156.7016143798828;25.842632293701172;-4.1707763671875;-3.4333038330078125;-8.106185913085938
1445425550168;46.65093994140625;-156.70582580566406;25.864593505859375;-4.190399169921875;-3.452911376953125;-8.06695556640625
1445425550201;46.637054443359375;-156.7140655517578;25.877809524536133;-4.2100067138671875;-3.4725341796875;-8.145401000976562
1445425550236;46.59375;-156.7139434814453;25.905887603759766;-4.2688446044921875;-3.4725341796875;-8.06695556640625
1445425550267;46.594207763671875;-156.71807861328125;25.911413192749023;-4.2296142578125;-3.4725341796875;-8.086563110351562
1445425550300;46.584716796875;-156.72779846191406;25.93181037902832;-4.2688446044921875;-3.452911376953125;-8.06695556640625
1445425550333;46.543365478515625;-156.70565795898438;25.960908889770508;-4.2296142578125;-3.4921417236328125;-8.00811767578125
1445425550365;46.53790283203125;-156.6944122314453;25.962228775024414;-4.2688446044921875;-3.4921417236328125;-8.027725219726562
1445425550397;46.56231689453125;-156.6816864013672;25.956504821777344;-4.2100067138671875;-3.5313720703125;-8.047332763671875
1445425550433;46.57342529296875;-156.6813201904297;25.962068557739258;-4.308074951171875;-3.4921417236328125;-8.027725219726562
1445425550464;46.58843994140625;-156.68760681152344;25.963600158691406;-4.2884674072265625;-3.4921417236328125;-8.047332763671875
1445425550497;46.640045166015625;-156.69534301757812;25.941892623901367;-4.2884674072265625;-3.4725341796875;-8.00811767578125
1445425550533;46.707916259765625;-156.7065887451172;25.91668701171875;-4.249237060546875;-3.4725341796875;-8.00811767578125
1445425550563;46.763397216796875;-156.71542358398438;25.890779495239258;-4.2296142578125;-3.4333038330078125;-8.027725219726562
1445425550596;46.7822265625;-156.71047973632812;25.879112243652344;-4.2100067138671875;-3.4921417236328125;-8.00811767578125
1445425550628;46.793426513671875;-156.7156982421875;25.879846572875977;-4.2100067138671875;-3.4725341796875;-8.00811767578125
1445425550662;46.804718017578125;-156.73341369628906;25.89227867126465;-4.2296142578125;-3.4136962890625;-8.06695556640625
1445425550695;46.773834228515625;-156.72962951660156;25.919946670532227;-4.308074951171875;-3.452911376953125;-8.027725219726562
1445425550727;46.77618408203125;-156.7359619140625;25.93926429748535;-4.2688446044921875;-3.4333038330078125;-7.988494873046875
1445425550760;46.80810546875;-156.75244140625;25.95020294189453;-4.2688446044921875;-3.4136962890625;-8.00811767578125
1445425550794;46.82763671875;-156.74789428710938;25.946453094482422;-4.2296142578125;-3.5117645263671875;-8.047332763671875
1445425550827;46.86578369140625;-156.74945068359375;25.941795349121094;-4.249237060546875;-3.4921417236328125;-8.047332763671875
1445425550859;46.88201904296875;-156.75836181640625;25.935497283935547;-4.2100067138671875;-3.4725341796875;-8.086563110351562
1445425550892;46.875457763671875;-156.76153564453125;25.931013107299805;-4.249237060546875;-3.452911376953125;-8.00811767578125
1445425550926;46.91607666015625;-156.8009033203125;25.933185577392578;-4.249237060546875;-3.3744659423828125;-8.027725219726562
1445425550959;46.945770263671875;-156.82688903808594;25.923616409301758;-4.249237060546875;-3.394073486328125;-8.06695556640625
1445425550992;46.91595458984375;-156.8311767578125;25.93094825744629;-4.2688446044921875;-3.4333038330078125;-8.086563110351562
1445425551025;46.8927001953125;-156.824462890625;25.93886947631836;-4.3276824951171875;-3.4725341796875;-8.086563110351562
1445425551059;46.871368408203125;-156.81387329101562;25.94173812866211;-4.2884674072265625;-3.4333038330078125;-8.12579345703125
1445425551091;46.846282958984375;-156.8095703125;25.942676544189453;-4.2884674072265625;-3.4921417236328125;-8.047332763671875
1445425551124;46.826507568359375;-156.80911254882812;25.95447540283203;-4.3473052978515625;-3.452911376953125;-8.06695556640625
1445425551157;46.837432861328125;-156.80886840820312;25.950759887695312;-4.2688446044921875;-3.4333038330078125;-8.027725219726562
1445425551190;46.845916748046875;-156.81719970703125;25.94811248779297;-4.2688446044921875;-3.4333038330078125;-8.027725219726562
1445425551223;46.9033203125;-156.8446502685547;25.93461036682129;-4.2688446044921875;-3.394073486328125;-8.086563110351562
1445425551256;46.892578125;-156.84788513183594;25.9398193359375;-4.2884674072265625;-3.4333038330078125;-8.06695556640625
1445425551289;46.839691162109375;-156.83766174316406;25.952539443969727;-4.308074951171875;-3.452911376953125;-8.047332763671875
1445425551322;46.852020263671875;-156.83377075195312;25.938480377197266;-4.308074951171875;-3.4725341796875;-8.086563110351562
1445425551355;46.89208984375;-156.8258056640625;25.914138793945312;-4.249237060546875;-3.4921417236328125;-8.12579345703125
1445425551388;46.93328857421875;-156.80856323242188;25.87795066833496;-4.2100067138671875;-3.5117645263671875;-8.086563110351562
1445425551421;46.982513427734375;-156.8037872314453;25.85255241394043;-4.2296142578125;-3.4725341796875;-8.106185913085938
1445425551454;47.00341796875;-156.80335998535156;25.846595764160156;-4.2296142578125;-3.452911376953125;-8.106185913085938
1445425551487;47.00457763671875;-156.77883911132812;25.84390640258789;-4.1707763671875;-3.452911376953125;-7.9688873291015625
1445425551519;47.0120849609375;-156.76881408691406;25.83858871459961;-4.2100067138671875;-3.4921417236328125;-8.106185913085938
1445425551553;46.975616455078125;-156.73341369628906;25.84449577331543;-4.2688446044921875;-3.5313720703125;-8.06695556640625
1445425551585;47.030364990234375;-156.74154663085938;25.83482551574707;-4.1707763671875;-3.452911376953125;-8.06695556640625
1445425551619;47.059173583984375;-156.756103515625;25.840709686279297;-4.3276824951171875;-3.4333038330078125;-8.106185913085938
1445425551651;47.06463623046875;-156.76980590820312;25.854406356811523;-4.2884674072265625;-3.4333038330078125;-8.047332763671875
1445425551685;47.00433349609375;-156.76177978515625;25.885339736938477;-4.2884674072265625;-3.4333038330078125;-8.06695556640625
1445425551721;46.985321044921875;-156.760009765625;25.895204544067383;-4.3276824951171875;-3.4725341796875;-8.086563110351562
1445425551753;46.93011474609375;-156.7587890625;25.921911239624023;-4.3276824951171875;-3.4725341796875;-8.027725219726562
1445425551784;46.94012451171875;-156.76661682128906;25.906064987182617;-4.249237060546875;-3.4333038330078125;-8.047332763671875
1445425551818;46.95526123046875;-156.76321411132812;25.89202880859375;-4.2100067138671875;-3.452911376953125;-8.047332763671875
1445425551851;46.979400634765625;-156.77439880371094;25.884765625;-4.249237060546875;-3.4333038330078125;-8.086563110351562
1445425551885;46.97509765625;-156.77816772460938;25.886474609375;-4.2884674072265625;-3.452911376953125;-8.106185913085938
1445425551917;46.946136474609375;-156.77874755859375;25.90641975402832;-4.2884674072265625;-3.4333038330078125;-8.027725219726562
1445425551949;46.930572509765625;-156.78216552734375;25.923568725585938;-4.3473052978515625;-3.4136962890625;-8.027725219726562
1445425551983;46.915130615234375;-156.79603576660156;25.95246696472168;-4.308074951171875;-3.4136962890625;-8.00811767578125
1445425552015;46.92254638671875;-156.78848266601562;25.948034286499023;-4.2100067138671875;-3.4725341796875;-8.00811767578125
1445425552048;46.916107177734375;-156.7808837890625;25.954822540283203;-4.2688446044921875;-3.4921417236328125;-8.06695556640625
1445425552080;46.9276123046875;-156.7779541015625;25.945781707763672;-4.249237060546875;-3.452911376953125;-8.12579345703125
1445425552114;46.896942138671875;-156.7700958251953;25.950469970703125;-4.2884674072265625;-3.4725341796875;-8.106185913085938
1445425552146;46.870330810546875;-156.7610626220703;25.96016502380371;-4.2884674072265625;-3.4725341796875;-8.00811767578125
1445425552180;46.8306884765625;-156.74185180664062;25.969568252563477;-4.249237060546875;-3.4921417236328125;-8.06695556640625
1445425552213;46.746124267578125;-156.72886657714844;26.007465362548828;-4.308074951171875;-3.5117645263671875;-8.086563110351562
1445425552245;46.66510009765625;-156.69525146484375;26.039587020874023;-4.249237060546875;-3.5509796142578125;-8.12579345703125
1445425552280;46.62738037109375;-156.66966247558594;26.045001983642578;-4.308074951171875;-3.5313720703125;-8.12579345703125
1445425552311;46.60369873046875;-156.6385955810547;26.036453247070312;-4.2296142578125;-3.5313720703125;-8.106185913085938
1445425552345;46.63031005859375;-156.6343994140625;26.026954650878906;-4.249237060546875;-3.4921417236328125;-8.047332763671875
1445425552378;46.68408203125;-156.6490478515625;26.014558792114258;-4.2688446044921875;-3.4725341796875;-8.047332763671875
1445425552411;46.70379638671875;-156.69485473632812;26.00196075439453;-4.3473052978515625;-3.4333038330078125;-8.06695556640625
1445425552444;46.69561767578125;-156.7061004638672;26.007122039794922;-4.3473052978515625;-3.452911376953125;-8.00811767578125
1445425552477;46.685089111328125;-156.7431640625;26.043556213378906;-4.3865203857421875;-3.4333038330078125;-8.086563110351562
1445425552510;46.65399169921875;-156.74183654785156;26.086894989013672;-4.3865203857421875;-3.4725341796875;-8.086563110351562
1445425552542;46.6243896484375;-156.7377471923828;26.1053524017334;-4.308074951171875;-3.4921417236328125;-8.047332763671875
1445425552575;46.574981689453125;-156.76095581054688;26.133989334106445;-4.366912841796875;-3.4333038330078125;-8.086563110351562
1445425552609;46.606353759765625;-156.7988739013672;26.109697341918945;-4.2688446044921875;-3.4136962890625;-8.06695556640625
1445425552642;46.595672607421875;-156.80577087402344;26.10191535949707;-4.2100067138671875;-3.4333038330078125;-8.145401000976562
1445425552675;46.61712646484375;-156.8206329345703;26.072309494018555;-4.2688446044921875;-3.4921417236328125;-8.12579345703125
1445425552707;46.644744873046875;-156.835205078125;26.06114959716797;-4.2884674072265625;-3.4136962890625;-8.12579345703125
1445425552741;46.7081298828125;-156.845458984375;26.038969039916992;-4.2688446044921875;-3.4333038330078125;-8.086563110351562
1445425552774;46.796783447265625;-156.84835815429688;25.997760772705078;-4.190399169921875;-3.452911376953125;-8.106185913085938
1445425552807;46.811920166015625;-156.8424530029297;25.988746643066406;-4.308074951171875;-3.4333038330078125;-8.12579345703125
1445425552840;46.857269287109375;-156.8376922607422;25.972957611083984;-4.308074951171875;-3.3744659423828125;-8.06695556640625
1445425552873;46.8924560546875;-156.81570434570312;25.945938110351562;-4.308074951171875;-3.4333038330078125;-8.027725219726562
1445425552909;46.8980712890625;-156.79563903808594;25.93288230895996;-4.2688446044921875;-3.5117645263671875;-8.00811767578125
1445425552939;46.9454345703125;-156.76248168945312;25.90414047241211;-4.2296142578125;-3.4725341796875;-7.988494873046875
1445425552972;46.940887451171875;-156.7129669189453;25.884428024291992;-4.1707763671875;-3.5313720703125;-8.027725219726562
1445425553005;46.921142578125;-156.6890869140625;25.880168914794922;-4.2100067138671875;-3.5117645263671875;-8.047332763671875
1445425553038;46.966094970703125;-156.6822052001953;25.86703109741211;-4.190399169921875;-3.452911376953125;-8.047332763671875
1445425553071;46.998046875;-156.6836395263672;25.8520565032959;-4.2296142578125;-3.4333038330078125;-8.047332763671875
1445425553104;46.991668701171875;-156.68704223632812;25.85945701599121;-4.249237060546875;-3.4921417236328125;-8.06695556640625
1445425553137;47.005157470703125;-156.70509338378906;25.871749877929688;-4.3276824951171875;-3.4136962890625;-8.027725219726562
1445425553170;47.005889892578125;-156.70443725585938;25.870458602905273;-4.249237060546875;-3.4725341796875;-8.027725219726562
1445425553203;46.937408447265625;-156.69662475585938;25.895885467529297;-4.308074951171875;-3.4725341796875;-8.027725219726562
1445425553236;46.931640625;-156.6962890625;25.892192840576172;-4.249237060546875;-3.452911376953125;-8.06695556640625
1445425553269;46.92681884765625;-156.6868133544922;25.883848190307617;-4.2296142578125;-3.4921417236328125;-8.027725219726562
1445425553302;46.892913818359375;-156.67002868652344;25.877277374267578;-4.249237060546875;-3.5117645263671875;-8.047332763671875
1445425553336;46.89459228515625;-156.677490234375;25.8727970123291;-4.2296142578125;-3.452911376953125;-8.047332763671875
1445425553368;46.898651123046875;-156.6778564453125;25.87588119506836;-4.249237060546875;-3.452911376953125;-8.06695556640625
1445425553401;46.870758056640625;-156.6819610595703;25.909814834594727;-4.2884674072265625;-3.4725341796875;-8.027725219726562
1445425553434;46.807830810546875;-156.68775939941406;25.95760154724121;-4.3276824951171875;-3.4725341796875;-8.027725219726562
1445425553467;46.821044921875;-156.6992645263672;25.967164993286133;-4.308074951171875;-3.4136962890625;-8.027725219726562
1445425553501;46.8658447265625;-156.7332000732422;25.983644485473633;-4.249237060546875;-3.394073486328125;-8.027725219726562
1445425553534;46.87091064453125;-156.7376708984375;25.989295959472656;-4.308074951171875;-3.394073486328125;-8.086563110351562
1445425553567;46.82147216796875;-156.7135772705078;25.998966217041016;-4.2884674072265625;-3.4333038330078125;-8.06695556640625
1445425553599;46.77874755859375;-156.68504333496094;26.008913040161133;-4.2884674072265625;-3.4921417236328125;-8.047332763671875
1445425553632;46.765289306640625;-156.68533325195312;26.017221450805664;-4.3276824951171875;-3.394073486328125;-8.027725219726562
1445425553664;46.68536376953125;-156.67369079589844;26.0416316986084;-4.308074951171875;-3.4333038330078125;-8.047332763671875
1445425553697;46.60528564453125;-156.6475830078125;26.0576229095459;-4.308074951171875;-3.5117645263671875;-8.06695556640625
1445425553731;46.55621337890625;-156.62704467773438;26.06580352783203;-4.2688446044921875;-3.4921417236328125;-8.106185913085938
1445425553764;46.610565185546875;-156.63641357421875;26.03291130065918;-4.249237060546875;-3.5313720703125;-8.047332763671875
1445425553796;46.711395263671875;-156.67684936523438;25.96432876586914;-4.2100067138671875;-3.4725341796875;-8.086563110351562
1445425553830;46.755950927734375;-156.7059783935547;25.92621421813965;-4.2100067138671875;-3.452911376953125;-8.106185913085938
1445425553863;46.82403564453125;-156.74603271484375;25.87598991394043;-4.2296142578125;-3.4333038330078125;-8.12579345703125
1445425553895;46.8392333984375;-156.75328063964844;25.864601135253906;-4.2688446044921875;-3.4333038330078125;-8.06695556640625
1445425553929;46.875640869140625;-156.77597045898438;25.860055923461914;-4.2688446044921875;-3.4136962890625;-8.086563110351562
1445425553962;46.809844970703125;-156.7608184814453;25.887798309326172;-4.3276824951171875;-3.4725341796875;-8.165023803710938
1445425553995;46.778472900390625;-156.73403930664062;25.90020179748535;-4.2884674072265625;-3.5117645263671875;-8.047332763671875
1445425554027;46.687835693359375;-156.671875;25.941577911376953;-4.2884674072265625;-3.5509796142578125;-8.047332763671875
1445425554061;46.680511474609375;-156.6471710205078;25.93416404724121;-4.249237060546875;-3.4725341796875;-8.06695556640625
1445425554094;46.693603515625;-156.65504455566406;25.906038284301758;-4.249237060546875;-3.4921417236328125;-8.027725219726562
1445425554126;46.699310302734375;-156.69281005859375;25.84527587890625;-4.2884674072265625;-3.4921417236328125;-8.06695556640625
1445425554160;46.705963134765625;-156.7146759033203;25.830881118774414;-4.2688446044921875;-3.452911376953125;-8.047332763671875
1445425554193;46.707550048828125;-156.7337188720703;25.82134246826172;-4.2688446044921875;-3.4333038330078125;-8.027725219726562
1445425554226;46.71734619140625;-156.72360229492188;25.779672622680664;-4.2296142578125;-3.5117645263671875;-8.027725219726562
1445425554259;46.7484130859375;-156.7220916748047;25.753931045532227;-4.190399169921875;-3.452911376953125;-8.106185913085938
1445425554292;46.769775390625;-156.7102508544922;25.732810974121094;-4.249237060546875;-3.4136962890625;-8.06695556640625
1445425554326;46.77764892578125;-156.66424560546875;25.692018508911133;-4.131561279296875;-3.4725341796875;-8.06695556640625
1445425554358;46.7576904296875;-156.63345336914062;25.683664321899414;-4.249237060546875;-3.5313720703125;-8.047332763671875
1445425554391;46.70379638671875;-156.57066345214844;25.677143096923828;-4.249237060546875;-3.5313720703125;-8.027725219726562
1445425554423;46.61199951171875;-156.4899444580078;25.680402755737305;-4.2688446044921875;-3.5706024169921875;-7.988494873046875
1445425554457;46.588958740234375;-156.46868896484375;25.680742263793945;-4.2688446044921875;-3.5706024169921875;-8.00811767578125
1445425554489;46.649871826171875;-156.4861602783203;25.65582275390625;-4.249237060546875;-3.5509796142578125;-8.00811767578125
1445425554522;46.8258056640625;-156.5638885498047;25.615856170654297;-4.1707763671875;-3.4136962890625;-8.086563110351562
1445425554556;46.929595947265625;-156.61053466796875;25.59157943725586;-4.2100067138671875;-3.394073486328125;-8.06695556640625
1445425554589;47.107635498046875;-156.67677307128906;25.532228469848633;-4.1511688232421875;-3.394073486328125;-8.106185913085938
1445425554622;47.20721435546875;-156.7025604248047;25.506816864013672;-4.0727081298828125;-3.4136962890625;-8.06695556640625
1445425554655;47.2093505859375;-156.69155883789062;25.524673461914062;-4.0923309326171875;-3.4333038330078125;-8.106185913085938
1445425554688;47.152984619140625;-156.6581268310547;25.60617446899414;-4.1707763671875;-3.5117645263671875;-8.047332763671875
1445425554721;47.097503662109375;-156.6320343017578;25.653125762939453;-4.2296142578125;-3.5509796142578125;-8.027725219726562
1445425554753;46.992340087890625;-156.5576171875;25.745445251464844;-4.2100067138671875;-3.5902099609375;-8.047332763671875
1445425554787;46.86248779296875;-156.51260375976562;25.82173728942871;-4.366912841796875;-3.6098175048828125;-8.047332763671875
1445425554820;46.82183837890625;-156.5062713623047;25.837474822998047;-4.3276824951171875;-3.5509796142578125;-8.106185913085938
1445425554853;46.763031005859375;-156.49078369140625;25.848960876464844;-4.3276824951171875;-3.5313720703125;-8.106185913085938
1445425554886;46.7259521484375;-156.47386169433594;25.842388153076172;-4.249237060546875;-3.5706024169921875;-7.988494873046875
1445425554919;46.690948486328125;-156.4646759033203;25.825918197631836;-4.249237060546875;-3.5509796142578125;-8.027725219726562
1445425554952;46.712249755859375;-156.46234130859375;25.81961441040039;-4.2296142578125;-3.5313720703125;-8.06695556640625
1445425554985;46.70068359375;-156.43592834472656;25.828125;-4.249237060546875;-3.5117645263671875;-8.06695556640625
1445425555018;46.6607666015625;-156.41795349121094;25.834033966064453;-4.2296142578125;-3.5509796142578125;-8.106185913085938
1445425555051;46.65374755859375;-156.41958618164062;25.836318969726562;-4.249237060546875;-3.5313720703125;-8.06695556640625
1445425555084;46.64666748046875;-156.4224395751953;25.838258743286133;-4.190399169921875;-3.5117645263671875;-8.047332763671875
1445425555117;46.67559814453125;-156.44703674316406;25.83413314819336;-4.2100067138671875;-3.4725341796875;-8.106185913085938
1445425555150;46.61065673828125;-156.45632934570312;25.862520217895508;-4.249237060546875;-3.4333038330078125;-7.9688873291015625
1445425555183;46.626373291015625;-156.47161865234375;25.864456176757812;-4.249237060546875;-3.452911376953125;-8.06695556640625
1445425555216;46.58416748046875;-156.48068237304688;25.89736557006836;-4.2884674072265625;-3.4333038330078125;-8.00811767578125
1445425555249;46.5570068359375;-156.47183227539062;25.91530418395996;-4.308074951171875;-3.4921417236328125;-8.027725219726562
1445425555284;46.449737548828125;-156.4300079345703;25.954824447631836;-4.249237060546875;-3.4921417236328125;-8.086563110351562
1445425555315;46.425537109375;-156.383056640625;25.98543930053711;-4.249237060546875;-3.5117645263671875;-8.106185913085938
1445425555349;46.384063720703125;-156.32711791992188;26.039440155029297;-4.2884674072265625;-3.5706024169921875;-8.00811767578125
1445425555381;46.371856689453125;-156.31069946289062;26.049821853637695;-4.2884674072265625;-3.5706024169921875;-8.027725219726562
1445425555414;46.349517822265625;-156.29168701171875;26.047147750854492;-4.3276824951171875;-3.5509796142578125;-8.145401000976562
1445425555447;46.335418701171875;-156.27015686035156;26.035432815551758;-4.190399169921875;-3.5902099609375;-7.988494873046875
1445425555480;46.3231201171875;-156.26437377929688;26.030515670776367;-4.249237060546875;-3.5706024169921875;-8.00811767578125
1445425555513;46.26959228515625;-156.2534942626953;26.0432186126709;-4.2688446044921875;-3.5706024169921875;-8.086563110351562
1445425555546;46.23779296875;-156.25799560546875;26.062000274658203;-4.308074951171875;-3.5313720703125;-8.106185913085938
1445425555579;46.188690185546875;-156.27723693847656;26.108707427978516;-4.2884674072265625;-3.5509796142578125;-8.06695556640625
1445425555612;46.17230224609375;-156.28253173828125;26.126625061035156;-4.2688446044921875;-3.5509796142578125;-8.00811767578125
1445425555645;46.128326416015625;-156.27293395996094;26.170368194580078;-4.3276824951171875;-3.6294403076171875;-8.047332763671875
1445425555677;46.0787353515625;-156.29217529296875;26.24019432067871;-4.366912841796875;-3.5509796142578125;-8.00811767578125
1445425555710;46.01483154296875;-156.30226135253906;26.3885498046875;-4.3473052978515625;-3.452911376953125;-7.8904266357421875
1445425555744;46.056304931640625;-156.28013610839844;26.479562759399414;-4.3865203857421875;-3.4136962890625;-7.94927978515625
1445425555777;46.087646484375;-156.16294860839844;26.706079483032227;-4.484588623046875;-3.6098175048828125;-8.145401000976562
1445425555810;46.084625244140625;-156.12066650390625;26.811548233032227;-4.425750732421875;-3.6098175048828125;-8.00811767578125
1445425555843;46.21063232421875;-156.08106994628906;26.962162017822266;-4.2688446044921875;-3.5509796142578125;-7.929656982421875
1445425555875;46.50848388671875;-156.1129913330078;27.04816436767578;-4.3473052978515625;-3.4921417236328125;-8.165023803710938
1445425555908;46.49432373046875;-156.1666259765625;27.114728927612305;-4.425750732421875;-3.5706024169921875;-8.223861694335938
1445425555942;46.4757080078125;-156.447998046875;27.283498764038086;-4.7199554443359375;-3.6098175048828125;-8.18463134765625
1445425555975;46.309661865234375;-156.9160614013672;27.381017684936523;-4.73956298828125;-3.6294403076171875;-8.12579345703125
1445425556009;46.229278564453125;-157.28553771972656;27.307937622070312;-4.700347900390625;-3.2960052490234375;-7.7139129638671875
1445425556042;46.1658935546875;-157.83990478515625;27.259851455688477;-4.1119384765625;-2.9821929931640625;-7.3804931640625
1445425556074;46.1751708984375;-157.9336700439453;27.32209014892578;-4.2688446044921875;-2.8645172119140625;-7.419708251953125
1445425556107;46.226959228515625;-157.74246215820312;27.30982208251953;-4.2100067138671875;-2.8645172119140625;-7.2039642333984375
1445425556140;46.66552734375;-157.33871459960938;27.181365966796875;-4.3473052978515625;-3.2371673583984375;-7.988494873046875
1445425556173;46.85418701171875;-157.00518798828125;26.55585479736328;-4.4649810791015625;-3.2567901611328125;-8.223861694335938
1445425556206;47.14483642578125;-156.96420288085938;26.364534378051758;-4.2296142578125;-3.217559814453125;-8.06695556640625
1445425556239;47.6844482421875;-156.73043823242188;25.98456382751465;-3.7588958740234375;-3.217559814453125;-8.18463134765625
1445425556273;47.822113037109375;-156.56105041503906;25.78325843811035;-4.0923309326171875;-3.6098175048828125;-8.18463134765625
1445425556305;47.9932861328125;-156.1546173095703;25.671207427978516;-4.308074951171875;-3.8059539794921875;-8.400375366210938
1445425556339;48.1402587890625;-155.9854736328125;25.878995895385742;-4.6022796630859375;-4.0020904541015625;-8.282699584960938
1445425556370;48.170867919921875;-155.95584106445312;25.997406005859375;-4.4649810791015625;-3.904022216796875;-8.06695556640625
1445425556404;48.15216064453125;-155.83534240722656;26.142250061035156;-4.4061431884765625;-3.8844146728515625;-7.929656982421875
1445425556436;48.12457275390625;-155.79319763183594;26.182634353637695;-4.62188720703125;-3.8059539794921875;-8.00811767578125
1445425556470;48.04595947265625;-155.8072052001953;26.239818572998047;-4.6414947509765625;-3.727508544921875;-8.00811767578125
