sep=;
timestamp;gyro-alpha;gyro-beta;gyro-gamma;accel-x;accel-y;accel-z
1445426059093;203.76043701171875;-164.67970275878906;13.926543235778809;-2.2094573974609375;-2.0603790283203125;-8.831878662109375
1445426059129;204.39404296875;-165.00540161132812;13.77452278137207;-1.9936981201171875;-1.393524169921875;-9.420272827148438
1445426059158;204.49188232421875;-165.0724639892578;13.909765243530273;-1.8956451416015625;-1.4327545166015625;-9.14569091796875
1445426059190;204.5799560546875;-165.0917510986328;14.026455879211426;-2.3859710693359375;-1.570037841796875;-10.028289794921875
1445426059225;204.5328369140625;-165.23696899414062;14.075401306152344;-1.8760223388671875;-1.0797119140625;-9.616409301757812
1445426059260;204.241455078125;-165.758544921875;14.129766464233398;-1.287628173828125;-0.45208740234375;-8.890716552734375
1445426059291;204.1195068359375;-165.73878479003906;14.301980972290039;-1.111114501953125;-1.0993194580078125;-9.8909912109375
1445426059323;204.00274658203125;-165.3164520263672;14.75395393371582;-1.346466064453125;-1.70733642578125;-10.832427978515625
1445426059359;203.75634765625;-164.52867126464844;15.321699142456055;-1.8956451416015625;-2.1780548095703125;-10.734359741210938
1445426059389;203.51849365234375;-163.94223022460938;15.708958625793457;-2.2682952880859375;-2.9233551025390625;-10.322479248046875
1445426059422;203.23504638671875;-162.24269104003906;16.23316764831543;-2.40557861328125;-3.0410308837890625;-9.969436645507812
1445426059455;203.60888671875;-160.30580139160156;16.179868698120117;-3.052825927734375;-3.0606536865234375;-9.636016845703125
1445426059487;204.0936279296875;-159.34075927734375;15.831379890441895;-3.170501708984375;-2.7272186279296875;-9.20452880859375
1445426059520;204.89776611328125;-157.70587158203125;14.168830871582031;-2.6409454345703125;-3.7471160888671875;-7.360870361328125
1445426059554;205.6510009765625;-156.54046630859375;12.83683967590332;-1.5818328857421875;-3.02142333984375;-6.6548004150390625
1445426059587;205.87872314453125;-156.26278686523438;12.497330665588379;-1.522979736328125;-3.099884033203125;-5.2818603515625
1445426059620;205.6510009765625;-156.09873962402344;11.787317276000977;-0.91497802734375;-2.8645172119140625;-5.242645263671875
1445426059653;205.8924560546875;-156.6207733154297;11.12197494506836;-1.6602783203125;-3.452911376953125;-5.8114166259765625
1445426059685;206.2139892578125;-157.3537139892578;11.174030303955078;-2.1898345947265625;-3.9432525634765625;-6.98822021484375
1445426059719;207.4022216796875;-159.37571716308594;12.867416381835938;-1.8367919921875;-3.5706024169921875;-8.773025512695312
1445426059752;207.98992919921875;-160.3841552734375;13.759037971496582;-3.1508941650390625;-1.2562255859375;-11.970001220703125
1445426059786;207.519775390625;-161.92239379882812;14.718522071838379;-1.8171844482421875;-2.707611083984375;-12.4014892578125
1445426059817;206.786376953125;-163.1068878173828;15.67290210723877;-2.935150146484375;-2.00152587890625;-11.675796508789062
1445426059852;206.38165283203125;-163.37655639648438;15.766666412353516;-3.7196807861328125;-1.82501220703125;-9.694854736328125
1445426059883;205.647216796875;-163.4857635498047;15.667802810668945;-3.30780029296875;-1.7269439697265625;-9.282974243164062
1445426059917;204.86871337890625;-163.50253295898438;15.264632225036621;-2.17022705078125;-1.1385498046875;-8.400375366210938
1445426059949;204.620361328125;-163.5620574951172;15.167465209960938;-2.0133209228515625;-1.1385498046875;-8.36114501953125
1445426059983;204.43280029296875;-163.63363647460938;15.053004264831543;-1.5426025390625;-1.8642425537109375;-8.576904296875
1445426060016;204.28607177734375;-163.7215118408203;15.12412166595459;-1.287628173828125;-2.3349609375;-9.32220458984375
1445426060049;204.22125244140625;-163.77056884765625;15.259513854980469;-1.3268585205078125;-2.511474609375;-9.459503173828125
1445426060081;204.185302734375;-163.75595092773438;15.376016616821289;-1.3268585205078125;-2.9233551025390625;-9.20452880859375
1445426060115;204.164306640625;-163.8062286376953;15.378061294555664;-1.856414794921875;-2.90374755859375;-9.577178955078125
1445426060148;204.00341796875;-164.0867462158203;15.577595710754395;-2.1309967041015625;-2.84490966796875;-9.479110717773438
1445426060181;203.73193359375;-164.34271240234375;15.978351593017578;-2.2486724853515625;-2.079986572265625;-8.969161987304688
1445426060214;203.5399169921875;-164.51637268066406;16.17772674560547;-2.7978515625;-1.5308074951171875;-8.988784790039062
1445426060247;203.16656494140625;-164.8443603515625;16.58709716796875;-2.6997833251953125;-1.4131317138671875;-9.047622680664062
1445426060280;202.85565185546875;-165.11447143554688;17.14212417602539;-2.7782440185546875;-1.1581573486328125;-9.047622680664062
1445426060315;202.76776123046875;-165.24391174316406;17.39316749572754;-2.91552734375;-1.6092681884765625;-9.047622680664062
1445426060346;202.57568359375;-165.46304321289062;17.80477523803711;-2.8762969970703125;-1.8054046630859375;-9.224136352539062
1445426060378;202.394775390625;-165.58560180664062;18.015104293823242;-2.5624847412109375;-2.0407562255859375;-9.557571411132812
1445426060411;201.8450927734375;-165.8651580810547;18.513290405273438;-2.601715087890625;-2.1584320068359375;-9.616409301757812
1445426060445;201.2684326171875;-166.0916290283203;18.726179122924805;-2.8959197998046875;-1.7465667724609375;-9.224136352539062
1445426060477;200.76641845703125;-166.3114776611328;18.990524291992188;-2.739013671875;-1.903472900390625;-9.243743896484375
1445426060511;200.47930908203125;-166.42332458496094;19.08722686767578;-2.621337890625;-1.9819183349609375;-9.20452880859375
1445426060543;199.904296875;-166.5758056640625;19.3501033782959;-2.6997833251953125;-1.9819183349609375;-9.184906005859375
1445426060577;199.681640625;-166.6837158203125;19.393463134765625;-2.3859710693359375;-1.9230804443359375;-8.75341796875
1445426060609;199.559326171875;-166.98960876464844;19.270605087280273;-2.0721588134765625;-1.8642425537109375;-8.498443603515625
1445426060643;200.0758056640625;-166.88943481445312;19.404634475708008;-2.1309967041015625;-1.903472900390625;-8.18463134765625
1445426060675;200.5230712890625;-166.674072265625;19.37961196899414;-2.68017578125;-1.9819183349609375;-8.498443603515625
1445426060709;201.7435302734375;-166.09866333007812;19.757036209106445;-3.7000579833984375;-1.8446197509765625;-9.26336669921875
1445426060742;202.3240966796875;-165.5387725830078;20.16315269470215;-3.7588958740234375;-0.9816436767578125;-10.0086669921875
1445426060775;202.1878662109375;-165.3901824951172;20.283203125;-4.366912841796875;-1.1777801513671875;-10.165573120117188
1445426060810;201.43206787109375;-165.34674072265625;20.65483283996582;-1.738739013671875;-1.70733642578125;-7.753143310546875
1445426060841;201.6519775390625;-164.7980194091797;20.122844696044922;-1.6406707763671875;-2.6683807373046875;-8.439605712890625
1445426060877;202.3331298828125;-164.51571655273438;19.705524444580078;-3.9550323486328125;-1.76617431640625;-9.126068115234375
1445426060910;203.362060546875;-164.1934814453125;19.131868362426758;-4.1119384765625;-1.3150634765625;-8.988784790039062
1445426060940;203.5570068359375;-163.81785583496094;19.14997100830078;-3.739288330078125;-1.76617431640625;-9.49871826171875
1445426060974;203.46636962890625;-163.45693969726562;19.513708114624023;-3.4647064208984375;-1.3542938232421875;-9.008392333984375
1445426061008;202.804443359375;-163.1335906982422;20.113191604614258;-2.8959197998046875;-1.687713623046875;-9.20452880859375
1445426061039;202.4749755859375;-162.8706817626953;20.39096450805664;-3.4647064208984375;-2.2368927001953125;-9.20452880859375
1445426061072;201.84820556640625;-162.2985076904297;20.924880981445312;-3.42547607421875;-2.5703125;-9.126068115234375
1445426061105;201.05194091796875;-162.045654296875;21.346912384033203;-3.3274078369140625;-2.825286865234375;-9.086837768554688
1445426061137;200.61090087890625;-161.97117614746094;21.529985427856445;-2.974365234375;-3.02142333984375;-8.812255859375
1445426061171;199.92950439453125;-161.89056396484375;21.753463745117188;-2.484039306640625;-3.3744659423828125;-8.282699584960938
1445426061203;199.68212890625;-161.6420135498047;21.7882080078125;-2.8174591064453125;-3.4725341796875;-8.792648315429688
1445426061237;199.5970458984375;-161.531494140625;21.812849044799805;-2.856689453125;-3.3548583984375;-8.733810424804688
1445426061270;199.42047119140625;-161.41114807128906;21.851709365844727;-3.111663818359375;-3.1783294677734375;-8.655349731445312
1445426061303;199.34765625;-161.40777587890625;21.906850814819336;-3.30780029296875;-2.8645172119140625;-8.616119384765625
1445426061336;199.2484130859375;-161.5774688720703;21.924100875854492;-3.4647064208984375;-2.6683807373046875;-8.576904296875
1445426061369;199.035400390625;-161.9073028564453;21.913164138793945;-3.5823822021484375;-2.7272186279296875;-8.812255859375
1445426061402;198.89599609375;-162.0759735107422;21.951549530029297;-3.42547607421875;-2.511474609375;-8.831878662109375
1445426061434;198.6611328125;-162.4658660888672;22.07010269165039;-3.4450836181640625;-2.3349609375;-8.812255859375
1445426061468;198.50531005859375;-162.80599975585938;22.195274353027344;-3.4647064208984375;-2.276123046875;-8.537673950195312
1445426061501;198.4326171875;-162.9583282470703;22.18286895751953;-3.48431396484375;-2.1584320068359375;-8.576904296875
1445426061534;198.303466796875;-163.21868896484375;21.93769073486328;-3.5235443115234375;-2.197662353515625;-8.733810424804688
1445426061568;198.140625;-163.39561462402344;21.414827346801758;-3.42547607421875;-2.276123046875;-8.949554443359375
1445426061600;198.02099609375;-163.4890899658203;20.98249053955078;-3.1508941650390625;-2.2368927001953125;-8.851486206054688
1445426061633;197.79583740234375;-163.6303253173828;20.121910095214844;-2.993988037109375;-2.256500244140625;-8.694580078125
1445426061666;197.7391357421875;-163.5664825439453;19.234729766845703;-2.91552734375;-2.45263671875;-9.126068115234375
1445426061700;197.56048583984375;-163.58026123046875;18.83133888244629;-2.68017578125;-2.45263671875;-8.969161987304688
1445426061733;197.2410888671875;-163.7120819091797;18.59585189819336;-2.5232696533203125;-2.4918670654296875;-9.008392333984375
1445426061767;197.02752685546875;-163.7975311279297;18.611473083496094;-2.660552978515625;-2.3153533935546875;-9.067230224609375
1445426061798;196.9730224609375;-164.06048583984375;18.766340255737305;-2.856689453125;-2.2957305908203125;-8.851486206054688
1445426061831;197.33709716796875;-164.31890869140625;18.948305130004883;-3.1901092529296875;-2.256500244140625;-8.910324096679688
1445426061868;197.4306640625;-164.46241760253906;18.94572639465332;-3.42547607421875;-1.94268798828125;-9.047622680664062
1445426061899;197.78363037109375;-164.80262756347656;18.985315322875977;-3.4058685302734375;-1.7857818603515625;-8.988784790039062
1445426061930;197.88134765625;-165.0399932861328;18.930543899536133;-3.1312713623046875;-1.9230804443359375;-9.008392333984375
1445426061964;197.7794189453125;-165.091796875;18.899341583251953;-2.993988037109375;-1.9230804443359375;-9.008392333984375
1445426061999;197.52001953125;-165.0277862548828;18.883811950683594;-2.935150146484375;-2.276123046875;-8.929931640625
1445426062028;197.328857421875;-164.9504852294922;18.87452507019043;-2.6409454345703125;-2.472259521484375;-9.027999877929688
1445426062062;196.83770751953125;-164.7462158203125;18.779647827148438;-2.5821075439453125;-2.6683807373046875;-9.126068115234375
1445426062094;196.4677734375;-164.55038452148438;18.632356643676758;-2.601715087890625;-2.825286865234375;-8.890716552734375
1445426062128;196.25634765625;-164.5172882080078;18.580636978149414;-2.8370819091796875;-2.766448974609375;-9.008392333984375
1445426062162;196.02557373046875;-164.5610809326172;18.66706085205078;-3.24896240234375;-2.6683807373046875;-8.929931640625
1445426062193;195.8511962890625;-164.7779083251953;18.850906372070312;-3.30780029296875;-2.393798828125;-8.988784790039062
1445426062227;195.7042236328125;-164.95687866210938;18.891815185546875;-3.4058685302734375;-2.1192169189453125;-9.027999877929688
1445426062260;195.4217529296875;-165.34413146972656;19.001863479614258;-3.36663818359375;-2.1192169189453125;-8.792648315429688
1445426062293;195.25146484375;-165.59713745117188;18.99934196472168;-3.288177490234375;-2.21728515625;-8.75341796875
1445426062326;195.125;-165.70228576660156;18.993602752685547;-3.1312713623046875;-2.2368927001953125;-9.106460571289062
1445426062359;194.831787109375;-165.97116088867188;18.858421325683594;-2.8959197998046875;-1.88385009765625;-8.812255859375
1445426062392;194.70037841796875;-166.2642364501953;18.76690101623535;-3.170501708984375;-2.0407562255859375;-9.047622680664062
1445426062425;194.59075927734375;-166.35853576660156;18.736116409301758;-2.28790283203125;-1.7269439697265625;-7.94927978515625
1445426062458;195.44207763671875;-166.0650177001953;20.657371520996094;-4.0531005859375;-0.9228057861328125;-9.479110717773438
1445426062491;195.5543212890625;-165.62374877929688;21.310338973999023;-2.5232696533203125;-2.1780548095703125;-7.7139129638671875
1445426062524;195.456298828125;-165.62680053710938;21.102113723754883;-2.3859710693359375;-1.4131317138671875;-8.380767822265625
1445426062557;195.43756103515625;-165.6989288330078;20.02851676940918;-3.033203125;-1.9819183349609375;-8.75341796875
1445426062590;195.306396484375;-165.5569305419922;19.712848663330078;-2.542877197265625;-2.21728515625;-8.851486206054688
1445426062624;195.0596923828125;-165.335205078125;19.652124404907227;-2.34674072265625;-2.531097412109375;-8.380767822265625
1445426062659;195.167724609375;-164.9768524169922;19.686586380004883;-2.856689453125;-2.45263671875;-8.831878662109375
1445426062689;195.41522216796875;-164.6808319091797;19.706584930419922;-3.033203125;-2.6683807373046875;-9.184906005859375
1445426062721;196.318115234375;-164.2327423095703;19.654918670654297;-2.7782440185546875;-2.7272186279296875;-9.20452880859375
1445426062755;197.4920654296875;-164.04067993164062;19.594226837158203;-2.17022705078125;-2.531097412109375;-8.773025512695312
1445426062788;198.11077880859375;-163.9207763671875;19.62999153137207;-2.3859710693359375;-2.3545684814453125;-8.773025512695312
1445426062821;199.5633544921875;-163.4891815185547;19.645227432250977;-3.0135955810546875;-2.589935302734375;-8.949554443359375
1445426062854;200.3206787109375;-163.29197692871094;19.49789810180664;-3.288177490234375;-2.3741912841796875;-8.655349731445312
1445426062887;201.91912841796875;-162.7924041748047;19.253578186035156;-3.4058685302734375;-2.4330291748046875;-9.282974243164062
1445426062921;203.26513671875;-162.16477966308594;19.23979377746582;-3.3862457275390625;-2.511474609375;-9.027999877929688
1445426062953;203.8197021484375;-161.90853881835938;19.27043914794922;-3.36663818359375;-2.276123046875;-8.557281494140625
1445426062986;204.6495361328125;-161.44142150878906;19.34337043762207;-3.4058685302734375;-2.2368927001953125;-8.655349731445312
1445426063019;205.2354736328125;-160.77493286132812;19.783710479736328;-3.562774658203125;-2.589935302734375;-8.733810424804688
1445426063053;205.42401123046875;-160.3910369873047;20.050966262817383;-4.249237060546875;-3.02142333984375;-8.75341796875
1445426063085;205.59185791015625;-159.66976928710938;20.518325805664062;-3.6608428955078125;-2.4134063720703125;-7.419708251953125
1445426063119;205.5643310546875;-159.3182373046875;20.65378761291504;-4.3276824951171875;-4.15899658203125;-8.929931640625
1445426063151;205.521484375;-158.0609893798828;20.65266990661621;-3.9354248046875;-4.1982269287109375;-9.557571411132812
1445426063184;205.22601318359375;-157.69825744628906;20.762861251831055;-3.3274078369140625;-3.6098175048828125;-8.419998168945312
1445426063218;204.9105224609375;-157.99644470214844;20.62813949584961;-3.1312713623046875;-2.9429779052734375;-8.12579345703125
1445426063250;204.08184814453125;-158.1189727783203;20.91362953186035;-3.0135955810546875;-3.1194915771484375;-8.557281494140625
1445426063283;203.2938232421875;-157.83880615234375;21.10017967224121;-3.1508941650390625;-3.6098175048828125;-8.478836059570312
1445426063317;202.953857421875;-157.7071533203125;21.053386688232422;-3.680450439453125;-3.668670654296875;-8.616119384765625
1445426063350;202.290771484375;-157.4597930908203;20.80902862548828;-3.60198974609375;-3.5902099609375;-8.36114501953125
1445426063382;201.816162109375;-157.18856811523438;20.85100746154785;-3.30780029296875;-3.6294403076171875;-8.341537475585938
1445426063417;201.65777587890625;-157.0365447998047;20.83868408203125;-3.3274078369140625;-3.7471160888671875;-8.380767822265625
1445426063448;201.489990234375;-156.74444580078125;20.513500213623047;-3.4647064208984375;-3.8255767822265625;-8.36114501953125
1445426063480;201.42901611328125;-156.62176513671875;20.19483757019043;-3.052825927734375;-4.590484619140625;-8.400375366210938
1445426063514;201.4442138671875;-156.6182403564453;19.964813232421875;-2.993988037109375;-3.845184326171875;-8.616119384765625
1445426063547;201.5576171875;-156.7303924560547;19.130290985107422;-2.8174591064453125;-3.9432525634765625;-8.616119384765625
1445426063580;201.6376953125;-156.830078125;18.7525634765625;-2.9547576904296875;-3.6294403076171875;-8.51806640625
1445426063613;201.63519287109375;-157.1073760986328;18.243425369262695;-2.7782440185546875;-3.6098175048828125;-8.36114501953125
1445426063645;201.7061767578125;-157.35971069335938;17.935205459594727;-2.601715087890625;-3.6882781982421875;-8.576904296875
1445426063679;201.71875;-157.43106079101562;17.667966842651367;-2.91552734375;-3.4333038330078125;-8.478836059570312
1445426063712;201.8486328125;-157.57630920410156;17.42328453063965;-2.9547576904296875;-3.394073486328125;-8.616119384765625
1445426063745;201.8267822265625;-157.73931884765625;17.442569732666016;-2.935150146484375;-3.3156280517578125;-8.694580078125
1445426063781;201.772705078125;-157.83316040039062;17.557334899902344;-2.856689453125;-3.3548583984375;-8.419998168945312
1445426063810;201.64715576171875;-157.95001220703125;17.841352462768555;-2.7978515625;-3.3744659423828125;-8.478836059570312
1445426063843;201.4830322265625;-158.0607147216797;18.05576515197754;-2.8762969970703125;-3.4333038330078125;-8.557281494140625
1445426063878;201.40673828125;-158.0980682373047;18.193517684936523;-2.8370819091796875;-3.452911376953125;-8.439605712890625
1445426063909;201.052978515625;-158.13926696777344;18.397428512573242;-2.5036468505859375;-3.3744659423828125;-8.380767822265625
1445426063943;200.84503173828125;-158.1558380126953;18.40703010559082;-2.8174591064453125;-3.4333038330078125;-8.498443603515625
1445426063976;200.6607666015625;-158.16299438476562;18.517335891723633;-2.974365234375;-3.394073486328125;-8.419998168945312
1445426064010;200.6103515625;-158.15447998046875;18.685876846313477;-2.9547576904296875;-3.3548583984375;-8.341537475585938
1445426064042;200.6055908203125;-158.1279754638672;18.720359802246094;-2.7586212158203125;-3.4921417236328125;-8.439605712890625
1445426064075;200.50823974609375;-158.0680694580078;18.541139602661133;-2.68017578125;-3.5509796142578125;-8.655349731445312
1445426064107;200.54913330078125;-158.1427001953125;18.445226669311523;-3.1901092529296875;-3.5117645263671875;-8.733810424804688
1445426064140;200.61199951171875;-158.19842529296875;18.56364631652832;-3.1901092529296875;-3.5313720703125;-8.576904296875
1445426064174;200.76568603515625;-158.3056640625;18.84430503845215;-3.229339599609375;-3.394073486328125;-8.51806640625
1445426064207;200.8853759765625;-158.3206787109375;18.93129539489746;-3.4450836181640625;-3.19793701171875;-8.557281494140625
1445426064243;201.09661865234375;-158.4678192138672;19.067167282104492;-3.3274078369140625;-3.2371673583984375;-8.616119384765625
1445426064276;201.1102294921875;-158.59561157226562;19.1528263092041;-3.30780029296875;-3.158721923828125;-8.6357421875
1445426064306;201.10345458984375;-158.67962646484375;19.157306671142578;-3.2097320556640625;-3.19793701171875;-8.459213256835938
1445426064339;201.114501953125;-158.69776916503906;19.19282341003418;-3.229339599609375;-3.335235595703125;-8.557281494140625
1445426064375;201.0347900390625;-158.71240234375;19.21066665649414;-3.229339599609375;-3.4136962890625;-8.694580078125
1445426064407;200.96575927734375;-158.74049377441406;19.224931716918945;-3.170501708984375;-3.5706024169921875;-8.616119384765625
1445426064437;200.811279296875;-158.81427001953125;19.208669662475586;-3.111663818359375;-3.4136962890625;-8.576904296875
1445426064471;200.6513671875;-158.95639038085938;18.997543334960938;-3.033203125;-3.335235595703125;-8.557281494140625
1445426064505;200.58355712890625;-159.0408935546875;18.885915756225586;-3.033203125;-3.2567901611328125;-8.576904296875
1445426064537;200.486083984375;-159.14535522460938;18.714542388916016;-3.0135955810546875;-3.1783294677734375;-8.596511840820312
1445426064570;200.494873046875;-159.30535888671875;18.589641571044922;-3.229339599609375;-3.0606536865234375;-8.576904296875
1445426064603;200.5419921875;-159.35406494140625;18.537405014038086;-3.229339599609375;-3.217559814453125;-8.616119384765625
1445426064636;200.5867919921875;-159.4573974609375;18.369482040405273;-3.229339599609375;-3.1783294677734375;-8.714187622070312
1445426064668;200.55279541015625;-159.54078674316406;18.290555953979492;-3.229339599609375;-3.2960052490234375;-8.773025512695312
1445426064701;200.3662109375;-159.76718139648438;18.241008758544922;-3.111663818359375;-3.2567901611328125;-8.812255859375
1445426064735;199.842529296875;-160.0586700439453;18.184764862060547;-2.8174591064453125;-3.335235595703125;-8.498443603515625
1445426064768;199.58990478515625;-160.24435424804688;18.2274227142334;-2.8959197998046875;-3.2960052490234375;-8.537673950195312
1445426064800;199.10546875;-160.5574188232422;18.232328414916992;-2.8174591064453125;-3.3744659423828125;-8.655349731445312
1445426064834;198.6536865234375;-160.8323211669922;18.006391525268555;-2.8174591064453125;-3.452911376953125;-8.929931640625
1445426064867;198.504150390625;-161.03213500976562;17.82419204711914;-2.993988037109375;-3.276397705078125;-8.890716552734375
1445426064900;198.3587646484375;-161.6150360107422;17.424108505249023;-3.0724334716796875;-3.1194915771484375;-8.792648315429688
1445426064933;198.3338623046875;-162.484375;17.056730270385742;-3.1901092529296875;-2.825286865234375;-8.890716552734375
1445426064967;198.2464599609375;-163.11598205566406;16.841217041015625;-2.974365234375;-2.5507049560546875;-9.26336669921875
1445426064998;197.86822509765625;-164.47677612304688;16.28891944885254;-2.7978515625;-2.589935302734375;-9.224136352539062
1445426065032;197.495849609375;-165.8347930908203;15.459688186645508;-2.5036468505859375;-2.393798828125;-8.969161987304688
1445426065065;197.36871337890625;-166.52731323242188;14.910634994506836;-2.366363525390625;-2.4918670654296875;-9.26336669921875
1445426065098;197.18408203125;-168.06668090820312;13.77976131439209;-2.34674072265625;-2.079986572265625;-9.557571411132812
1445426065132;197.11846923828125;-168.8369598388672;13.292885780334473;-2.05255126953125;-1.3739013671875;-9.086837768554688
1445426065164;197.0302734375;-170.27456665039062;12.547390937805176;-2.05255126953125;-0.9816436767578125;-8.674972534179688
1445426065197;196.94207763671875;-171.28973388671875;12.218152046203613;-2.40557861328125;-0.4716949462890625;-8.831878662109375
1445426065230;196.8848876953125;-171.6248779296875;12.109823226928711;-2.0133209228515625;-0.6089935302734375;-8.498443603515625
1445426065264;196.60400390625;-172.01263427734375;12.259121894836426;-1.4837646484375;-0.7855072021484375;-8.478836059570312
1445426065296;196.4356689453125;-171.83164978027344;12.584009170532227;-1.405303955078125;-0.80511474609375;-9.047622680664062
1445426065330;196.48321533203125;-171.54135131835938;12.628396987915039;-1.974090576171875;-1.0797119140625;-9.675247192382812
1445426065362;196.6324462890625;-170.88973999023438;12.85509204864502;-1.8171844482421875;-1.2169952392578125;-9.792922973632812
1445426065395;197.0009765625;-170.34963989257812;12.92952823638916;-1.5622100830078125;-1.2366180419921875;-9.14569091796875
1445426065428;197.4320068359375;-170.20785522460938;12.764334678649902;-2.1898345947265625;-1.2562255859375;-8.890716552734375
1445426065460;198.00555419921875;-170.11508178710938;12.481440544128418;-2.2486724853515625;-1.570037841796875;-9.400650024414062
1445426065494;198.00836181640625;-169.80496215820312;12.47519302368164;-1.974090576171875;-1.6681060791015625;-9.126068115234375
1445426065526;197.970947265625;-169.6390380859375;12.577566146850586;-1.9936981201171875;-1.6092681884765625;-9.282974243164062
1445426065560;197.92132568359375;-169.3672637939453;12.624433517456055;-2.150604248046875;-1.58966064453125;-9.126068115234375
1445426065592;197.8365478515625;-169.27098083496094;12.619077682495117;-1.6602783203125;-1.4131317138671875;-8.792648315429688
1445426065625;197.74169921875;-168.89300537109375;12.649578094482422;-1.522979736328125;-1.452362060546875;-9.027999877929688
1445426065659;197.84979248046875;-168.30911254882812;12.588114738464355;-1.522979736328125;-1.9819183349609375;-9.616409301757812
1445426065692;197.8685302734375;-168.1026611328125;12.57711410522461;-2.032928466796875;-2.079986572265625;-9.694854736328125
1445426065725;197.63323974609375;-167.7615509033203;12.763823509216309;-1.797576904296875;-2.3153533935546875;-9.400650024414062
1445426065758;197.5037841796875;-167.64315795898438;12.983846664428711;-1.8367919921875;-2.6683807373046875;-9.577178955078125
1445426065792;197.42828369140625;-167.68873596191406;13.36301326751709;-2.22906494140625;-2.197662353515625;-8.969161987304688
1445426065825;197.3092041015625;-167.81307983398438;13.415119171142578;-2.1309967041015625;-2.0407562255859375;-8.87109375
1445426065857;197.2767333984375;-167.76026916503906;13.503129959106445;-2.091766357421875;-1.94268798828125;-9.32220458984375
1445426065894;197.39788818359375;-167.74407958984375;13.554839134216309;-2.34674072265625;-1.94268798828125;-9.341812133789062
1445426065924;197.75994873046875;-167.81141662597656;13.559069633483887;-2.6409454345703125;-1.7857818603515625;-9.20452880859375
1445426065960;198.1063232421875;-167.86512756347656;13.700115203857422;-2.974365234375;-1.82501220703125;-9.20452880859375
1445426065988;198.57830810546875;-167.814453125;13.708370208740234;-2.7782440185546875;-1.452362060546875;-9.400650024414062
1445426066024;199.2451171875;-167.61000061035156;13.614436149597168;-2.7978515625;-1.7465667724609375;-9.243743896484375
1445426066054;199.59033203125;-167.49977111816406;13.594067573547363;-2.484039306640625;-2.021148681640625;-9.184906005859375
1445426066088;200.24798583984375;-167.16761779785156;13.439577102661133;-2.542877197265625;-2.021148681640625;-9.20452880859375
1445426066120;200.57952880859375;-166.97607421875;13.276716232299805;-2.621337890625;-2.138824462890625;-9.086837768554688
1445426066154;201.251953125;-166.5431671142578;12.877612113952637;-2.601715087890625;-2.3349609375;-9.047622680664062
1445426066187;201.674560546875;-166.1975555419922;12.702860832214355;-2.2094573974609375;-2.4134063720703125;-9.086837768554688
1445426066219;201.26275634765625;-165.984375;12.49944019317627;-1.7779541015625;-2.3349609375;-9.282974243164062
1445426066253;200.904296875;-165.90626525878906;12.359360694885254;-1.5426025390625;-2.256500244140625;-9.086837768554688
1445426066286;200.21240234375;-165.8497314453125;12.14408016204834;-1.4837646484375;-2.511474609375;-9.067230224609375
1445426066320;199.6463623046875;-165.9994354248047;12.146623611450195;-1.6602783203125;-2.3153533935546875;-9.126068115234375
1445426066352;199.46282958984375;-166.07066345214844;12.156641006469727;-1.7583465576171875;-2.2957305908203125;-9.243743896484375
1445426066385;199.0242919921875;-166.28416442871094;12.286731719970703;-1.7779541015625;-1.9230804443359375;-9.027999877929688
1445426066418;198.73284912109375;-166.4326171875;12.527425765991211;-1.6995086669921875;-2.0407562255859375;-9.067230224609375
1445426066450;198.000732421875;-166.7520751953125;13.241546630859375;-1.8956451416015625;-2.1584320068359375;-9.106460571289062
1445426066484;197.02197265625;-167.07614135742188;14.090479850769043;-1.9936981201171875;-2.197662353515625;-9.165298461914062
1445426066519;196.52716064453125;-167.2085418701172;14.525910377502441;-2.17022705078125;-2.2368927001953125;-9.20452880859375
1445426066550;195.68115234375;-167.47178649902344;15.35436725616455;-2.3859710693359375;-2.1780548095703125;-9.26336669921875
1445426066584;195.26043701171875;-167.76272583007812;15.904461860656738;-2.8174591064453125;-1.9230804443359375;-9.38104248046875
1445426066616;195.33441162109375;-167.91746520996094;16.154443740844727;-3.1901092529296875;-1.8642425537109375;-9.184906005859375
1445426066649;195.5970458984375;-168.28953552246094;16.649837493896484;-2.8762969970703125;-1.511199951171875;-9.008392333984375
1445426066681;195.7535400390625;-168.4554901123047;16.785503387451172;-2.7978515625;-1.1385498046875;-8.929931640625
1445426066714;196.1444091796875;-168.68833923339844;16.94460678100586;-2.7978515625;-1.0208740234375;-8.910324096679688
1445426066747;196.49554443359375;-168.70887756347656;17.226383209228516;-3.1508941650390625;-1.4719696044921875;-9.243743896484375
1445426066781;196.6083984375;-168.65748596191406;17.379486083984375;-3.503936767578125;-1.88385009765625;-9.086837768554688
1445426066814;196.66229248046875;-168.60923767089844;17.527135848999023;-3.5235443115234375;-2.021148681640625;-9.008392333984375
1445426066848;196.460693359375;-168.75198364257812;17.59626579284668;-3.033203125;-2.197662353515625;-9.086837768554688
1445426066881;196.3114013671875;-168.8596649169922;17.666038513183594;-2.91552734375;-2.2368927001953125;-9.26336669921875
1445426066913;196.0108642578125;-169.13624572753906;17.982633590698242;-2.8762969970703125;-2.21728515625;-9.20452880859375
1445426066946;195.819091796875;-169.28091430664062;18.20796775817871;-2.935150146484375;-1.7465667724609375;-8.949554443359375
1445426066978;195.29852294921875;-169.58810424804688;18.502628326416016;-3.0920562744140625;-1.6681060791015625;-8.988784790039062
1445426067012;194.4967041015625;-170.05494689941406;18.850160598754883;-3.0724334716796875;-1.3150634765625;-9.184906005859375
1445426067045;194.046142578125;-170.3454132080078;19.050739288330078;-3.856964111328125;-1.3150634765625;-9.400650024414062
1445426067078;193.3367919921875;-170.96133422851562;19.414669036865234;-4.249237060546875;-1.2562255859375;-9.067230224609375
1445426067110;192.68121337890625;-171.3953857421875;19.56962776184082;-3.5823822021484375;-1.628875732421875;-8.910324096679688
1445426067144;192.242431640625;-171.65618896484375;19.57354736328125;-2.8762969970703125;-1.0797119140625;-8.694580078125
1445426067177;191.255615234375;-172.08612060546875;19.78976821899414;-2.8959197998046875;-0.9620208740234375;-8.773025512695312
1445426067209;190.3779296875;-172.2157745361328;19.992630004882812;-2.8762969970703125;-0.9031829833984375;-9.14569091796875
1445426067243;190.121826171875;-172.18362426757812;19.97161293029785;-2.7978515625;-1.3150634765625;-9.224136352539062
1445426067275;190.1219482421875;-172.01425170898438;19.758495330810547;-3.1901092529296875;-1.2366180419921875;-9.106460571289062
1445426067310;190.52301025390625;-171.7999267578125;19.3864688873291;-3.229339599609375;-1.628875732421875;-8.988784790039062
1445426067343;190.70684814453125;-171.75010681152344;19.19375991821289;-2.993988037109375;-1.3150634765625;-8.988784790039062
1445426067375;191.067626953125;-171.74098205566406;18.884973526000977;-2.660552978515625;-1.2366180419921875;-9.165298461914062
1445426067407;191.232177734375;-171.7865447998047;18.658016204833984;-2.68017578125;-1.3542938232421875;-9.126068115234375
1445426067441;191.0657958984375;-171.86599731445312;18.512542724609375;-2.4644317626953125;-1.3150634765625;-9.047622680664062
1445426067474;190.729248046875;-172.08168029785156;18.501672744750977;-2.621337890625;-1.1581573486328125;-8.988784790039062
1445426067506;190.6358642578125;-172.13357543945312;18.47289276123047;-3.288177490234375;-1.0404815673828125;-9.047622680664062
1445426067541;190.82568359375;-172.13743591308594;18.431764602661133;-3.3274078369140625;-1.3739013671875;-9.086837768554688
1445426067573;191.23681640625;-172.06405639648438;18.32364845275879;-3.0135955810546875;-1.275848388671875;-8.969161987304688
1445426067607;191.5848388671875;-171.99481201171875;18.300064086914062;-3.5235443115234375;-1.570037841796875;-9.106460571289062
1445426067641;192.42523193359375;-171.88111877441406;18.213884353637695;-3.60198974609375;-1.58966064453125;-9.243743896484375
1445426067671;192.95184326171875;-171.92250061035156;18.278776168823242;-3.4058685302734375;-1.3542938232421875;-9.243743896484375
1445426067704;193.047607421875;-172.0362548828125;18.299535751342773;-3.36663818359375;-1.1385498046875;-9.20452880859375
1445426067738;192.8682861328125;-172.31622314453125;18.04335594177246;-2.7978515625;-0.942413330078125;-9.126068115234375
1445426067771;192.57391357421875;-172.6220703125;17.790000915527344;-2.7782440185546875;-1.001251220703125;-9.184906005859375
1445426067804;192.38336181640625;-172.70579528808594;17.704814910888672;-2.7978515625;-1.1385498046875;-9.43988037109375
1445426067836;192.11663818359375;-172.7861328125;17.45339012145996;-2.8370819091796875;-1.2169952392578125;-9.537948608398438
1445426067870;192.0555419921875;-172.86508178710938;17.28586769104004;-2.856689453125;-1.1385498046875;-9.067230224609375
1445426067903;192.15234375;-173.12962341308594;17.093185424804688;-2.6997833251953125;-0.9228057861328125;-8.773025512695312
1445426067935;191.98114013671875;-173.25332641601562;16.940837860107422;-2.307525634765625;-0.8443450927734375;-8.694580078125
1445426067968;191.9095458984375;-173.21534729003906;16.935617446899414;-2.40557861328125;-0.824737548828125;-8.890716552734375
1445426068002;191.814208984375;-172.9237518310547;16.781984329223633;-2.307525634765625;-0.942413330078125;-9.027999877929688
1445426068035;191.88238525390625;-172.24868774414062;16.284547805786133;-2.1309967041015625;-1.452362060546875;-9.184906005859375
1445426068067;192.19873046875;-171.91346740722656;15.929386138916016;-2.974365234375;-1.2954559326171875;-9.812530517578125
1445426068101;193.06475830078125;-171.72247314453125;15.537261962890625;-3.1508941650390625;-1.060089111328125;-10.322479248046875
1445426068134;193.067626953125;-172.1511993408203;15.253393173217773;-3.3470306396484375;-1.0208740234375;-10.224411010742188
1445426068166;192.64501953125;-172.67288208007812;15.221297264099121;-3.4450836181640625;-0.9031829833984375;-9.596786499023438
1445426068200;191.422607421875;-173.84677124023438;15.21496868133545;-3.1312713623046875;-1.001251220703125;-8.6357421875
1445426068233;190.75665283203125;-174.28016662597656;15.049670219421387;-3.0724334716796875;-1.334686279296875;-8.557281494140625
1445426068265;189.55059814453125;-174.6054229736328;14.890409469604492;-2.8174591064453125;-1.275848388671875;-8.576904296875
1445426068298;188.5787353515625;-174.4459228515625;14.76211929321289;-1.738739013671875;-1.1385498046875;-8.773025512695312
1445426068332;188.3284912109375;-174.23487854003906;14.470069885253906;-1.5818328857421875;-1.0208740234375;-8.988784790039062
1445426068365;188.6728515625;-173.73309326171875;13.644757270812988;-1.3856964111328125;-1.0797119140625;-9.32220458984375
1445426068398;190.2847900390625;-173.31167602539062;11.90605354309082;-1.1307220458984375;-1.2954559326171875;-9.49871826171875
1445426068433;191.4090576171875;-173.20729064941406;10.892102241516113;-1.6014404296875;-2.276123046875;-10.106735229492188
1445426068464;193.736572265625;-173.1712646484375;8.75461196899414;-1.4445343017578125;-2.138824462890625;-9.8909912109375
1445426068497;196.225830078125;-173.50062561035156;6.425810813903809;-0.3657989501953125;-1.94268798828125;-9.165298461914062
1445426068532;197.594482421875;-173.7886962890625;5.414132595062256;-0.34619140625;-0.80511474609375;-8.439605712890625
1445426068563;199.930908203125;-174.32199096679688;4.141563892364502;-0.150054931640625;0.136322021484375;-8.890716552734375
1445426068596;200.903076171875;-174.4224853515625;3.8957600593566895;-0.3854217529296875;-0.197113037109375;-8.969161987304688
1445426068628;202.8193359375;-174.3639373779297;3.6808156967163086;-2.032928466796875;0.077484130859375;-8.969161987304688
1445426068662;203.9168701171875;-174.0680389404297;4.222433090209961;-2.05255126953125;0.763946533203125;-8.419998168945312
1445426068694;203.9287109375;-173.69973754882812;4.910641193389893;-0.85614013671875;-0.707061767578125;-8.929931640625
1445426068728;203.4847412109375;-172.5090789794922;6.0696702003479;-0.777679443359375;-1.060089111328125;-9.420272827148438
1445426068761;202.80316162109375;-171.039794921875;7.464808940887451;-1.09149169921875;-2.0603790283203125;-9.38104248046875
1445426068796;202.4659423828125;-170.40313720703125;8.235695838928223;-2.150604248046875;-1.8054046630859375;-9.557571411132812
1445426068826;201.6058349609375;-169.28602600097656;10.118583679199219;-1.5033721923828125;-2.138824462890625;-10.106735229492188
1445426068861;201.060302734375;-168.2732696533203;11.208614349365234;-1.9544830322265625;-2.7272186279296875;-9.7144775390625
1445426068893;200.848388671875;-168.00428771972656;11.523059844970703;-2.0721588134765625;-2.5507049560546875;-9.302597045898438
1445426068925;200.40472412109375;-167.57745361328125;12.418683052062988;-1.4445343017578125;-2.3153533935546875;-9.243743896484375
1445426068959;200.32568359375;-167.36953735351562;12.766901969909668;-1.5622100830078125;-2.1780548095703125;-9.302597045898438
1445426068992;200.5694580078125;-166.8699188232422;13.039287567138672;-2.307525634765625;-2.45263671875;-9.067230224609375
1445426069025;201.212646484375;-166.05772399902344;13.468077659606934;-1.5426025390625;-2.6095428466796875;-8.537673950195312
1445426069059;201.74798583984375;-165.5845489501953;13.50379753112793;-1.1307220458984375;-2.6095428466796875;-8.949554443359375
1445426069091;203.41448974609375;-164.31491088867188;13.209259033203125;-1.797576904296875;-2.90374755859375;-8.929931640625
1445426069125;205.13360595703125;-162.87979125976562;13.527862548828125;-1.974090576171875;-2.9821929931640625;-9.14569091796875
1445426069164;206.578369140625;-161.62484741210938;13.417630195617676;-2.6997833251953125;-3.1783294677734375;-9.165298461914062
1445426069191;207.1392822265625;-161.07891845703125;13.3627347946167;-2.6997833251953125;-2.78607177734375;-9.027999877929688
1445426069222;207.594970703125;-160.5980987548828;13.551114082336426;-3.4450836181640625;-1.903472900390625;-8.537673950195312
1445426069255;208.2757568359375;-159.7654571533203;13.686164855957031;-3.36663818359375;-2.1192169189453125;-8.792648315429688
1445426069289;208.97747802734375;-158.8301239013672;13.521184921264648;-2.6409454345703125;-3.217559814453125;-8.655349731445312
1445426069322;209.3311767578125;-158.31729125976562;13.493121147155762;-2.032928466796875;-4.080535888671875;-8.714187622070312
1445426069355;209.87503051757812;-157.27557373046875;13.565140724182129;-2.1309967041015625;-4.1786041259765625;-8.655349731445312
1445426069387;210.296630859375;-156.2353057861328;13.839309692382812;-2.2682952880859375;-4.2570648193359375;-8.557281494140625
1445426069421;210.85403442382812;-155.22149658203125;14.007615089416504;-2.4448089599609375;-4.33551025390625;-8.714187622070312
1445426069454;211.21871948242188;-154.7905731201172;14.038704872131348;-2.6409454345703125;-4.4335784912109375;-8.557281494140625
1445426069487;212.0281982421875;-154.15049743652344;14.119463920593262;-2.739013671875;-4.4335784912109375;-8.655349731445312
1445426069519;212.41021728515625;-153.92550659179688;14.063440322875977;-2.3271331787109375;-4.296295166015625;-8.400375366210938
1445426069553;213.10910034179688;-153.674072265625;14.01903247833252;-2.3859710693359375;-4.1786041259765625;-8.439605712890625
1445426069586;213.5693359375;-153.5718536376953;14.0673828125;-2.5232696533203125;-4.1786041259765625;-8.596511840820312
1445426069618;213.6800537109375;-153.5494384765625;14.117334365844727;-2.4644317626953125;-4.1786041259765625;-8.537673950195312
1445426069651;213.76934814453125;-153.52685546875;14.196344375610352;-2.366363525390625;-4.1982269287109375;-8.419998168945312
1445426069685;213.77532958984375;-153.48570251464844;14.258773803710938;-2.2094573974609375;-4.2570648193359375;-8.321929931640625
1445426069718;213.76913452148438;-153.45626831054688;14.286872863769531;-2.150604248046875;-4.296295166015625;-8.419998168945312
1445426069751;213.75823974609375;-153.38595581054688;14.333368301391602;-2.22906494140625;-4.3159027099609375;-8.380767822265625
1445426069784;213.7369384765625;-153.22555541992188;14.326749801635742;-2.2486724853515625;-4.27667236328125;-8.24346923828125
1445426069817;213.7733154296875;-153.13967895507812;14.370196342468262;-2.3271331787109375;-4.33551025390625;-8.282699584960938
1445426069850;213.94378662109375;-152.93223571777344;14.544971466064453;-2.484039306640625;-4.413970947265625;-8.341537475585938
1445426069883;214.0592041015625;-152.8086700439453;14.634464263916016;-2.5624847412109375;-4.5120391845703125;-8.282699584960938
1445426069915;214.32699584960938;-152.5403289794922;14.750839233398438;-2.5821075439453125;-4.4924163818359375;-8.36114501953125
1445426069948;214.49285888671875;-152.34820556640625;14.745854377746582;-2.621337890625;-4.39434814453125;-8.400375366210938
1445426069981;214.5694580078125;-152.18113708496094;14.6661376953125;-2.40557861328125;-4.4924163818359375;-8.06695556640625
1445426070014;214.830810546875;-151.7642059326172;14.554561614990234;-2.425201416015625;-4.5120391845703125;-8.00811767578125
1445426070048;215.2303466796875;-151.45167541503906;14.564377784729004;-2.719390869140625;-4.4335784912109375;-8.204238891601562
1445426070082;215.43853759765625;-151.3267822265625;14.599686622619629;-2.7586212158203125;-4.6297149658203125;-8.30230712890625
1445426070115;215.74520874023438;-151.1790771484375;14.686318397521973;-2.6997833251953125;-4.649322509765625;-8.24346923828125
1445426070148;215.8157958984375;-151.17356872558594;14.734906196594238;-2.5821075439453125;-4.610107421875;-8.204238891601562
1445426070181;215.889404296875;-151.29574584960938;14.86025619506836;-2.542877197265625;-4.5708770751953125;-8.263092041015625
1445426070213;215.87274169921875;-151.51602172851562;14.918146133422852;-2.366363525390625;-4.590484619140625;-8.223861694335938
1445426070248;215.882568359375;-151.61337280273438;14.931479454040527;-2.307525634765625;-4.5120391845703125;-8.204238891601562
1445426070278;215.78875732421875;-151.81292724609375;14.915181159973145;-2.2682952880859375;-4.4532012939453125;-8.30230712890625
1445426070312;215.7088623046875;-151.95713806152344;14.929609298706055;-2.40557861328125;-4.413970947265625;-8.24346923828125
1445426070344;215.67578125;-152.00990295410156;14.953695297241211;-2.484039306640625;-4.3747406005859375;-8.24346923828125
1445426070378;215.5562744140625;-152.07992553710938;14.96240234375;-2.542877197265625;-4.4532012939453125;-8.321929931640625
1445426070411;215.3309326171875;-152.1457061767578;14.907380104064941;-2.3859710693359375;-4.4335784912109375;-8.341537475585938
1445426070445;215.26553344726562;-152.15176391601562;14.907864570617676;-2.366363525390625;-4.4532012939453125;-8.263092041015625
1445426070476;215.4459228515625;-152.04884338378906;14.975127220153809;-2.5821075439453125;-4.6885528564453125;-8.145401000976562
1445426070509;215.710693359375;-152.1306610107422;15.078315734863281;-2.739013671875;-4.355133056640625;-8.439605712890625
1445426070543;215.80657958984375;-152.18692016601562;15.018328666687012;-2.7782440185546875;-4.1982269287109375;-8.380767822265625
1445426070576;216.01019287109375;-152.26528930664062;14.960371971130371;-2.542877197265625;-4.355133056640625;-8.321929931640625
1445426070609;216.08587646484375;-152.3077392578125;14.931658744812012;-2.601715087890625;-4.27667236328125;-8.321929931640625
1445426070642;215.98956298828125;-152.29356384277344;14.947083473205566;-2.40557861328125;-4.5120391845703125;-8.459213256835938
1445426070675;215.68429565429688;-152.28097534179688;14.920618057250977;-2.307525634765625;-4.4924163818359375;-8.321929931640625
1445426070708;215.51229858398438;-152.21412658691406;14.891764640808105;-2.05255126953125;-4.6297149658203125;-8.24346923828125
1445426070742;215.26406860351562;-152.06402587890625;14.662727355957031;-2.032928466796875;-4.590484619140625;-8.24346923828125
1445426070774;215.203125;-151.94308471679688;14.457212448120117;-2.22906494140625;-4.472808837890625;-8.223861694335938
1445426070808;215.2415771484375;-151.8941650390625;14.398966789245605;-2.5232696533203125;-4.39434814453125;-8.204238891601562
1445426070841;215.38330078125;-151.81436157226562;14.443288803100586;-2.542877197265625;-4.3747406005859375;-8.24346923828125
1445426070874;215.43417358398438;-151.75230407714844;14.524917602539062;-2.5232696533203125;-4.4335784912109375;-8.24346923828125
1445426070906;215.42892456054688;-151.72059631347656;14.568659782409668;-2.5232696533203125;-4.4335784912109375;-8.263092041015625
1445426070940;215.33404541015625;-151.65713500976562;14.603659629821777;-2.4644317626953125;-4.39434814453125;-8.263092041015625
1445426070974;215.20111083984375;-151.6009521484375;14.588658332824707;-2.542877197265625;-4.355133056640625;-8.341537475585938
1445426071005;215.17822265625;-151.5253143310547;14.5593900680542;-2.5232696533203125;-4.39434814453125;-8.24346923828125
1445426071039;215.04611206054688;-151.42294311523438;14.485795021057129;-2.6409454345703125;-4.15899658203125;-8.400375366210938
1445426071071;215.0380859375;-151.34002685546875;14.45630168914795;-2.8959197998046875;-4.27667236328125;-8.204238891601562
1445426071104;215.18399047851562;-150.95411682128906;14.386088371276855;-2.8174591064453125;-4.3747406005859375;-8.145401000976562
1445426071137;215.26470947265625;-150.39501953125;14.260272979736328;-2.4644317626953125;-4.5708770751953125;-8.06695556640625
1445426071172;215.26486206054688;-150.06040954589844;14.18818187713623;-2.34674072265625;-4.904296875;-8.12579345703125
1445426071203;215.13604736328125;-149.3768310546875;14.013556480407715;-2.1898345947265625;-4.904296875;-8.204238891601562
1445426071236;215.0025634765625;-148.69488525390625;13.800830841064453;-2.150604248046875;-5.1985015869140625;-8.00811767578125
1445426071268;214.9739990234375;-148.3659210205078;13.69652271270752;-2.0721588134765625;-5.2573394775390625;-7.94927978515625
1445426071302;214.9588623046875;-147.8165283203125;13.461651802062988;-1.974090576171875;-5.3161773681640625;-7.870819091796875
1445426071334;215.0950927734375;-147.39491271972656;13.291149139404297;-2.091766357421875;-5.35540771484375;-7.8315887451171875
1445426071368;215.17156982421875;-147.23753356933594;13.226810455322266;-2.11138916015625;-5.3358001708984375;-7.8512115478515625
1445426071401;215.32797241210938;-147.0281982421875;13.179749488830566;-2.150604248046875;-5.35540771484375;-7.7727508544921875
1445426071434;215.41390991210938;-146.96099853515625;13.201119422912598;-2.1309967041015625;-5.492706298828125;-7.753143310546875
1445426071466;215.45584106445312;-147.03451538085938;13.364253997802734;-2.032928466796875;-5.551544189453125;-7.694305419921875
1445426071500;215.53231811523438;-147.25306701660156;13.639286041259766;-1.9936981201171875;-5.3358001708984375;-7.811981201171875
1445426071532;215.62908935546875;-147.4287109375;13.788325309753418;-2.17022705078125;-5.218109130859375;-7.870819091796875
1445426071565;215.9388427734375;-147.87574768066406;14.035870552062988;-2.34674072265625;-5.0808258056640625;-7.988494873046875
1445426071598;216.205078125;-148.5334014892578;14.30207347869873;-2.3859710693359375;-4.982757568359375;-8.06695556640625
1445426071632;216.263671875;-148.89724731445312;14.435357093811035;-2.5036468505859375;-4.78662109375;-8.263092041015625
1445426071664;216.32247924804688;-149.6119842529297;14.806267738342285;-2.4448089599609375;-4.78662109375;-8.12579345703125
1445426071699;216.25357055664062;-150.2872772216797;15.224348068237305;-2.68017578125;-4.531646728515625;-8.263092041015625
1445426071736;216.15652465820312;-150.6277618408203;15.425224304199219;-2.719390869140625;-4.33551025390625;-8.263092041015625
1445426071764;216.0064697265625;-151.2092742919922;15.773884773254395;-2.7978515625;-4.1393890380859375;-8.263092041015625
1445426071797;216.01419067382812;-151.571533203125;16.017009735107422;-3.033203125;-4.0609283447265625;-8.282699584960938
1445426071829;216.02581787109375;-151.66607666015625;16.07781982421875;-3.1508941650390625;-4.080535888671875;-8.321929931640625
1445426071863;216.03146362304688;-151.7667236328125;16.143651962280273;-3.033203125;-4.2374420166015625;-8.30230712890625
1445426071896;216.01596069335938;-151.79058837890625;16.148569107055664;-2.8370819091796875;-4.4532012939453125;-8.30230712890625
1445426071929;215.970458984375;-151.79481506347656;16.11319351196289;-2.8174591064453125;-4.4924163818359375;-8.282699584960938
1445426071961;215.94595336914062;-151.75430297851562;16.012916564941406;-2.68017578125;-4.55126953125;-8.18463134765625
1445426071998;216.01727294921875;-151.67752075195312;15.934774398803711;-2.621337890625;-4.5120391845703125;-8.282699584960938
1445426072027;216.12786865234375;-151.56515502929688;15.68993854522705;-2.719390869140625;-4.531646728515625;-8.30230712890625
1445426072061;216.35369873046875;-151.44149780273438;15.38921070098877;-2.8174591064453125;-4.4924163818359375;-8.204238891601562
1445426072096;216.448974609375;-151.36578369140625;15.212050437927246;-2.660552978515625;-4.5120391845703125;-8.204238891601562
1445426072126;216.62643432617188;-151.21475219726562;14.871158599853516;-2.5624847412109375;-4.4924163818359375;-8.24346923828125
1445426072160;216.693359375;-151.14012145996094;14.701271057128906;-2.5232696533203125;-4.5120391845703125;-8.282699584960938
1445426072193;216.7061767578125;-151.02133178710938;14.37504768371582;-2.5036468505859375;-4.4335784912109375;-8.321929931640625
1445426072225;216.6175537109375;-150.85031127929688;14.079113006591797;-2.28790283203125;-4.4924163818359375;-8.18463134765625
1445426072258;216.56613159179688;-150.73895263671875;13.945291519165039;-2.2486724853515625;-4.6297149658203125;-8.204238891601562
1445426072292;216.40948486328125;-150.50271606445312;13.730228424072266;-2.2682952880859375;-4.6689453125;-8.204238891601562
1445426072325;216.15350341796875;-150.2499237060547;13.59829330444336;-2.22906494140625;-4.7473907470703125;-8.18463134765625
1445426072358;216.04296875;-150.1285400390625;13.57138442993164;-2.150604248046875;-4.963134765625;-8.145401000976562
1445426072391;215.718994140625;-149.94656372070312;13.490245819091797;-2.11138916015625;-5.0808258056640625;-8.165023803710938
1445426072425;215.2525634765625;-149.88897705078125;13.476408004760742;-2.032928466796875;-5.17889404296875;-8.419998168945312
1445426072457;214.958984375;-149.94100952148438;13.479000091552734;-1.915252685546875;-5.1200408935546875;-8.341537475585938
1445426072490;214.62554931640625;-150.09910583496094;13.442750930786133;-2.1309967041015625;-5.041595458984375;-8.06695556640625
1445426072523;214.576416015625;-150.5060272216797;13.485809326171875;-2.5624847412109375;-4.845458984375;-8.380767822265625
1445426072556;214.57107543945312;-150.78663635253906;13.543892860412598;-2.6409454345703125;-4.78662109375;-8.400375366210938
1445426072590;214.49197387695312;-151.40907287597656;13.732002258300781;-2.601715087890625;-4.610107421875;-8.263092041015625
1445426072621;214.36578369140625;-151.7432861328125;13.82166862487793;-2.2094573974609375;-4.4532012939453125;-8.282699584960938
1445426072656;213.88751220703125;-152.3751220703125;13.701662063598633;-2.17022705078125;-4.39434814453125;-8.616119384765625
1445426072687;213.62774658203125;-152.97589111328125;13.401261329650879;-2.484039306640625;-4.55126953125;-8.831878662109375
1445426072721;213.47247314453125;-153.38267517089844;13.211528778076172;-2.3859710693359375;-4.39434814453125;-9.224136352539062
1445426072754;212.88479614257812;-154.40231323242188;12.69882583618164;-2.28790283203125;-4.3747406005859375;-9.047622680664062
1445426072787;211.5439453125;-155.88160705566406;12.278060913085938;-1.8367919921875;-4.10015869140625;-8.969161987304688
1445426072820;210.63958740234375;-156.65057373046875;12.089322090148926;-1.464141845703125;-3.962860107421875;-8.400375366210938
1445426072853;209.11648559570312;-158.3888397216797;11.806350708007812;-2.1309967041015625;-3.8255767822265625;-8.537673950195312
1445426072887;208.46249389648438;-159.2454833984375;11.736825942993164;-2.150604248046875;-3.4333038330078125;-9.047622680664062
1445426072919;207.1953125;-160.978759765625;11.636773109436035;-1.738739013671875;-3.099884033203125;-9.008392333984375
1445426072952;206.24346923828125;-162.73916625976562;11.468794822692871;-1.4445343017578125;-2.707611083984375;-9.086837768554688
1445426072985;205.958984375;-163.5965118408203;11.331949234008789;-1.6798858642578125;-2.21728515625;-9.224136352539062
1445426073018;205.611572265625;-165.21023559570312;10.922762870788574;-2.032928466796875;-2.0603790283203125;-9.518341064453125
1445426073051;205.328125;-166.88345336914062;10.799504280090332;-2.5821075439453125;-1.7269439697265625;-9.596786499023438
1445426073083;205.0284423828125;-167.8325653076172;10.613327980041504;-2.484039306640625;-0.491302490234375;-9.106460571289062
1445426073116;204.4366455078125;-170.0859832763672;9.846802711486816;-2.856689453125;-0.7266693115234375;-9.518341064453125
1445426073150;204.01995849609375;-171.28970336914062;9.497993469238281;-2.621337890625;-0.883575439453125;-9.26336669921875
1445426073183;202.93035888671875;-173.74440002441406;8.620973587036133;-2.3271331787109375;-1.001251220703125;-8.812255859375
1445426073217;201.37646484375;-175.87518310546875;8.25484561920166;-1.346466064453125;-1.001251220703125;-8.576904296875
1445426073248;200.524169921875;-176.60804748535156;8.3073148727417;-0.601165771484375;-0.5893707275390625;-7.9100494384765625
1445426073282;199.0543212890625;-177.47232055664062;8.596819877624512;-0.777679443359375;-0.3540191650390625;-7.4981689453125
1445426073314;197.599609375;-177.244140625;9.410194396972656;-0.85614013671875;-0.138275146484375;-7.066680908203125
1445426073349;196.8653564453125;-176.70738220214844;10.213863372802734;-0.542327880859375;-0.255950927734375;-8.51806640625
1445426073381;195.833251953125;-174.6883544921875;11.699167251586914;-1.111114501953125;-0.2755584716796875;-8.890716552734375
1445426073414;195.2178955078125;-172.0939483642578;13.01986312866211;-0.8757476806640625;-0.0205841064453125;-10.224411010742188
1445426073447;195.255615234375;-170.75112915039062;13.654769897460938;-0.7580718994140625;-3.19793701171875;-13.244857788085938
1445426073480;196.505859375;-169.2945556640625;13.089727401733398;-1.915252685546875;-2.1584320068359375;-11.048171997070312
1445426073512;197.81768798828125;-169.91880798339844;12.84739875793457;-1.8171844482421875;-1.1581573486328125;-7.066680908203125
1445426073545;198.2613525390625;-169.72877502441406;13.696711540222168;-0.7580718994140625;-1.1385498046875;-4.0070037841796875
1445426073579;198.94781494140625;-167.1868896484375;14.478177070617676;-2.542877197265625;-4.55126953125;-11.126632690429688
1445426073613;199.6849365234375;-167.0701446533203;13.868062973022461;-1.9544830322265625;-2.45263671875;-8.36114501953125
1445426073645;201.86602783203125;-167.60333251953125;12.713491439819336;-2.05255126953125;-2.021148681640625;-7.929656982421875
1445426073678;203.33392333984375;-167.08619689941406;12.946808815002441;-2.0721588134765625;-2.0995941162109375;-8.616119384765625
1445426073711;204.02423095703125;-166.56105041503906;12.779047966003418;-2.5036468505859375;-2.531097412109375;-9.694854736328125
1445426073744;205.63348388671875;-166.0283966064453;12.389716148376465;-2.425201416015625;-2.707611083984375;-9.459503173828125
1445426073777;207.446044921875;-165.79425048828125;11.918058395385742;-2.11138916015625;-2.531097412109375;-9.165298461914062
1445426073809;208.34271240234375;-165.6414794921875;11.649799346923828;-2.425201416015625;-2.4918670654296875;-9.518341064453125
1445426073842;209.83828735351562;-165.346435546875;11.002876281738281;-2.5232696533203125;-2.4134063720703125;-9.459503173828125
1445426073876;210.7850341796875;-165.2699737548828;10.562448501586914;-2.307525634765625;-2.2957305908203125;-9.361434936523438
1445426073910;211.11077880859375;-165.29978942871094;10.358171463012695;-2.22906494140625;-2.079986572265625;-9.165298461914062
1445426073941;211.60336303710938;-165.41238403320312;9.947806358337402;-2.05255126953125;-1.9230804443359375;-9.027999877929688
1445426073975;211.86114501953125;-165.49972534179688;9.787604331970215;-1.8171844482421875;-2.0407562255859375;-9.14569091796875
1445426074007;211.931884765625;-165.49685668945312;9.782792091369629;-1.9544830322265625;-2.1192169189453125;-9.20452880859375
1445426074043;211.88433837890625;-165.46771240234375;9.810822486877441;-1.7191162109375;-2.138824462890625;-9.20452880859375
1445426074074;211.80029296875;-165.46080017089844;9.851057052612305;-1.5818328857421875;-2.21728515625;-9.20452880859375
1445426074108;211.61541748046875;-165.4589080810547;9.941434860229492;-1.6406707763671875;-2.3153533935546875;-9.282974243164062
1445426074140;211.37667846679688;-165.48269653320312;9.993437767028809;-1.6014404296875;-2.3545684814453125;-9.165298461914062
1445426074172;211.24072265625;-165.4910888671875;9.99112319946289;-1.5818328857421875;-2.3545684814453125;-9.165298461914062
1445426074205;211.0196533203125;-165.47915649414062;9.976618766784668;-1.5818328857421875;-2.393798828125;-9.165298461914062
1445426074239;210.82339477539062;-165.47740173339844;9.933619499206543;-1.5426025390625;-2.4134063720703125;-9.224136352539062
1445426074271;210.75799560546875;-165.4701385498047;9.901795387268066;-1.4445343017578125;-2.3741912841796875;-9.32220458984375
1445426074305;210.62661743164062;-165.44564819335938;9.77669906616211;-1.5033721923828125;-2.5703125;-9.224136352539062
1445426074338;210.60052490234375;-165.41848754882812;9.715784072875977;-1.4837646484375;-2.511474609375;-9.282974243164062
1445426074371;210.57965087890625;-165.39248657226562;9.601693153381348;-1.5033721923828125;-2.4918670654296875;-9.26336669921875
1445426074404;210.6439208984375;-165.4004669189453;9.482998847961426;-1.5818328857421875;-2.3741912841796875;-9.184906005859375
1445426074436;210.70184326171875;-165.42062377929688;9.424221992492676;-1.6210479736328125;-2.276123046875;-9.341812133789062
1445426074469;210.76913452148438;-165.51858520507812;9.332159996032715;-1.7191162109375;-2.1584320068359375;-9.32220458984375
1445426074502;210.795166015625;-165.62057495117188;9.278440475463867;-1.6798858642578125;-2.021148681640625;-9.26336669921875
1445426074535;210.884765625;-165.63197326660156;9.286053657531738;-1.7191162109375;-2.197662353515625;-9.302597045898438
1445426074569;211.02081298828125;-165.56039428710938;9.262259483337402;-1.6798858642578125;-2.276123046875;-9.26336669921875
1445426074602;211.21173095703125;-165.38107299804688;9.271263122558594;-1.6798858642578125;-2.472259521484375;-9.14569091796875
1445426074634;211.24197387695312;-165.31285095214844;9.268908500671387;-1.6406707763671875;-2.4330291748046875;-9.106460571289062
1445426074668;211.16754150390625;-165.20472717285156;9.23099422454834;-1.4445343017578125;-2.589935302734375;-9.165298461914062
1445426074702;211.13409423828125;-165.14076232910156;9.215076446533203;-1.405303955078125;-2.6291656494140625;-9.20452880859375
1445426074737;211.040283203125;-165.02481079101562;9.155173301696777;-1.3660736083984375;-2.6683807373046875;-9.165298461914062
1445426074767;210.97747802734375;-164.94082641601562;9.106362342834473;-1.346466064453125;-2.6880035400390625;-9.086837768554688
1445426074801;210.95419311523438;-164.93106079101562;9.07815170288086;-1.3660736083984375;-2.21728515625;-9.20452880859375
1445426074832;210.86819458007812;-165.05015563964844;9.021623611450195;-1.4249267578125;-2.4134063720703125;-9.184906005859375
1445426074865;210.925537109375;-165.1411895751953;9.012897491455078;-1.4837646484375;-2.4134063720703125;-9.224136352539062
1445426074899;210.99029541015625;-165.1733856201172;9.024479866027832;-1.5426025390625;-2.4330291748046875;-9.184906005859375
1445426074932;211.0928955078125;-165.243408203125;9.059412002563477;-1.5033721923828125;-2.3545684814453125;-9.224136352539062
1445426074965;211.07440185546875;-165.38198852539062;9.087333679199219;-1.4837646484375;-2.256500244140625;-9.14569091796875
1445426074999;211.0205078125;-165.4568634033203;9.097415924072266;-1.3856964111328125;-2.3349609375;-9.20452880859375
1445426075031;210.89605712890625;-165.53099060058594;9.167354583740234;-1.4249267578125;-2.393798828125;-9.26336669921875
1445426075064;210.77215576171875;-165.5714569091797;9.252143859863281;-1.4445343017578125;-2.4330291748046875;-9.126068115234375
1445426075099;210.72723388671875;-165.59646606445312;9.30530834197998;-1.405303955078125;-2.4134063720703125;-9.067230224609375
1445426075129;210.784912109375;-165.61300659179688;9.414876937866211;-1.5818328857421875;-2.4134063720703125;-9.243743896484375
1445426075163;210.99462890625;-165.6488494873047;9.502721786499023;-1.7191162109375;-2.3349609375;-9.184906005859375
1445426075196;211.09765625;-165.6696319580078;9.525932312011719;-1.6798858642578125;-2.3349609375;-9.243743896484375
1445426075229;211.27529907226562;-165.7152557373047;9.526732444763184;-1.6995086669921875;-2.2368927001953125;-9.26336669921875
1445426075262;211.3360595703125;-165.7600555419922;9.548965454101562;-1.7191162109375;-2.1584320068359375;-9.126068115234375
1445426075297;211.40509033203125;-165.856201171875;9.622050285339355;-1.7191162109375;-2.1780548095703125;-9.20452880859375
1445426075328;211.39242553710938;-165.89862060546875;9.690512657165527;-1.6798858642578125;-2.256500244140625;-9.20452880859375
1445426075361;211.35284423828125;-165.91343688964844;9.732446670532227;-1.5818328857421875;-2.256500244140625;-9.165298461914062
1445426075394;211.22274780273438;-165.9190673828125;9.777297973632812;-1.5818328857421875;-2.2368927001953125;-9.14569091796875
1445426075427;211.12255859375;-165.91552734375;9.823797225952148;-1.5818328857421875;-2.3153533935546875;-9.224136352539062
1445426075460;211.0992431640625;-165.8734588623047;9.826598167419434;-1.5033721923828125;-2.45263671875;-9.224136352539062
1445426075493;211.06411743164062;-165.78936767578125;9.803689956665039;-1.5033721923828125;-2.4134063720703125;-9.184906005859375
1445426075526;211.1158447265625;-165.71163940429688;9.809549331665039;-1.5426025390625;-2.472259521484375;-9.067230224609375
1445426075559;211.1673583984375;-165.68727111816406;9.806475639343262;-1.6210479736328125;-2.472259521484375;-9.243743896484375
1445426075592;211.31277465820312;-165.7086181640625;9.83061408996582;-1.7779541015625;-2.3545684814453125;-9.165298461914062
1445426075625;211.35647583007812;-165.7589874267578;9.86470890045166;-1.738739013671875;-2.21728515625;-9.26336669921875
1445426075657;211.34085083007812;-165.88082885742188;9.941744804382324;-1.7191162109375;-2.2368927001953125;-9.26336669921875
1445426075696;211.24761962890625;-165.97482299804688;10.028200149536133;-1.6602783203125;-2.197662353515625;-9.282974243164062
1445426075724;211.1954345703125;-166.01312255859375;10.084043502807617;-1.7779541015625;-2.21728515625;-9.243743896484375
1445426075760;211.1068115234375;-166.02210998535156;10.187715530395508;-1.7191162109375;-2.256500244140625;-9.243743896484375
1445426075791;211.07855224609375;-165.91514587402344;10.265034675598145;-1.6798858642578125;-2.472259521484375;-9.20452880859375
1445426075824;211.09750366210938;-165.85971069335938;10.290961265563965;-1.6406707763671875;-2.511474609375;-9.20452880859375
1445426075855;211.15008544921875;-165.78912353515625;10.27364444732666;-1.6210479736328125;-2.511474609375;-9.184906005859375
1445426075891;211.278076171875;-165.79190063476562;10.233633995056152;-1.738739013671875;-2.4134063720703125;-9.243743896484375
1445426075922;211.34536743164062;-165.82077026367188;10.222977638244629;-1.7583465576171875;-2.3545684814453125;-9.184906005859375
1445426075955;211.36529541015625;-165.99417114257812;10.247188568115234;-1.7779541015625;-2.079986572265625;-9.126068115234375
1445426075988;211.29934692382812;-166.2481231689453;10.326210975646973;-1.8171844482421875;-1.9230804443359375;-9.047622680664062
1445426076021;211.232421875;-166.3419647216797;10.37183666229248;-1.7583465576171875;-1.94268798828125;-9.184906005859375
1445426076053;211.0810546875;-166.29824829101562;10.403020858764648;-1.6406707763671875;-2.2368927001953125;-9.341812133789062
1445426076087;210.9920654296875;-166.2494354248047;10.392644882202148;-1.5818328857421875;-2.2957305908203125;-9.047622680664062
1445426076120;210.88626098632812;-166.1562042236328;10.456658363342285;-1.6210479736328125;-2.45263671875;-9.067230224609375
1445426076153;210.941650390625;-165.9810333251953;10.475829124450684;-1.7583465576171875;-2.4330291748046875;-9.26336669921875
1445426076186;210.96438598632812;-165.96310424804688;10.457160949707031;-1.7191162109375;-2.3349609375;-9.243743896484375
1445426076218;210.97491455078125;-166.01617431640625;10.431745529174805;-1.7583465576171875;-2.3153533935546875;-9.26336669921875
1445426076252;210.97247314453125;-166.0509033203125;10.431672096252441;-1.856414794921875;-2.0995941162109375;-9.165298461914062
1445426076285;210.95510864257812;-166.17330932617188;10.462081909179688;-1.797576904296875;-2.1584320068359375;-9.14569091796875
1445426076318;210.92572021484375;-166.20474243164062;10.431013107299805;-1.7779541015625;-2.197662353515625;-9.400650024414062
1445426076351;210.80487060546875;-166.23594665527344;10.360738754272461;-1.6406707763671875;-2.138824462890625;-9.067230224609375
1445426076384;210.6947021484375;-166.24632263183594;10.378461837768555;-1.6014404296875;-2.0995941162109375;-9.086837768554688
1445426076416;210.5921630859375;-166.08338928222656;10.42419719696045;-1.7583465576171875;-2.3545684814453125;-9.224136352539062
1445426076450;210.55462646484375;-165.98397827148438;10.47597599029541;-1.8367919921875;-2.2368927001953125;-9.26336669921875
1445426076483;210.49163818359375;-165.81597900390625;10.738807678222656;-1.915252685546875;-2.3741912841796875;-9.282974243164062
1445426076515;210.5458984375;-165.4828338623047;10.964496612548828;-2.0133209228515625;-2.6683807373046875;-9.14569091796875
1445426076550;210.55328369140625;-165.3191375732422;11.084221839904785;-1.9936981201171875;-2.7468414306640625;-9.086837768554688
1445426076581;210.62091064453125;-165.0332794189453;11.251441955566406;-1.974090576171875;-2.766448974609375;-9.282974243164062
1445426076614;210.67755126953125;-164.9344024658203;11.261475563049316;-1.9936981201171875;-2.6683807373046875;-9.047622680664062
1445426076649;210.92193603515625;-164.79971313476562;11.171998977661133;-1.856414794921875;-2.4330291748046875;-9.008392333984375
1445426076680;211.09600830078125;-164.78382873535156;10.982123374938965;-1.8171844482421875;-2.4330291748046875;-9.224136352539062
1445426076714;211.06283569335938;-164.84034729003906;10.767022132873535;-1.522979736328125;-2.3741912841796875;-9.165298461914062
1445426076746;210.93637084960938;-164.92239379882812;10.710762977600098;-1.405303955078125;-2.3153533935546875;-9.165298461914062
1445426076781;210.50946044921875;-165.2007598876953;10.731714248657227;-1.4249267578125;-2.197662353515625;-9.047622680664062
1445426076812;210.25262451171875;-165.33982849121094;10.807597160339355;-1.5033721923828125;-2.3741912841796875;-9.106460571289062
1445426076845;209.7010498046875;-165.5323028564453;11.051677703857422;-1.6406707763671875;-2.4918670654296875;-9.224136352539062
1445426076879;209.22610473632812;-165.81341552734375;11.534272193908691;-2.307525634765625;-2.4918670654296875;-9.282974243164062
1445426076914;208.98199462890625;-166.02438354492188;11.88793659210205;-2.484039306640625;-2.3349609375;-9.14569091796875
1445426076945;208.47283935546875;-166.47161865234375;12.582876205444336;-2.5036468505859375;-2.3349609375;-9.26336669921875
1445426076978;207.9783935546875;-166.9257354736328;13.172104835510254;-2.6409454345703125;-2.197662353515625;-9.224136352539062
1445426077010;207.6826171875;-167.17010498046875;13.382330894470215;-2.5624847412109375;-2.079986572265625;-9.224136352539062
1445426077043;206.98193359375;-167.59164428710938;13.743990898132324;-2.40557861328125;-1.9819183349609375;-9.243743896484375
1445426077076;206.61895751953125;-167.7771453857422;13.866025924682617;-2.22906494140625;-1.82501220703125;-9.126068115234375
1445426077110;206.06756591796875;-168.07733154296875;13.99695873260498;-2.34674072265625;-1.9230804443359375;-9.20452880859375
1445426077143;205.698974609375;-168.25521850585938;13.983160018920898;-2.1898345947265625;-1.962310791015625;-9.20452880859375
1445426077175;205.49700927734375;-168.33970642089844;13.957817077636719;-2.0721588134765625;-1.962310791015625;-9.243743896484375
1445426077211;205.12841796875;-168.45449829101562;13.821648597717285;-1.9936981201171875;-2.0407562255859375;-9.302597045898438
1445426077242;204.80377197265625;-168.66432189941406;13.583905220031738;-2.05255126953125;-1.8642425537109375;-9.224136352539062
1445426077276;204.69110107421875;-168.8504638671875;13.546915054321289;-2.3859710693359375;-1.76617431640625;-9.38104248046875
1445426077308;204.4180908203125;-169.22056579589844;13.545679092407227;-2.307525634765625;-1.76617431640625;-9.302597045898438
1445426077341;204.022216796875;-169.609619140625;13.548222541809082;-2.2486724853515625;-1.8054046630859375;-9.126068115234375
1445426077379;203.6328125;-169.9709930419922;13.492573738098145;-2.22906494140625;-1.76617431640625;-9.20452880859375
1445426077408;203.447021484375;-170.1472930908203;13.420205116271973;-2.2682952880859375;-1.6681060791015625;-9.341812133789062
1445426077440;203.09521484375;-170.50975036621094;13.298627853393555;-2.307525634765625;-1.4915924072265625;-9.224136352539062
1445426077478;202.6083984375;-170.94395446777344;13.13926887512207;-2.05255126953125;-1.334686279296875;-9.14569091796875
1445426077508;202.35498046875;-171.1398468017578;13.102716445922852;-2.0721588134765625;-1.1973876953125;-9.027999877929688
1445426077542;201.8890380859375;-171.43377685546875;13.183928489685059;-2.40557861328125;-1.1581573486328125;-9.126068115234375
1445426077571;201.52679443359375;-171.4071502685547;13.250486373901367;-2.17022705078125;-1.393524169921875;-9.282974243164062
1445426077605;200.705322265625;-171.340576171875;13.269129753112793;-1.9544830322265625;-1.275848388671875;-9.086837768554688
1445426077640;200.34228515625;-171.27125549316406;13.272811889648438;-1.915252685546875;-1.3739013671875;-9.14569091796875
1445426077671;199.862060546875;-170.95555114746094;13.353987693786621;-2.05255126953125;-1.3739013671875;-9.106460571289062
1445426077704;199.43096923828125;-170.4736328125;13.562108039855957;-1.974090576171875;-1.1777801513671875;-8.792648315429688
1445426077737;199.220458984375;-170.15780639648438;13.77072811126709;-2.0721588134765625;-1.4131317138671875;-9.224136352539062
1445426077769;198.97528076171875;-169.3543701171875;14.1664400100708;-2.032928466796875;-1.393524169921875;-9.14569091796875
1445426077803;198.95220947265625;-168.40817260742188;14.69228458404541;-1.8760223388671875;-2.00152587890625;-9.38104248046875
1445426077836;199.030517578125;-167.8134002685547;14.857843399047852;-2.5232696533203125;-2.4330291748046875;-9.7733154296875
1445426077869;199.70404052734375;-166.59959411621094;15.221236228942871;-2.7978515625;-2.9429779052734375;-9.047622680664062
1445426077902;200.437255859375;-165.52816772460938;15.4271879196167;-2.621337890625;-2.5703125;-9.224136352539062
1445426077934;200.76171875;-165.0693359375;15.507736206054688;-2.2682952880859375;-2.78607177734375;-9.067230224609375
1445426077967;201.608642578125;-164.5699920654297;15.41221809387207;-2.856689453125;-3.0018157958984375;-8.596511840820312
1445426078002;202.59185791015625;-164.22328186035156;15.245739936828613;-2.856689453125;-2.90374755859375;-8.498443603515625
1445426078033;203.0450439453125;-164.01663208007812;15.184321403503418;-2.8370819091796875;-2.9233551025390625;-8.655349731445312
1445426078067;203.7967529296875;-163.53604125976562;15.208073616027832;-2.856689453125;-2.8056793212890625;-8.6357421875
1445426078100;204.0841064453125;-163.32435607910156;15.276305198669434;-2.8959197998046875;-2.84490966796875;-8.812255859375
1445426078132;204.512939453125;-162.86927795410156;15.456794738769531;-2.9547576904296875;-2.6880035400390625;-8.714187622070312
1445426078166;204.6495361328125;-162.42523193359375;15.850790023803711;-2.6997833251953125;-2.8056793212890625;-8.969161987304688
1445426078199;204.6566162109375;-162.1870880126953;16.015125274658203;-3.052825927734375;-3.0018157958984375;-9.047622680664062
1445426078232;204.5938720703125;-161.71250915527344;16.33527183532715;-2.993988037109375;-2.96258544921875;-8.773025512695312
1445426078265;204.4927978515625;-161.43914794921875;16.674352645874023;-2.6997833251953125;-3.2371673583984375;-8.75341796875
1445426078299;204.4486083984375;-161.2928924560547;16.7857723236084;-2.6409454345703125;-3.2960052490234375;-8.773025512695312
1445426078331;204.3642578125;-160.946533203125;16.887895584106445;-2.6997833251953125;-3.2960052490234375;-8.655349731445312
1445426078363;204.379638671875;-160.7991943359375;16.911624908447266;-2.68017578125;-3.3744659423828125;-8.714187622070312
1445426078397;204.4898681640625;-160.5151824951172;16.940532684326172;-2.6997833251953125;-3.2960052490234375;-8.674972534179688
1445426078430;204.6868896484375;-160.24832153320312;16.806089401245117;-2.7782440185546875;-3.2960052490234375;-8.616119384765625
1445426078463;204.852294921875;-160.12252807617188;16.751108169555664;-3.111663818359375;-3.7667236328125;-8.498443603515625
1445426078496;205.51690673828125;-159.77682495117188;16.83248519897461;-3.052825927734375;-3.4333038330078125;-9.224136352539062
1445426078529;206.031494140625;-159.61106872558594;16.736286163330078;-3.4058685302734375;-3.0018157958984375;-8.773025512695312
1445426078562;206.25360107421875;-159.69354248046875;16.820171356201172;-3.170501708984375;-2.7468414306640625;-8.674972534179688
1445426078595;206.37396240234375;-159.77232360839844;16.522296905517578;-2.739013671875;-3.13909912109375;-8.596511840820312
1445426078627;206.57354736328125;-159.62933349609375;16.188997268676758;-2.993988037109375;-3.4725341796875;-8.773025512695312
1445426078661;206.7451171875;-159.4539337158203;16.196203231811523;-2.974365234375;-3.5117645263671875;-8.831878662109375
1445426078693;206.966796875;-159.23504638671875;16.188282012939453;-2.8762969970703125;-3.276397705078125;-8.537673950195312
1445426078727;207.0050048828125;-159.21641540527344;16.16634178161621;-3.0135955810546875;-3.4136962890625;-8.969161987304688
1445426078760;206.99395751953125;-159.24057006835938;16.25494384765625;-2.974365234375;-3.335235595703125;-8.75341796875
1445426078793;206.93756103515625;-159.3446502685547;16.482595443725586;-2.974365234375;-3.2371673583984375;-8.576904296875
1445426078826;206.92425537109375;-159.41343688964844;16.649038314819336;-2.9547576904296875;-3.217559814453125;-8.674972534179688
1445426078865;206.853515625;-159.62728881835938;16.82369041442871;-2.621337890625;-3.394073486328125;-8.812255859375
1445426078892;206.7564697265625;-159.7739715576172;16.772249221801758;-2.6409454345703125;-3.13909912109375;-8.498443603515625
1445426078924;206.72930908203125;-159.84405517578125;16.805017471313477;-2.5624847412109375;-3.217559814453125;-8.459213256835938
1445426078958;206.579833984375;-159.91610717773438;16.840036392211914;-2.6997833251953125;-3.19793701171875;-8.498443603515625
1445426078992;206.39935302734375;-160.04502868652344;16.9840087890625;-2.5624847412109375;-2.90374755859375;-8.380767822265625
1445426079024;206.24420166015625;-160.1432647705078;17.04391860961914;-2.5232696533203125;-2.9429779052734375;-8.400375366210938
1445426079058;205.90631103515625;-160.17599487304688;17.10660743713379;-2.719390869140625;-3.3156280517578125;-8.655349731445312
1445426079093;205.7542724609375;-160.04005432128906;17.477001190185547;-2.7586212158203125;-3.19793701171875;-8.36114501953125
1445426079126;205.66064453125;-159.94168090820312;17.703346252441406;-2.484039306640625;-3.217559814453125;-8.576904296875
1445426079156;205.4617919921875;-159.53631591796875;17.81804847717285;-2.7586212158203125;-3.6490478515625;-8.87109375
1445426079192;205.46319580078125;-159.19921875;17.701541900634766;-2.601715087890625;-3.3744659423828125;-8.223861694335938
1445426079222;205.5728759765625;-159.03956604003906;17.503311157226562;-2.68017578125;-3.2960052490234375;-8.12579345703125
1445426079255;205.97802734375;-158.6438446044922;17.106525421142578;-3.0920562744140625;-3.5313720703125;-8.929931640625
1445426079294;206.7061767578125;-158.40138244628906;16.976238250732422;-3.42547607421875;-3.3744659423828125;-8.812255859375
1445426079320;207.03466796875;-158.37538146972656;17.08014488220215;-3.24896240234375;-3.1783294677734375;-8.812255859375
1445426079353;207.2437744140625;-158.3099365234375;16.955570220947266;-2.974365234375;-3.3744659423828125;-8.694580078125
1445426079387;207.36181640625;-158.26080322265625;16.884218215942383;-2.974365234375;-3.3744659423828125;-8.655349731445312
1445426079420;207.533203125;-158.24630737304688;16.806421279907227;-2.9547576904296875;-3.3548583984375;-8.674972534179688
1445426079453;207.5439453125;-158.29808044433594;16.79360008239746;-2.739013671875;-3.394073486328125;-8.655349731445312
1445426079485;207.4871826171875;-158.33644104003906;16.73488998413086;-2.7782440185546875;-3.727508544921875;-8.478836059570312
1445426079518;207.565673828125;-158.2626190185547;16.7431697845459;-2.719390869140625;-3.2960052490234375;-8.478836059570312
1445426079552;207.61102294921875;-158.2347869873047;16.76559829711914;-3.1508941650390625;-3.5902099609375;-9.027999877929688
1445426079585;207.6474609375;-158.2705535888672;16.802404403686523;-3.0920562744140625;-3.3548583984375;-8.773025512695312
1445426079618;207.7655029296875;-158.36280822753906;16.88960075378418;-2.8762969970703125;-3.217559814453125;-8.616119384765625
1445426079651;207.81365966796875;-158.40621948242188;16.81052017211914;-2.7782440185546875;-3.3156280517578125;-8.459213256835938
1445426079684;207.99468994140625;-158.36053466796875;16.512666702270508;-2.91552734375;-3.4333038330078125;-8.890716552734375
1445426079716;208.17352294921875;-158.260498046875;16.287044525146484;-2.935150146484375;-3.3156280517578125;-8.812255859375
1445426079751;208.2353515625;-158.2430419921875;16.21694564819336;-2.8762969970703125;-3.19793701171875;-8.6357421875
1445426079782;208.27197265625;-158.21365356445312;16.169692993164062;-2.739013671875;-3.3156280517578125;-8.51806640625
1445426079816;208.244384765625;-158.14027404785156;15.997586250305176;-2.660552978515625;-3.4725341796875;-8.694580078125
1445426079851;208.21148681640625;-158.0818328857422;15.862019538879395;-2.5232696533203125;-3.452911376953125;-8.51806640625
1445426079882;208.0804443359375;-158.01112365722656;15.651596069335938;-2.307525634765625;-3.6882781982421875;-8.616119384765625
1445426079915;207.87127685546875;-157.90225219726562;15.436604499816895;-2.40557861328125;-3.6882781982421875;-8.51806640625
1445426079948;207.74346923828125;-157.86819458007812;15.355997085571289;-2.621337890625;-3.7471160888671875;-8.576904296875
1445426079981;207.56243896484375;-157.7289276123047;15.42398738861084;-2.307525634765625;-3.8844146728515625;-8.51806640625
1445426080014;207.310302734375;-157.55421447753906;15.352534294128418;-2.1309967041015625;-3.7078857421875;-8.498443603515625
1445426080048;207.1837158203125;-157.4886016845703;15.239557266235352;-2.1898345947265625;-3.5902099609375;-8.439605712890625
1445426080080;207.11676025390625;-157.38864135742188;15.02471923828125;-2.40557861328125;-3.8255767822265625;-8.694580078125
1445426080114;207.1644287109375;-157.3232879638672;14.886371612548828;-2.601715087890625;-3.4921417236328125;-8.616119384765625
1445426080146;207.2911376953125;-157.3061065673828;14.689854621887207;-2.5821075439453125;-3.4333038330078125;-8.674972534179688
1445426080179;207.30908203125;-157.34552001953125;14.608535766601562;-2.484039306640625;-3.5509796142578125;-8.596511840820312
1445426080212;207.3369140625;-157.33349609375;14.587139129638672;-2.4448089599609375;-3.4136962890625;-8.537673950195312
1445426080245;207.4635009765625;-157.33914184570312;14.562508583068848;-2.40557861328125;-3.5706024169921875;-8.596511840820312
1445426080277;207.6566162109375;-157.30441284179688;14.344086647033691;-2.601715087890625;-3.6294403076171875;-8.792648315429688
1445426080310;207.8028564453125;-157.31015014648438;14.24543285369873;-2.542877197265625;-3.5902099609375;-8.596511840820312
1445426080344;208.13763427734375;-157.35008239746094;14.05195140838623;-2.425201416015625;-3.6294403076171875;-8.694580078125
1445426080376;208.39871215820312;-157.31558227539062;13.897176742553711;-2.2094573974609375;-3.668670654296875;-8.51806640625
1445426080409;208.51580810546875;-157.26222229003906;13.800556182861328;-2.2094573974609375;-3.6098175048828125;-8.478836059570312
1445426080443;208.73297119140625;-157.11383056640625;13.688630104064941;-2.11138916015625;-3.6098175048828125;-8.6357421875
1445426080476;208.77606201171875;-157.03390502929688;13.650540351867676;-2.091766357421875;-3.668670654296875;-8.655349731445312
1445426080509;208.83331298828125;-156.82781982421875;13.630435943603516;-2.1309967041015625;-3.727508544921875;-8.812255859375
1445426080541;208.77694702148438;-156.67140197753906;13.743111610412598;-2.2486724853515625;-3.7471160888671875;-8.714187622070312
1445426080575;208.75216674804688;-156.6412353515625;13.90152645111084;-2.150604248046875;-3.7471160888671875;-8.6357421875
1445426080611;208.7501220703125;-156.57525634765625;14.339818954467773;-2.3271331787109375;-3.7667236328125;-8.596511840820312
1445426080640;208.8148193359375;-156.5704345703125;14.79075813293457;-2.935150146484375;-3.2960052490234375;-8.459213256835938
1445426080674;208.856201171875;-156.62362670898438;15.147141456604004;-3.0920562744140625;-3.7078857421875;-8.910324096679688
1445426080708;208.64993286132812;-156.63223266601562;15.594351768493652;-2.28790283203125;-4.10015869140625;-8.419998168945312
1445426080741;208.27139282226562;-156.61085510253906;15.572258949279785;-2.660552978515625;-4.15899658203125;-8.773025512695312
1445426080773;208.14788818359375;-156.61903381347656;15.639622688293457;-2.5232696533203125;-3.98248291015625;-8.714187622070312
1445426080805;207.839599609375;-156.803466796875;15.599013328552246;-2.739013671875;-4.1197662353515625;-9.008392333984375
1445426080839;207.7584228515625;-157.00035095214844;15.630077362060547;-2.91552734375;-4.21783447265625;-8.87109375
1445426080871;207.74847412109375;-157.57191467285156;15.716399192810059;-2.935150146484375;-3.727508544921875;-9.008392333984375
1445426080904;207.6226806640625;-158.60629272460938;15.73149585723877;-3.2097320556640625;-3.7667236328125;-9.302597045898438
1445426080937;207.5546875;-159.26673889160156;15.719368934631348;-3.2097320556640625;-3.668670654296875;-9.518341064453125
1445426080970;207.342529296875;-160.80271911621094;15.614686012268066;-3.111663818359375;-2.9429779052734375;-9.243743896484375
1445426081004;206.67706298828125;-162.7200164794922;15.308065414428711;-3.1312713623046875;-2.7468414306640625;-9.26336669921875
1445426081036;206.294921875;-163.71815490722656;15.222153663635254;-3.4450836181640625;-2.589935302734375;-9.184906005859375
1445426081069;205.341796875;-165.61334228515625;15.12285327911377;-2.660552978515625;-1.511199951171875;-9.184906005859375
1445426081103;204.26507568359375;-167.60757446289062;14.09665298461914;-2.7782440185546875;-1.393524169921875;-9.027999877929688
1445426081136;203.7325439453125;-168.63092041015625;13.536116600036621;-2.542877197265625;-1.275848388671875;-9.106460571289062
1445426081169;202.6099853515625;-170.4249267578125;12.496136665344238;-2.1898345947265625;-1.0404815673828125;-8.812255859375
1445426081202;202.0491943359375;-171.2161102294922;12.019194602966309;-1.5622100830078125;-0.80511474609375;-8.537673950195312
1445426081235;200.97869873046875;-172.46360778808594;11.372681617736816;-1.3268585205078125;-0.883575439453125;-8.87109375
1445426081268;200.1263427734375;-173.2884063720703;10.611587524414062;-1.3268585205078125;-0.707061767578125;-8.890716552734375
1445426081300;199.63604736328125;-173.56906127929688;10.426193237304688;-0.8757476806640625;-0.51092529296875;-8.655349731445312
1445426081334;198.6788330078125;-173.69735717773438;10.419331550598145;-0.287353515625;-0.432464599609375;-8.263092041015625
1445426081367;198.22210693359375;-173.17991638183594;10.716859817504883;-0.85614013671875;-0.5893707275390625;-8.498443603515625
1445426081400;198.07904052734375;-172.763427734375;11.025941848754883;-0.954193115234375;-0.80511474609375;-8.792648315429688
1445426081432;197.91973876953125;-171.7675018310547;11.669682502746582;-1.3072357177734375;-0.7266693115234375;-9.14569091796875
1445426081466;198.0260009765625;-171.20606994628906;11.958279609680176;-1.405303955078125;-0.9816436767578125;-9.26336669921875
1445426081499;198.48333740234375;-169.8887481689453;12.37839412689209;-1.4249267578125;-1.275848388671875;-9.341812133789062
1445426081532;199.016845703125;-168.57298278808594;12.59074878692627;-1.7583465576171875;-2.1584320068359375;-10.538223266601562
1445426081564;199.42266845703125;-168.00514221191406;12.53173828125;-1.9348602294921875;-2.0995941162109375;-9.341812133789062
1445426081598;200.0728759765625;-167.40122985839844;12.20215129852295;-1.7191162109375;-1.9230804443359375;-8.655349731445312
1445426081631;200.84521484375;-166.51876831054688;12.184391975402832;-1.797576904296875;-2.1780548095703125;-9.14569091796875
1445426081663;201.31298828125;-165.96632385253906;12.122234344482422;-1.915252685546875;-2.6880035400390625;-9.341812133789062
1445426081698;202.49365234375;-165.01202392578125;11.896415710449219;-1.7779541015625;-2.7468414306640625;-8.949554443359375
1445426081730;203.95050048828125;-164.11988830566406;11.569112777709961;-1.287628173828125;-3.276397705078125;-9.106460571289062
1445426081765;204.755126953125;-163.6498260498047;11.354777336120605;-1.3856964111328125;-3.4333038330078125;-9.302597045898438
1445426081796;206.30645751953125;-162.93374633789062;10.907472610473633;-1.8760223388671875;-3.2960052490234375;-9.361434936523438
1445426081829;206.97100830078125;-162.68887329101562;10.722878456115723;-1.856414794921875;-3.276397705078125;-8.910324096679688
1445426081862;208.21417236328125;-162.27381896972656;10.333802223205566;-1.7583465576171875;-3.2567901611328125;-9.047622680664062
1445426081894;209.26840209960938;-162.05514526367188;9.896743774414062;-1.974090576171875;-2.84490966796875;-9.243743896484375
1445426081928;209.60333251953125;-162.05091857910156;9.751919746398926;-2.2094573974609375;-2.589935302734375;-9.14569091796875
1445426081961;210.041259765625;-162.0945281982422;9.644614219665527;-2.150604248046875;-2.589935302734375;-9.184906005859375
1445426082000;210.368408203125;-162.10934448242188;9.52391242980957;-1.797576904296875;-2.6683807373046875;-9.20452880859375
1445426082026;210.4976806640625;-162.1396026611328;9.451997756958008;-1.6995086669921875;-2.825286865234375;-9.106460571289062
1445426082068;210.64144897460938;-162.1568145751953;9.465250968933105;-1.6602783203125;-2.96258544921875;-9.126068115234375
1445426082093;210.7655029296875;-162.13294982910156;9.54849624633789;-1.6995086669921875;-2.9429779052734375;-9.106460571289062
1445426082135;210.904296875;-162.29977416992188;9.510171890258789;-1.5818328857421875;-2.8056793212890625;-9.086837768554688
1445426082168;210.96929931640625;-162.43043518066406;9.439654350280762;-1.464141845703125;-2.6880035400390625;-9.126068115234375
1445426082192;210.918212890625;-162.73036193847656;9.230573654174805;-1.346466064453125;-2.6095428466796875;-9.047622680664062
1445426082235;210.7718505859375;-162.91436767578125;9.183991432189941;-1.3072357177734375;-2.6291656494140625;-8.910324096679688
1445426082258;210.72406005859375;-162.89407348632812;9.22456169128418;-1.287628173828125;-2.8056793212890625;-8.988784790039062
1445426082295;210.63571166992188;-162.8014678955078;9.376178741455078;-1.3268585205078125;-2.90374755859375;-8.969161987304688
1445426082344;210.571044921875;-162.79832458496094;9.596027374267578;-1.3660736083984375;-2.884124755859375;-8.949554443359375
1445426082377;210.48394775390625;-162.8921661376953;9.811284065246582;-1.4249267578125;-2.9233551025390625;-9.165298461914062
1445426082405;210.47625732421875;-162.92520141601562;9.909122467041016;-1.522979736328125;-2.96258544921875;-9.165298461914062
1445426082423;210.459716796875;-162.97344970703125;9.984541893005371;-1.5033721923828125;-2.9821929931640625;-9.165298461914062
1445426082455;210.43658447265625;-163.10842895507812;10.10407543182373;-1.5426025390625;-2.9821929931640625;-9.086837768554688
1445426082494;210.59130859375;-163.3488006591797;10.246421813964844;-1.8367919921875;-2.7468414306640625;-9.165298461914062
1445426082522;210.74673461914062;-163.48927307128906;10.334268569946289;-1.974090576171875;-2.6880035400390625;-9.184906005859375
1445426082581;211.4093017578125;-163.888916015625;10.503070831298828;-2.0721588134765625;-2.4134063720703125;-9.243743896484375
1445426082591;211.4093017578125;-163.888916015625;10.503070831298828;-1.9348602294921875;-2.3349609375;-9.184906005859375
1445426082621;211.870361328125;-164.02366638183594;10.401569366455078;-1.856414794921875;-2.3153533935546875;-9.086837768554688
1445426082653;212.03717041015625;-164.0688934326172;10.33607292175293;-1.5818328857421875;-2.256500244140625;-9.086837768554688
1445426082686;212.16143798828125;-164.1389617919922;10.190665245056152;-1.5622100830078125;-2.276123046875;-9.027999877929688
1445426082720;212.20050048828125;-164.14024353027344;10.221631050109863;-1.6406707763671875;-2.472259521484375;-9.067230224609375
1445426082752;212.19287109375;-164.12432861328125;10.275410652160645;-1.7191162109375;-2.6291656494140625;-9.106460571289062
1445426082785;212.20355224609375;-164.11544799804688;10.442571640014648;-1.797576904296875;-2.648773193359375;-9.126068115234375
1445426082819;212.11672973632812;-164.2012176513672;10.587059020996094;-1.7779541015625;-2.531097412109375;-9.106460571289062
1445426082852;212.0577392578125;-164.25860595703125;10.635651588439941;-1.7583465576171875;-2.531097412109375;-9.14569091796875
1445426082885;211.9674072265625;-164.40090942382812;10.73238468170166;-1.856414794921875;-2.4330291748046875;-9.165298461914062
1445426082917;211.9180908203125;-164.50436401367188;10.798321723937988;-1.856414794921875;-2.4330291748046875;-9.165298461914062
1445426082952;211.89224243164062;-164.55136108398438;10.81555461883545;-1.856414794921875;-2.393798828125;-9.165298461914062
1445426082984;211.8677978515625;-164.6246337890625;10.858832359313965;-1.8956451416015625;-2.3741912841796875;-9.20452880859375
1445426083016;211.88433837890625;-164.6274871826172;10.871172904968262;-1.8367919921875;-2.4918670654296875;-9.106460571289062
1445426083049;211.8857421875;-164.61483764648438;10.846986770629883;-1.7583465576171875;-2.472259521484375;-9.106460571289062
1445426083083;211.86276245117188;-164.6193084716797;10.812887191772461;-1.7583465576171875;-2.5507049560546875;-9.106460571289062
1445426083116;211.83779907226562;-164.607421875;10.785414695739746;-1.6602783203125;-2.5507049560546875;-9.086837768554688
1445426083149;211.72271728515625;-164.5920867919922;10.744100570678711;-1.6406707763671875;-2.531097412109375;-9.106460571289062
1445426083182;211.597900390625;-164.56277465820312;10.737415313720703;-1.6602783203125;-2.6291656494140625;-9.086837768554688
1445426083217;211.5379638671875;-164.55625915527344;10.733925819396973;-1.6602783203125;-2.5703125;-9.086837768554688
1445426083248;211.47793579101562;-164.5651092529297;10.72602653503418;-1.738739013671875;-2.511474609375;-9.106460571289062
1445426083281;211.4649658203125;-164.63619995117188;10.736289024353027;-1.856414794921875;-2.3545684814453125;-9.067230224609375
1445426083317;211.4561767578125;-164.665283203125;10.735403060913086;-1.7583465576171875;-2.4134063720703125;-9.106460571289062
1445426083348;211.49874877929688;-164.6768035888672;10.757122039794922;-1.856414794921875;-2.472259521484375;-9.184906005859375
1445426083380;211.57196044921875;-164.64715576171875;10.774517059326172;-1.856414794921875;-2.4918670654296875;-9.086837768554688
1445426083413;211.5909423828125;-164.64340209960938;10.787253379821777;-1.8367919921875;-2.472259521484375;-9.126068115234375
1445426083446;211.701904296875;-164.57894897460938;10.829615592956543;-1.8760223388671875;-2.589935302734375;-9.106460571289062
1445426083478;211.73736572265625;-164.5598602294922;10.840977668762207;-1.8367919921875;-2.5703125;-9.126068115234375
1445426083512;211.72698974609375;-164.5681915283203;10.83167839050293;-1.738739013671875;-2.5507049560546875;-9.165298461914062
1445426083544;211.6640625;-164.61497497558594;10.798856735229492;-1.738739013671875;-2.45263671875;-9.14569091796875
1445426083579;211.60015869140625;-164.65060424804688;10.777441024780273;-1.738739013671875;-2.4134063720703125;-9.14569091796875
1445426083610;211.57293701171875;-164.69122314453125;10.783763885498047;-1.797576904296875;-2.45263671875;-9.086837768554688
1445426083644;211.51974487304688;-164.71640014648438;10.78300952911377;-1.7779541015625;-2.4134063720703125;-9.14569091796875
1445426083677;211.49993896484375;-164.7254638671875;10.77766227722168;-1.7583465576171875;-2.4134063720703125;-9.20452880859375
1445426083710;211.49298095703125;-164.71730041503906;10.767688751220703;-1.8171844482421875;-2.45263671875;-9.126068115234375
1445426083743;211.47833251953125;-164.7127685546875;10.75572681427002;-1.7779541015625;-2.4918670654296875;-9.086837768554688
1445426083783;211.47509765625;-164.6927490234375;10.700541496276855;-1.7583465576171875;-2.4134063720703125;-9.165298461914062
1445426083809;211.37579345703125;-164.71755981445312;10.659066200256348;-1.7583465576171875;-2.45263671875;-9.165298461914062
1445426083842;211.345703125;-164.71397399902344;10.638616561889648;-1.7779541015625;-2.45263671875;-9.20452880859375
1445426083876;211.2728271484375;-164.74339294433594;10.616111755371094;-1.7779541015625;-2.4134063720703125;-9.20452880859375
1445426083907;211.2899169921875;-164.7395782470703;10.623577117919922;-1.7779541015625;-2.4918670654296875;-9.106460571289062
1445426083941;211.29815673828125;-164.7325439453125;10.623478889465332;-1.738739013671875;-2.5507049560546875;-9.165298461914062
1445426083974;211.35321044921875;-164.68873596191406;10.625205993652344;-1.7191162109375;-2.511474609375;-9.126068115234375
1445426084009;211.37457275390625;-164.6430206298828;10.605497360229492;-1.6602783203125;-2.5703125;-9.067230224609375
1445426084041;211.375;-164.6303253173828;10.596752166748047;-1.6798858642578125;-2.5703125;-9.047622680664062
1445426084078;211.41192626953125;-164.58131408691406;10.583873748779297;-1.6995086669921875;-2.6291656494140625;-9.008392333984375
1445426084108;211.38189697265625;-164.58563232421875;10.569172859191895;-1.6995086669921875;-2.531097412109375;-9.165298461914062
1445426084140;211.38290405273438;-164.5963592529297;10.577359199523926;-1.7779541015625;-2.531097412109375;-9.184906005859375
1445426084172;211.39096069335938;-164.62677001953125;10.583584785461426;-1.797576904296875;-2.472259521484375;-9.106460571289062
1445426084205;211.388671875;-164.66908264160156;10.595000267028809;-1.738739013671875;-2.3741912841796875;-9.184906005859375
1445426084238;211.41119384765625;-164.66574096679688;10.605988502502441;-1.7779541015625;-2.4918670654296875;-9.14569091796875
1445426084271;211.509765625;-164.6564178466797;10.657878875732422;-1.797576904296875;-2.511474609375;-9.14569091796875
1445426084303;211.4910888671875;-164.63880920410156;10.671531677246094;-1.7779541015625;-2.5507049560546875;-9.224136352539062
1445426084337;211.49258422851562;-164.6165313720703;10.686996459960938;-1.8171844482421875;-2.589935302734375;-9.086837768554688
1445426084370;211.45416259765625;-164.63902282714844;10.668817520141602;-1.738739013671875;-2.472259521484375;-9.184906005859375
1445426084404;211.44259643554688;-164.66343688964844;10.655330657958984;-1.7779541015625;-2.4330291748046875;-9.224136352539062
1445426084436;211.43084716796875;-164.72311401367188;10.630263328552246;-1.7779541015625;-2.4134063720703125;-9.184906005859375
1445426084469;211.4510498046875;-164.75144958496094;10.651664733886719;-1.8956451416015625;-2.4330291748046875;-9.302597045898438
1445426084504;211.49032592773438;-164.76039123535156;10.680261611938477;-1.915252685546875;-2.45263671875;-9.184906005859375
1445426084534;211.537109375;-164.7531280517578;10.700675964355469;-1.856414794921875;-2.45263671875;-9.184906005859375
1445426084567;211.5863037109375;-164.7351531982422;10.717206001281738;-1.856414794921875;-2.511474609375;-9.165298461914062
1445426084600;211.65142822265625;-164.71646118164062;10.742728233337402;-1.856414794921875;-2.511474609375;-9.224136352539062
1445426084633;211.6690673828125;-164.69993591308594;10.741424560546875;-1.7583465576171875;-2.4918670654296875;-9.126068115234375
1445426084668;211.6551513671875;-164.68438720703125;10.721949577331543;-1.7191162109375;-2.5507049560546875;-9.14569091796875
1445426084699;211.63714599609375;-164.64820861816406;10.685318946838379;-1.7191162109375;-2.5703125;-9.126068115234375
1445426084732;211.59613037109375;-164.6227569580078;10.642735481262207;-1.738739013671875;-2.531097412109375;-9.047622680664062
1445426084773;211.60382080078125;-164.59930419921875;10.63054084777832;-1.7779541015625;-2.5703125;-9.106460571289062
1445426084813;211.6217041015625;-164.5917510986328;10.635763168334961;-1.8367919921875;-2.4918670654296875;-9.14569091796875
1445426084831;211.62835693359375;-164.5919189453125;10.63980484008789;-1.8171844482421875;-2.511474609375;-9.184906005859375
1445426084864;211.62948608398438;-164.5934295654297;10.641571998596191;-1.7779541015625;-2.4918670654296875;-9.14569091796875
1445426084898;211.677490234375;-164.57199096679688;10.654716491699219;-1.797576904296875;-2.511474609375;-9.184906005859375
1445426084930;211.70513916015625;-164.5713653564453;10.670686721801758;-1.738739013671875;-2.3545684814453125;-9.008392333984375
1445426084965;211.72821044921875;-164.56060791015625;10.710908889770508;-1.797576904296875;-2.393798828125;-8.890716552734375
1445426084998;211.81884765625;-164.4360809326172;10.857029914855957;-1.8367919921875;-2.4918670654296875;-9.14569091796875
1445426085030;211.8858642578125;-164.30165100097656;10.91917610168457;-1.797576904296875;-2.648773193359375;-9.067230224609375
1445426085065;211.98736572265625;-164.08384704589844;10.988428115844727;-1.7779541015625;-2.6291656494140625;-9.086837768554688
1445426085098;212.09664916992188;-163.874755859375;11.145931243896484;-1.8956451416015625;-2.7272186279296875;-9.20452880859375
1445426085129;212.14013671875;-163.7510223388672;11.20433235168457;-1.8956451416015625;-2.7468414306640625;-9.184906005859375
1445426085162;212.21240234375;-163.59474182128906;11.335458755493164;-1.9936981201171875;-2.7468414306640625;-9.067230224609375
1445426085194;212.20654296875;-163.50851440429688;11.416726112365723;-1.915252685546875;-2.7272186279296875;-9.008392333984375
1445426085228;212.1754150390625;-163.48428344726562;11.436684608459473;-1.8760223388671875;-2.707611083984375;-9.106460571289062
1445426085261;212.19366455078125;-163.3979034423828;11.493321418762207;-1.9348602294921875;-2.8056793212890625;-9.126068115234375
1445426085294;212.2333984375;-163.3242645263672;11.475889205932617;-1.9544830322265625;-2.84490966796875;-9.14569091796875
1445426085327;212.23187255859375;-163.33145141601562;11.424208641052246;-1.915252685546875;-2.884124755859375;-9.243743896484375
1445426085359;212.1790771484375;-163.48080444335938;11.264840126037598;-1.8171844482421875;-2.707611083984375;-9.086837768554688
1445426085393;212.1453857421875;-163.6085662841797;11.162875175476074;-1.797576904296875;-2.5703125;-8.831878662109375
1445426085426;212.13980102539062;-163.85794067382812;11.018187522888184;-1.738739013671875;-2.511474609375;-8.831878662109375
1445426085459;212.21829223632812;-163.8975067138672;10.964500427246094;-1.7779541015625;-2.6683807373046875;-9.086837768554688
1445426085493;212.23312377929688;-163.87843322753906;10.939689636230469;-1.7583465576171875;-2.5703125;-9.027999877929688
1445426085525;212.186767578125;-163.91162109375;10.925788879394531;-1.7583465576171875;-2.531097412109375;-9.047622680664062
1445426085558;212.11248779296875;-163.98863220214844;10.93797779083252;-1.8956451416015625;-2.511474609375;-9.14569091796875
1445426085591;212.1417236328125;-164.00454711914062;10.988557815551758;-2.0133209228515625;-2.531097412109375;-9.126068115234375
1445426085626;212.18405151367188;-163.99990844726562;11.096299171447754;-2.0133209228515625;-2.589935302734375;-9.086837768554688
1445426085657;212.20465087890625;-163.97994995117188;11.164636611938477;-1.9544830322265625;-2.6683807373046875;-9.106460571289062
1445426085691;212.17279052734375;-163.97337341308594;11.175111770629883;-1.8367919921875;-2.648773193359375;-9.106460571289062
1445426085722;212.15167236328125;-163.93385314941406;11.156444549560547;-1.7779541015625;-2.7468414306640625;-9.067230224609375
1445426085759;212.12109375;-163.94248962402344;11.07103157043457;-1.738739013671875;-2.7272186279296875;-9.086837768554688
1445426085791;212.11697387695312;-163.98178100585938;11.028669357299805;-1.7583465576171875;-2.6880035400390625;-9.126068115234375
1445426085824;212.16455078125;-164.0352020263672;10.95206069946289;-1.7779541015625;-2.707611083984375;-9.106460571289062
1445426085855;212.18731689453125;-164.06747436523438;10.934667587280273;-1.797576904296875;-2.6880035400390625;-9.126068115234375
1445426085887;212.2203369140625;-164.13253784179688;10.96187973022461;-1.856414794921875;-2.589935302734375;-9.086837768554688
1445426085921;212.18893432617188;-164.2512664794922;11.008545875549316;-1.8956451416015625;-2.472259521484375;-9.165298461914062
1445426085954;212.1796875;-164.3197479248047;11.027321815490723;-1.8956451416015625;-2.45263671875;-9.14569091796875
1445426085987;212.16390991210938;-164.4779815673828;11.063551902770996;-1.7583465576171875;-2.4134063720703125;-9.047622680664062
1445426086021;212.23175048828125;-164.57455444335938;11.062402725219727;-1.7779541015625;-2.4330291748046875;-9.106460571289062
1445426086054;212.26858520507812;-164.623779296875;11.0603609085083;-1.856414794921875;-2.393798828125;-9.126068115234375
1445426086085;212.31610107421875;-164.72052001953125;11.023259162902832;-1.8760223388671875;-2.4134063720703125;-9.165298461914062
1445426086118;212.31927490234375;-164.8149871826172;11.01488971710205;-1.8760223388671875;-2.3545684814453125;-9.086837768554688
1445426086151;212.30169677734375;-164.859619140625;11.030599594116211;-1.8367919921875;-2.3153533935546875;-9.106460571289062
1445426086185;212.18411254882812;-164.95901489257812;11.074662208557129;-1.7779541015625;-2.3349609375;-9.20452880859375
1445426086218;212.11627197265625;-164.9878692626953;11.089940071105957;-1.797576904296875;-2.4134063720703125;-9.243743896484375
1445426086251;211.9951171875;-164.99391174316406;11.109894752502441;-1.7583465576171875;-2.4134063720703125;-9.14569091796875
1445426086284;211.917236328125;-164.9938201904297;11.139594078063965;-1.856414794921875;-2.5507049560546875;-9.126068115234375
1445426086318;211.93609619140625;-164.9581298828125;11.152873039245605;-1.8760223388671875;-2.511474609375;-9.184906005859375
1445426086349;211.9600830078125;-164.9122772216797;11.177640914916992;-1.8760223388671875;-2.511474609375;-9.106460571289062
1445426086383;211.995849609375;-164.8784942626953;11.183484077453613;-1.8760223388671875;-2.4330291748046875;-9.184906005859375
1445426086418;212.01031494140625;-164.8653564453125;11.180415153503418;-1.856414794921875;-2.45263671875;-9.243743896484375
1445426086448;212.03677368164062;-164.8386993408203;11.175955772399902;-1.738739013671875;-2.511474609375;-9.126068115234375
1445426086482;212.0155029296875;-164.78411865234375;11.149957656860352;-1.915252685546875;-2.3741912841796875;-9.14569091796875
1445426086515;212.03414916992188;-164.78382873535156;11.160861015319824;-1.9544830322265625;-2.45263671875;-9.008392333984375
1445426086548;212.21319580078125;-164.752685546875;11.244940757751465;-1.9348602294921875;-2.511474609375;-9.165298461914062
1445426086581;212.21969604492188;-164.71044921875;11.284584045410156;-1.915252685546875;-2.511474609375;-9.184906005859375
1445426086614;212.19952392578125;-164.64498901367188;11.333640098571777;-1.8956451416015625;-2.589935302734375;-9.086837768554688
1445426086646;212.26638793945312;-164.57498168945312;11.369190216064453;-1.974090576171875;-2.589935302734375;-9.184906005859375
1445426086680;212.30609130859375;-164.55245971679688;11.373697280883789;-1.974090576171875;-2.5703125;-9.184906005859375
1445426086713;212.38201904296875;-164.54190063476562;11.35827350616455;-1.8956451416015625;-2.531097412109375;-9.067230224609375
1445426086747;212.36907958984375;-164.58041381835938;11.314671516418457;-1.856414794921875;-2.4330291748046875;-9.184906005859375
1445426086779;212.3428955078125;-164.61141967773438;11.291497230529785;-1.8956451416015625;-2.472259521484375;-9.20452880859375
1445426086812;212.2857666015625;-164.6368865966797;11.28266429901123;-1.8171844482421875;-2.4918670654296875;-9.184906005859375
1445426086844;212.2030029296875;-164.6654052734375;11.28097152709961;-1.9348602294921875;-2.472259521484375;-9.106460571289062
1445426086877;212.20770263671875;-164.66845703125;11.301397323608398;-2.0133209228515625;-2.511474609375;-9.184906005859375
1445426086911;212.23114013671875;-164.6596221923828;11.336698532104492;-1.915252685546875;-2.5507049560546875;-9.20452880859375
1445426086944;212.25851440429688;-164.64752197265625;11.349212646484375;-1.8760223388671875;-2.589935302734375;-9.047622680664062
1445426086977;212.271240234375;-164.63478088378906;11.347431182861328;-1.8367919921875;-2.531097412109375;-9.106460571289062
1445426087010;212.202392578125;-164.6570281982422;11.322647094726562;-1.8760223388671875;-2.4330291748046875;-9.165298461914062
1445426087042;212.15771484375;-164.6824188232422;11.314581871032715;-1.9348602294921875;-2.4918670654296875;-9.165298461914062
1445426087076;212.14779663085938;-164.71141052246094;11.329936981201172;-1.9348602294921875;-2.511474609375;-9.106460571289062
1445426087109;212.19024658203125;-164.73448181152344;11.372308731079102;-1.915252685546875;-2.472259521484375;-9.14569091796875
1445426087142;212.2171630859375;-164.73399353027344;11.388097763061523;-1.856414794921875;-2.511474609375;-9.184906005859375
1445426087174;212.23992919921875;-164.71946716308594;11.391071319580078;-1.8760223388671875;-2.5507049560546875;-9.126068115234375
1445426087208;212.216552734375;-164.7324676513672;11.386602401733398;-1.974090576171875;-2.511474609375;-9.14569091796875
1445426087241;212.23052978515625;-164.7353973388672;11.397160530090332;-1.9348602294921875;-2.4918670654296875;-9.126068115234375
1445426087274;212.23046875;-164.74403381347656;11.403483390808105;-1.9348602294921875;-2.511474609375;-9.106460571289062
1445426087307;212.22625732421875;-164.7470245361328;11.403162002563477;-1.8760223388671875;-2.4918670654296875;-9.106460571289062
1445426087339;212.21432495117188;-164.74891662597656;11.39738655090332;-1.9348602294921875;-2.4918670654296875;-9.106460571289062
1445426087387;212.18292236328125;-164.76754760742188;11.392236709594727;-1.974090576171875;-2.4330291748046875;-9.126068115234375
1445426087406;212.18463134765625;-164.78172302246094;11.403696060180664;-1.9348602294921875;-2.45263671875;-9.14569091796875
1445426087438;212.21926879882812;-164.77767944335938;11.421541213989258;-1.8760223388671875;-2.5507049560546875;-9.184906005859375
1445426087471;212.235595703125;-164.73973083496094;11.403409004211426;-1.8956451416015625;-2.511474609375;-9.126068115234375
1445426087504;212.24578857421875;-164.71969604492188;11.39476490020752;-1.8956451416015625;-2.5507049560546875;-9.14569091796875
1445426087537;212.30792236328125;-164.66384887695312;11.390817642211914;-1.8760223388671875;-2.531097412109375;-9.126068115234375
1445426087571;212.28036499023438;-164.64016723632812;11.35685920715332;-1.8760223388671875;-2.531097412109375;-9.126068115234375
1445426087604;212.2425537109375;-164.642822265625;11.336210250854492;-1.8760223388671875;-2.531097412109375;-9.14569091796875
1445426087637;212.14630126953125;-164.6695556640625;11.298346519470215;-1.8956451416015625;-2.511474609375;-9.126068115234375
1445426087670;212.12738037109375;-164.68312072753906;11.29698371887207;-1.974090576171875;-2.3545684814453125;-9.047622680664062
1445426087704;212.1357421875;-164.72080993652344;11.32962417602539;-1.8760223388671875;-2.4330291748046875;-9.106460571289062
1445426087736;212.12164306640625;-164.7259521484375;11.35867977142334;-1.8956451416015625;-2.4918670654296875;-9.14569091796875
1445426087769;212.09881591796875;-164.7173309326172;11.377723693847656;-1.8956451416015625;-2.6095428466796875;-9.184906005859375
1445426087802;212.06854248046875;-164.68418884277344;11.380218505859375;-1.856414794921875;-2.511474609375;-9.067230224609375
1445426087835;212.09722900390625;-164.66461181640625;11.376177787780762;-1.856414794921875;-2.531097412109375;-9.126068115234375
1445426087868;212.10409545898438;-164.65907287597656;11.367526054382324;-1.8956451416015625;-2.5703125;-9.106460571289062
1445426087901;212.1119384765625;-164.65365600585938;11.348482131958008;-1.915252685546875;-2.4918670654296875;-9.126068115234375
1445426087934;212.095458984375;-164.69027709960938;11.341729164123535;-1.9348602294921875;-2.4918670654296875;-9.106460571289062
1445426087968;212.09918212890625;-164.708740234375;11.336895942687988;-1.8956451416015625;-2.472259521484375;-9.126068115234375
1445426088000;212.07846069335938;-164.79251098632812;11.320849418640137;-1.974090576171875;-2.3741912841796875;-9.126068115234375
1445426088032;212.01217651367188;-164.87191772460938;11.307981491088867;-1.9936981201171875;-2.4134063720703125;-9.20452880859375
1445426088066;211.981201171875;-164.89772033691406;11.30828857421875;-1.8760223388671875;-2.45263671875;-9.14569091796875
1445426088099;211.90972900390625;-164.92666625976562;11.28658676147461;-1.8171844482421875;-2.4918670654296875;-9.047622680664062
1445426088131;211.90557861328125;-164.91175842285156;11.273260116577148;-1.8171844482421875;-2.4918670654296875;-9.047622680664062
1445426088164;211.95599365234375;-164.8541717529297;11.279840469360352;-1.797576904296875;-2.4330291748046875;-8.87109375
1445426088198;212.03668212890625;-164.70883178710938;11.344783782958984;-1.8171844482421875;-2.531097412109375;-9.20452880859375
1445426088231;212.08172607421875;-164.58309936523438;11.358306884765625;-1.915252685546875;-2.531097412109375;-9.282974243164062
1445426088263;212.20529174804688;-164.4061279296875;11.360292434692383;-1.9544830322265625;-2.3741912841796875;-9.008392333984375
1445426088297;212.31011962890625;-164.31661987304688;11.481457710266113;-1.9936981201171875;-2.4134063720703125;-9.047622680664062
1445426088332;212.36520385742188;-164.22256469726562;11.55432415008545;-2.091766357421875;-2.589935302734375;-9.14569091796875
1445426088363;212.50357055664062;-163.9596710205078;11.704585075378418;-2.05255126953125;-2.6683807373046875;-9.14569091796875
1445426088396;212.537353515625;-163.7364959716797;11.805255889892578;-2.05255126953125;-2.6291656494140625;-8.949554443359375
1445426088429;212.53350830078125;-163.6733856201172;11.851058006286621;-2.032928466796875;-2.6880035400390625;-9.008392333984375
1445426088462;212.46661376953125;-163.55776977539062;11.93312931060791;-1.9936981201171875;-2.78607177734375;-9.106460571289062
1445426088495;212.417236328125;-163.4813995361328;11.972599029541016;-1.974090576171875;-2.84490966796875;-8.87109375
1445426088528;212.32879638671875;-163.3627471923828;12.014598846435547;-1.9348602294921875;-2.825286865234375;-8.910324096679688
1445426088561;212.24298095703125;-163.28334045410156;12.00549030303955;-1.9544830322265625;-2.825286865234375;-9.008392333984375
1445426088594;212.20355224609375;-163.2532196044922;11.987123489379883;-1.8956451416015625;-2.884124755859375;-8.988784790039062
1445426088627;212.189453125;-163.2061767578125;11.920637130737305;-1.9348602294921875;-2.766448974609375;-9.047622680664062
1445426088660;212.196533203125;-163.24131774902344;11.821130752563477;-2.0133209228515625;-2.84490966796875;-8.988784790039062
1445426088692;212.26171875;-163.24478149414062;11.775611877441406;-1.9544830322265625;-2.884124755859375;-9.20452880859375
1445426088726;212.35305786132812;-163.2832794189453;11.608685493469238;-1.856414794921875;-2.884124755859375;-9.302597045898438
1445426088760;212.3028564453125;-163.583251953125;11.306629180908203;-1.7583465576171875;-2.4330291748046875;-8.929931640625
1445426088791;212.26416015625;-163.85711669921875;11.176255226135254;-1.6995086669921875;-2.256500244140625;-8.812255859375
1445426088827;212.16043090820312;-164.2353515625;11.046185493469238;-1.6995086669921875;-2.3153533935546875;-8.890716552734375
1445426088857;212.1705322265625;-164.28167724609375;11.046257019042969;-1.7779541015625;-2.707611083984375;-9.047622680664062
1445426088891;212.2186279296875;-164.17794799804688;11.112327575683594;-1.6014404296875;-2.78607177734375;-9.14569091796875
1445426088928;212.23052978515625;-164.0671844482422;11.169231414794922;-1.9544830322265625;-2.648773193359375;-9.126068115234375
1445426088957;212.36190795898438;-164.09808349609375;11.27768325805664;-2.11138916015625;-2.6291656494140625;-9.027999877929688
1445426088990;212.47665405273438;-164.1222381591797;11.339202880859375;-2.150604248046875;-2.589935302734375;-9.047622680664062
1445426089024;212.68634033203125;-164.19329833984375;11.432923316955566;-2.0721588134765625;-2.531097412109375;-9.126068115234375
1445426089056;212.758056640625;-164.23927307128906;11.452079772949219;-2.05255126953125;-2.531097412109375;-9.14569091796875
1445426089088;212.88577270507812;-164.2899169921875;11.463924407958984;-1.9936981201171875;-2.4918670654296875;-9.224136352539062
1445426089122;212.799072265625;-164.4052734375;11.442262649536133;-1.915252685546875;-2.2957305908203125;-9.008392333984375
1445426089155;212.70928955078125;-164.4561004638672;11.459566116333008;-1.8956451416015625;-2.393798828125;-9.008392333984375
1445426089187;212.47564697265625;-164.48365783691406;11.485365867614746;-1.8367919921875;-2.4134063720703125;-9.341812133789062
1445426089221;212.2108154296875;-164.44171142578125;11.438477516174316;-1.9544830322265625;-2.531097412109375;-9.341812133789062
1445426089254;212.1260986328125;-164.40850830078125;11.385144233703613;-2.05255126953125;-2.531097412109375;-9.243743896484375
1445426089287;212.2052001953125;-164.29884338378906;11.274408340454102;-2.1898345947265625;-2.7468414306640625;-9.067230224609375
1445426089321;212.5675048828125;-164.07896423339844;11.117279052734375;-2.091766357421875;-2.8645172119140625;-8.773025512695312
1445426089353;212.73214721679688;-163.99310302734375;10.989949226379395;-2.091766357421875;-2.6880035400390625;-9.008392333984375
1445426089385;212.95904541015625;-163.9769744873047;10.723859786987305;-1.9544830322265625;-2.648773193359375;-9.067230224609375
1445426089419;212.81304931640625;-164.0372772216797;10.493159294128418;-1.287628173828125;-2.393798828125;-9.086837768554688
1445426089452;212.34686279296875;-164.195068359375;10.008598327636719;-1.169952392578125;-2.2957305908203125;-9.086837768554688
1445426089485;211.82241821289062;-164.32997131347656;9.596482276916504;-1.0130462646484375;-2.3349609375;-9.126068115234375
1445426089519;211.5804443359375;-164.33926391601562;9.409311294555664;-0.954193115234375;-2.4134063720703125;-9.106460571289062
1445426089551;211.2783203125;-164.26646423339844;9.234185218811035;-1.0718841552734375;-2.531097412109375;-8.988784790039062
1445426089583;211.171630859375;-164.1077880859375;9.255022048950195;-1.20916748046875;-2.6880035400390625;-9.047622680664062
1445426089617;211.157958984375;-164.0232696533203;9.298541069030762;-1.2483978271484375;-2.7468414306640625;-9.067230224609375
1445426089649;211.2264404296875;-163.8850555419922;9.497294425964355;-1.4249267578125;-2.7468414306640625;-9.008392333984375
1445426089683;211.30587768554688;-163.84690856933594;9.645143508911133;-1.4837646484375;-2.6291656494140625;-8.949554443359375
1445426089716;211.4129638671875;-163.81417846679688;9.938806533813477;-1.6406707763671875;-2.5507049560546875;-9.027999877929688
1445426089749;211.5484619140625;-163.7822723388672;10.321356773376465;-1.9348602294921875;-2.648773193359375;-9.106460571289062
1445426089781;211.66143798828125;-163.74258422851562;10.58326530456543;-2.05255126953125;-2.6683807373046875;-9.067230224609375
1445426089816;211.92498779296875;-163.625732421875;11.160581588745117;-2.22906494140625;-2.78607177734375;-9.126068115234375
