sep=;
timestamp;gyro-alpha;gyro-beta;gyro-gamma;accel-x;accel-y;accel-z
1445426118947;273.11041259765625;-110.52904510498047;2.396442413330078;4.2825469970703125;-12.788848876953125;-2.5359954833984375
1445426118979;275.39202880859375;-110.53990936279297;2.0024642944335938;4.1648712158203125;-12.47503662109375;-2.339874267578125
1445426119012;277.0821533203125;-109.32471466064453;1.2135984897613525;3.92950439453125;-11.533599853515625;-1.947601318359375
1445426119044;277.364501953125;-108.24220275878906;0.6913207173347473;3.5960845947265625;-10.866744995117188;-1.947601318359375
1445426119077;277.5401611328125;-105.90654754638672;-0.30138179659843445;2.2819976806640625;-9.258453369140625;-1.9279937744140625
1445426119110;277.8094482421875;-104.58911895751953;-0.6341038346290588;1.732818603515625;-8.728897094726562;-1.771087646484375
1445426119143;278.2501220703125;-101.65790557861328;-1.1693223714828491;0.869842529296875;-8.1405029296875;-1.6730194091796875
1445426119176;278.23114013671875;-99.1926040649414;-1.554369568824768;0.7129364013671875;-8.88580322265625;-1.7906951904296875
1445426119209;278.2573547363281;-98.39305877685547;-1.6228513717651367;1.7720489501953125;-9.631103515625;-2.08489990234375
1445426119243;278.48028564453125;-97.47573852539062;-1.6658685207366943;1.9681854248046875;-9.748779296875;-2.26141357421875
1445426119275;278.3554992675781;-97.48385620117188;-1.5670818090438843;0.6344757080078125;-9.238845825195312;-2.006439208984375
1445426119308;278.3887939453125;-97.78394317626953;-1.3352844715118408;-0.0716094970703125;-8.94464111328125;-1.2219085693359375
1445426119340;278.7676086425781;-99.08897399902344;-1.3678359985351562;-0.6207733154296875;-9.160385131835938;-1.3003692626953125
1445426119374;278.6623840332031;-100.90740966796875;-1.6800557374954224;-2.032928466796875;-10.474472045898438;-0.77081298828125
1445426119409;278.58380126953125;-101.68953704833984;-1.475246548652649;-2.150604248046875;-11.121719360351562;-0.7904205322265625
1445426119440;277.99932861328125;-102.35420989990234;-1.0762006044387817;-0.777679443359375;-12.396575927734375;-0.1431732177734375
1445426119473;277.8474426269531;-102.25070190429688;-1.0926369428634644;-0.836517333984375;-11.10211181640625;-0.4962158203125
1445426119506;277.98095703125;-101.30084991455078;-1.3509231805801392;-0.542327880859375;-10.513702392578125;-0.6138916015625
1445426119540;278.2148132324219;-99.85296630859375;-1.7020670175552368;0.242218017578125;-9.513427734375;-1.12384033203125
1445426119572;278.26629638671875;-98.44056701660156;-2.0367355346679688;0.8894500732421875;-8.670059204101562;-1.7906951904296875
1445426119606;278.2589111328125;-97.91187286376953;-2.2043726444244385;0.928680419921875;-8.82696533203125;-2.006439208984375
1445426119638;278.4724426269531;-97.66077423095703;-2.534823417663574;1.18365478515625;-9.160385131835938;-2.37908935546875
1445426119671;278.6958312988281;-97.99158477783203;-2.66823673248291;1.9093475341796875;-8.905410766601562;-3.026336669921875
1445426119704;279.0687255859375;-99.37174987792969;-3.049048662185669;1.732818603515625;-9.042709350585938;-2.20257568359375
1445426119737;279.9895935058594;-102.22716522216797;-3.3684072494506836;2.046630859375;-9.12115478515625;-2.0456695556640625
1445426119774;280.51336669921875;-103.70610046386719;-3.415597438812256;1.673980712890625;-9.493820190429688;-2.08489990234375
1445426119803;281.504638671875;-106.2083511352539;-2.9142227172851562;1.7132110595703125;-9.572265625;-2.5359954833984375
1445426119836;281.8052062988281;-108.00655364990234;-1.9323534965515137;2.4585113525390625;-10.101821899414062;-2.692901611328125
1445426119869;282.018798828125;-108.54407501220703;-1.4077550172805786;2.929229736328125;-10.631378173828125;-2.634063720703125
1445426119902;282.4332580566406;-108.63674926757812;-0.6664758324623108;3.4784088134765625;-11.435531616210938;-2.634063720703125
1445426119934;282.6274719238281;-108.44401550292969;-0.5349157452583313;3.556854248046875;-11.553207397460938;-2.32025146484375
1445426119968;283.01849365234375;-107.53339385986328;-0.7472336292266846;3.63531494140625;-11.082489013671875;-2.006439208984375
1445426120002;283.3997802734375;-106.10416412353516;-1.2986087799072266;2.752716064453125;-10.062606811523438;-1.712249755859375
1445426120035;283.53131103515625;-105.22006225585938;-1.5997049808502197;1.6347503662109375;-9.160385131835938;-1.771087646484375
1445426120071;283.6028137207031;-103.16340637207031;-2.0254037380218506;1.3405609130859375;-9.140777587890625;-2.02606201171875
1445426120102;283.2777099609375;-101.11775207519531;-2.269397735595703;0.9482879638671875;-9.317291259765625;-2.14373779296875
1445426120134;283.116455078125;-100.19541931152344;-2.3612468242645264;0.8502197265625;-9.317291259765625;-2.0456695556640625
1445426120168;282.9702453613281;-98.65797424316406;-2.4795756340026855;0.8109893798828125;-9.533035278320312;-2.02606201171875
1445426120198;282.8809814453125;-97.76029205322266;-2.260591745376587;0.3795013427734375;-9.552658081054688;-1.947601318359375
1445426120235;282.83502197265625;-97.51580810546875;-1.947918176651001;0.026458740234375;-9.474197387695312;-1.51611328125
1445426120264;282.7276611328125;-97.2841567993164;-1.0886577367782593;0.16375732421875;-9.395751953125;-1.261138916015625
1445426120298;282.60296630859375;-97.25533294677734;-0.8495103120803833;0.22259521484375;-8.787734985351562;-0.77081298828125
1445426120332;281.9105224609375;-98.03861236572266;-1.2703723907470703;-0.4442596435546875;-9.650726318359375;-1.496490478515625
1445426120364;281.8525695800781;-99.35075378417969;-1.2708847522735596;-0.97381591796875;-10.552932739257812;-0.4373779296875
1445426120399;281.8591613769531;-99.79617309570312;-0.9395893216133118;-0.836517333984375;-10.8275146484375;-0.300079345703125
1445426120430;281.28216552734375;-100.17832946777344;-0.40580371022224426;-1.03265380859375;-11.690505981445312;-0.1627960205078125
1445426120463;280.6448059082031;-100.14440155029297;-0.2556736171245575;-1.346466064453125;-11.651275634765625;-0.2216339111328125
1445426120499;280.34490966796875;-99.8772964477539;-0.23025313019752502;-1.0522613525390625;-11.317855834960938;-0.1431732177734375
1445426120530;279.7496032714844;-98.87429809570312;-0.29865309596061707;-0.01275634765625;-10.435256958007812;-0.241241455078125
1445426120563;279.3675231933594;-97.40301513671875;-0.4828932583332062;-0.0716094970703125;-9.788009643554688;-0.5942840576171875
1445426120595;279.23065185546875;-96.6279067993164;-0.5923006534576416;0.1245269775390625;-9.670333862304688;-0.9080963134765625
1445426120628;279.045166015625;-95.31822967529297;-0.8726348280906677;0.4383392333984375;-9.533035278320312;-1.2807464599609375
1445426120661;278.9611511230469;-94.68800354003906;-1.1286336183547974;0.536407470703125;-9.611495971679688;-1.5945587158203125
1445426120694;279.0513916015625;-94.7918930053711;-1.2372721433639526;0.2618255615234375;-9.533035278320312;-1.7906951904296875
1445426120727;279.30596923828125;-96.03124237060547;-1.405541181564331;0.418731689453125;-8.611221313476562;-2.08489990234375
1445426120760;279.4136962890625;-97.15670013427734;-1.5607510805130005;0.6737060546875;-8.336624145507812;-1.771087646484375
1445426120793;280.2473449707031;-100.62919616699219;-2.0982797145843506;2.2035369873046875;-8.88580322265625;-1.4180450439453125
1445426120826;281.6494445800781;-103.65496826171875;-2.649418354034424;1.47784423828125;-10.729446411132812;-1.712249755859375
1445426120859;282.16754150390625;-104.6113510131836;-2.7129197120666504;1.47784423828125;-11.16094970703125;-1.810302734375
1445426120892;283.30426025390625;-106.0172348022461;-2.5642292499542236;2.4781341552734375;-11.572830200195312;-1.829925537109375
1445426120925;284.24371337890625;-106.31167602539062;-2.630577564239502;2.811553955078125;-11.51397705078125;-1.810302734375
1445426120959;284.7535400390625;-105.95586395263672;-2.753371477127075;3.046905517578125;-11.121719360351562;-1.75146484375
1445426120991;285.81292724609375;-104.59791564941406;-3.222754955291748;2.693878173828125;-10.180282592773438;-1.5357208251953125
1445426121024;286.92840576171875;-102.943359375;-3.801938772201538;1.928955078125;-9.140777587890625;-1.7906951904296875
1445426121057;287.3379211425781;-102.09223937988281;-4.087744235992432;1.3797760009765625;-8.82696533203125;-1.888763427734375
1445426121090;287.75592041015625;-100.61205291748047;-4.51660680770874;0.477569580078125;-8.807342529296875;-2.3594818115234375
1445426121123;287.9324951171875;-100.16603088378906;-4.586618900299072;0.28143310546875;-9.06231689453125;-2.634063720703125
1445426121156;288.66400146484375;-100.1721420288086;-4.4611310958862305;0.22259521484375;-9.297683715820312;-2.9871063232421875
1445426121189;289.83782958984375;-101.38404846191406;-4.022219181060791;0.3991241455078125;-8.964248657226562;-2.967498779296875
1445426121222;290.4861755371094;-102.27273559570312;-3.67167329788208;0.4579620361328125;-8.846572875976562;-2.6732940673828125
1445426121255;291.5644836425781;-104.3629150390625;-2.8124215602874756;0.4383392333984375;-9.023101806640625;-2.5556182861328125
1445426121288;291.9604797363281;-106.181640625;-1.9557244777679443;0.9678955078125;-9.591873168945312;-2.398712158203125
1445426121321;291.9624328613281;-107.08216857910156;-1.5826023817062378;1.24249267578125;-10.003753662109375;-2.4183197021484375
1445426121353;291.9919128417969;-108.35852813720703;-0.9965509176254272;1.3209381103515625;-11.200164794921875;-2.4379425048828125
1445426121387;291.3791809082031;-108.61541748046875;-0.7400322556495667;1.1444244384765625;-11.572830200195312;-2.6536865234375
1445426121420;290.8278503417969;-108.27162170410156;-0.8221114873886108;1.41900634765625;-11.259017944335938;-2.692901611328125
1445426121456;289.9330139160156;-106.91448211669922;-1.3661280870437622;1.9093475341796875;-10.396026611328125;-2.4771575927734375
1445426121486;289.09271240234375;-104.93895721435547;-2.1625311374664307;1.850494384765625;-9.356521606445312;-2.14373779296875
1445426121518;288.2762451171875;-103.89640808105469;-2.658799171447754;1.3797760009765625;-8.983871459960938;-2.20257568359375
1445426121553;286.24591064453125;-101.76654815673828;-3.6398239135742188;0.8502197265625;-8.88580322265625;-2.0456695556640625
1445426121587;284.6910095214844;-99.79810333251953;-4.4283061027526855;1.0071258544921875;-9.533035278320312;-2.1633453369140625
1445426121621;283.933837890625;-98.97798919677734;-4.688974857330322;0.5560302734375;-9.709564208984375;-2.1241302490234375
1445426121651;282.4250183105469;-97.84087371826172;-4.8057684898376465;0.5560302734375;-9.768402099609375;-1.51611328125
1445426121684;281.590087890625;-97.39408874511719;-4.632942199707031;0.536407470703125;-9.788009643554688;-1.3395843505859375
1445426121720;280.02288818359375;-96.66737365722656;-4.173304080963135;1.2032623291015625;-9.552658081054688;-1.2219085693359375
1445426121750;279.35528564453125;-96.44462585449219;-4.037776947021484;1.556304931640625;-9.3369140625;-1.712249755859375
1445426121783;277.28961181640625;-96.42608642578125;-4.228935718536377;0.9678955078125;-9.533035278320312;-1.2807464599609375
1445426121818;275.27801513671875;-96.91084289550781;-4.804696083068848;-0.1108245849609375;-9.68994140625;-0.123565673828125
1445426121848;275.0505676269531;-97.49031066894531;-5.074425220489502;-0.34619140625;-10.7686767578125;-0.0451202392578125
1445426121881;273.85955810546875;-98.37276458740234;-5.389551162719727;0.10491943359375;-11.298233032226562;0.562896728515625
1445426121915;271.39739990234375;-98.35457611083984;-5.246376991271973;0.536407470703125;-11.592437744140625;0.4059906005859375
1445426121948;270.0583190917969;-97.8792495727539;-5.153790473937988;0.0068511962890625;-11.239395141601562;0.2686920166015625
1445426121981;268.2649230957031;-96.6502456665039;-4.831585884094238;-0.3069610595703125;-10.25872802734375;0.3471527099609375
1445426122016;267.54864501953125;-95.96251678466797;-4.649036407470703;0.2029876708984375;-9.572265625;-0.2804718017578125
1445426122046;265.7601318359375;-94.47618865966797;-4.337535381317139;0.5756378173828125;-9.552658081054688;-0.6531219482421875
1445426122080;263.7728271484375;-93.24307250976562;-4.2438507080078125;1.2621002197265625;-9.788009643554688;-1.457275390625
1445426122114;262.8109130859375;-92.97307586669922;-4.324070453643799;1.30133056640625;-10.121444702148438;-2.281036376953125
1445426122146;261.0102844238281;-93.30132293701172;-4.746185302734375;1.41900634765625;-9.866470336914062;-2.6144561767578125
1445426122180;259.72943115234375;-95.6719741821289;-5.472675800323486;2.55657958984375;-8.218948364257812;-1.9868316650390625
1445426122213;260.0291748046875;-97.70670318603516;-6.031190872192383;2.988067626953125;-7.2775115966796875;-1.3395843505859375
1445426122245;263.1805419921875;-102.20011138916016;-7.055487155914307;2.3996734619140625;-8.101272583007812;-0.9669342041015625
1445426122278;267.3635559082031;-106.1990966796875;-7.237412929534912;1.41900634765625;-9.376129150390625;-0.7119598388671875
1445426122310;268.3138122558594;-108.25355529785156;-7.028530597686768;1.673980712890625;-10.101821899414062;-2.4183197021484375
1445426122344;269.6308288574219;-112.53646087646484;-6.086974143981934;3.1057586669921875;-13.61260986328125;-4.71307373046875
1445426122378;269.3353271484375;-115.8379135131836;-5.786072254180908;5.2239837646484375;-13.73028564453125;-4.850372314453125
1445426122411;268.5721435546875;-117.2832260131836;-6.347264766693115;5.7927703857421875;-12.808456420898438;-4.53656005859375
1445426122443;267.74432373046875;-120.00708770751953;-8.472416877746582;5.5574188232421875;-12.318130493164062;-4.71307373046875
1445426122476;267.0891418457031;-122.38255310058594;-10.08425521850586;3.69415283203125;-10.5921630859375;-5.595672607421875
1445426122510;266.3306579589844;-122.71878051757812;-10.442831039428711;2.301605224609375;-9.238845825195312;-5.0661163330078125
1445426122544;263.9670715332031;-122.30140686035156;-11.47751235961914;0.6737060546875;-6.296844482421875;-2.692901611328125
1445426122577;262.22857666015625;-121.58068084716797;-12.106036186218262;0.6737060546875;-4.727783203125;-1.06500244140625
1445426122608;261.66900634765625;-121.00296783447266;-12.174090385437012;0.6148681640625;-4.0609283447265625;-0.633514404296875
1445426122642;261.442626953125;-119.58391571044922;-11.464187622070312;0.477569580078125;-2.8056793212890625;0.24908447265625
1445426122674;261.98846435546875;-118.73662567138672;-10.772314071655273;2.2035369873046875;-3.668670654296875;0.01373291015625
1445426122707;263.27838134765625;-116.49219512939453;-10.030184745788574;3.69415283203125;-7.9835968017578125;-0.515838623046875
1445426122740;263.4283447265625;-113.570556640625;-8.876276969909668;5.890838623046875;-16.29962158203125;-2.634063720703125
1445426122773;263.701171875;-111.66710662841797;-8.183138847351074;6.3811798095703125;-15.593551635742188;-2.516387939453125
1445426122807;265.34320068359375;-108.53338623046875;-8.06848430633545;7.22454833984375;-13.926422119140625;-2.37908935546875
1445426122840;269.43609619140625;-105.9997787475586;-8.839966773986816;4.8513336181640625;-13.004592895507812;-0.3785400390625
1445426122874;271.24078369140625;-105.16249084472656;-9.430428504943848;3.1057586669921875;-12.02392578125;-1.2415313720703125
1445426122905;274.1451110839844;-103.86571502685547;-10.759521484375;-2.8959197998046875;-11.023651123046875;-3.0459442138671875
1445426122938;274.9100341796875;-103.4480972290039;-11.539605140686035;-3.2097320556640625;-12.573104858398438;-2.6732940673828125
1445426122972;274.2266540527344;-102.20674133300781;-11.682764053344727;-1.6798858642578125;-15.299346923828125;-3.261688232421875
1445426123004;274.4064636230469;-99.16614532470703;-9.33613395690918;-2.34674072265625;-18.613998413085938;-3.7520294189453125
1445426123038;275.0067138671875;-96.83702850341797;-7.958402156829834;1.164031982421875;-15.730850219726562;-4.65423583984375
1445426123071;274.2319030761719;-92.78221130371094;-7.40278434753418;2.2819976806640625;-11.886642456054688;-4.8896026611328125
1445426123103;274.4079895019531;-93.10347747802734;-8.397335052490234;2.0074005126953125;-5.35540771484375;-3.3009185791015625
1445426123137;274.8756103515625;-94.65605163574219;-8.389695167541504;0.34027099609375;-2.472259521484375;-2.1241302490234375
1445426123171;278.031494140625;-97.35514831542969;-6.912383556365967;-0.9345855712890625;-0.138275146484375;0.2098541259765625
1445426123202;280.47418212890625;-98.1790771484375;-6.703449726104736;-0.3657989501953125;2.274169921875;0.994384765625
1445426123238;279.028564453125;-98.2939453125;-7.720317840576172;-0.0519866943359375;0.3520660400390625;0.4844512939453125
1445426123268;274.1952209472656;-99.9558334350586;-10.98316764831543;-1.5033721923828125;-2.3153533935546875;-0.7119598388671875
1445426123301;269.88543701171875;-101.8144302368164;-13.543867111206055;-4.79840087890625;-11.886642456054688;-5.1445770263671875
1445426123334;268.80078125;-103.03536987304688;-14.349589347839355;-2.856689453125;-20.90875244140625;-6.242919921875
1445426123368;269.65435791015625;-106.49220275878906;-12.387909889221191;5.6358642578125;-23.12506103515625;-6.81170654296875
1445426123400;270.202392578125;-107.56068420410156;-10.90104866027832;6.7734375;-20.594940185546875;-4.1246795654296875
1445426123434;270.26519775390625;-108.16726684570312;-9.063881874084473;6.1654205322265625;-18.045211791992188;-2.6144561767578125
1445426123465;267.4476318359375;-108.82693481445312;-9.976875305175781;0.869842529296875;-16.260406494140625;-3.791259765625
1445426123500;265.8750915527344;-108.83204650878906;-10.238990783691406;-1.8367919921875;-13.318405151367188;-2.6144561767578125
1445426123532;261.784912109375;-108.27268981933594;-8.56009578704834;-1.5622100830078125;-9.415359497070312;-1.9083709716796875
1445426123565;260.00238037109375;-107.98981475830078;-7.124502182006836;-0.1696624755859375;-2.21728515625;-1.6533966064453125
1445426123597;257.68499755859375;-107.64251708984375;-3.6483120918273926;0.34027099609375;0.077484130859375;-1.6533966064453125
1445426123631;255.293212890625;-107.94361877441406;-0.30206650495529175;2.38006591796875;2.823333740234375;-0.810028076171875
1445426123664;252.9971923828125;-108.00628662109375;2.569796323776245;3.5960845947265625;2.21533203125;0.386383056640625
1445426123696;251.83416748046875;-107.5937271118164;3.6048977375030518;1.732818603515625;-0.0402069091796875;0.36676025390625
1445426123729;249.86868286132812;-107.68840026855469;4.5286126136779785;-2.6409454345703125;-15.417037963867188;-5.536834716796875
1445426123762;250.0469970703125;-108.08395385742188;5.250063896179199;3.0665283203125;-19.457366943359375;-5.73297119140625
1445426123796;250.769775390625;-108.46739959716797;8.148346900939941;3.9883575439453125;-15.632781982421875;-5.2034149169921875
1445426123829;249.87545776367188;-111.42109680175781;7.277472972869873;3.046905517578125;-18.829742431640625;-7.302032470703125
1445426123863;248.62228393554688;-113.10895538330078;5.170905590057373;2.419281005859375;-17.672561645507812;-7.3804931640625
1445426123895;245.82510375976562;-116.20161437988281;2.5916550159454346;1.811279296875;-14.240234375;-4.53656005859375
1445426123928;245.71359252929688;-115.744873046875;0.5139375925064087;0.7717742919921875;-11.631668090820312;-3.6147308349609375
1445426123961;245.75637817382812;-115.14371490478516;-0.6521827578544617;-0.2481231689453125;-9.748779296875;-3.144012451171875
1445426123994;244.931640625;-113.79012298583984;-3.2044825553894043;-0.777679443359375;-5.6888275146484375;-2.26141357421875
1445426124027;243.55917358398438;-112.46058654785156;-5.908723831176758;0.7129364013671875;-3.8844146728515625;-1.8495330810546875
1445426124060;243.2977294921875;-111.7596435546875;-6.908154010772705;0.9482879638671875;-3.217559814453125;-1.75146484375
1445426124092;243.27352905273438;-110.80821990966797;-8.019177436828613;1.53668212890625;-2.4134063720703125;-1.96722412109375
1445426124126;243.64471435546875;-110.52977752685547;-8.169309616088867;1.9681854248046875;-4.4335784912109375;-2.3594818115234375
1445426124159;244.74566650390625;-110.47802734375;-8.626781463623047;2.3996734619140625;-6.7871856689453125;-2.7713623046875
1445426124192;245.6905517578125;-111.4252700805664;-9.775891304016113;4.635589599609375;-15.573944091796875;-3.7520294189453125
1445426124225;246.2181396484375;-112.05459594726562;-10.587075233459473;3.831451416015625;-14.044097900390625;-6.5763397216796875
1445426124258;245.8961181640625;-112.22012329101562;-12.68200969696045;4.125640869140625;-12.004318237304688;-6.1448516845703125
1445426124297;247.31488037109375;-112.12460327148438;-12.920191764831543;3.0272979736328125;-10.690231323242188;-5.3799285888671875
1445426124324;248.0460205078125;-111.13854217529297;-12.690943717956543;2.2623748779296875;-9.219223022460938;-4.36004638671875
1445426124357;247.65390014648438;-108.11524200439453;-12.864617347717285;1.0071258544921875;-6.473358154296875;-1.5945587158203125
1445426124389;245.8193359375;-105.41536712646484;-13.277875900268555;2.0074005126953125;-4.923919677734375;-0.6138916015625
1445426124423;245.33599853515625;-104.25483703613281;-13.133857727050781;3.1057586669921875;-5.0808258056640625;-0.94732666015625
1445426124456;246.36224365234375;-102.9255599975586;-12.266962051391602;4.5571441650390625;-7.5324859619140625;-3.8108673095703125
1445426124488;250.31875610351562;-103.59551239013672;-11.146082878112793;4.2041015625;-11.023651123046875;-1.8691558837890625
1445426124522;252.95367431640625;-104.74813842773438;-10.698831558227539;4.243316650390625;-10.572540283203125;-2.457550048828125
1445426124555;255.74264526367188;-106.691162109375;-10.433433532714844;-0.895355224609375;-12.063156127929688;-1.7906951904296875
1445426124588;259.037841796875;-108.3791275024414;-9.008047103881836;-1.228790283203125;-9.788009643554688;-0.3785400390625
1445426124622;261.0121765136719;-108.52411651611328;-7.724565505981445;-1.738739013671875;-12.278900146484375;-2.26141357421875
1445426124654;262.8816223144531;-106.5470199584961;-6.068962097167969;-2.6409454345703125;-13.632217407226562;-1.3395843505859375
1445426124688;263.239990234375;-105.38048553466797;-5.561515808105469;-1.9936981201171875;-12.906524658203125;-1.084625244140625
1445426124720;263.86065673828125;-102.38719177246094;-4.765451431274414;-1.0130462646484375;-11.572830200195312;-0.5550537109375
1445426124752;264.47100830078125;-100.72045135498047;-4.603701591491699;-0.3854217529296875;-10.788284301757812;-1.378814697265625
1445426124786;265.9616394042969;-97.86436462402344;-4.33560848236084;-0.267730712890625;-9.886077880859375;-1.96722412109375
1445426124819;266.857421875;-96.43286895751953;-3.9254772663116455;-0.326568603515625;-6.55181884765625;-2.3594818115234375
1445426124852;267.30047607421875;-96.41573333740234;-3.696519613265991;-1.7191162109375;-5.5907745361328125;-1.202301025390625
1445426124892;267.8653869628906;-97.08172607421875;-3.1063036918640137;-1.8367919921875;-7.061767578125;0.30792236328125
1445426124918;267.30487060546875;-97.67964935302734;-2.3840584754943848;-1.3072357177734375;-8.454315185546875;0.30792236328125
1445426124952;264.8758544921875;-98.14917755126953;-1.8008590936660767;0.3795013427734375;-13.573379516601562;-3.39898681640625
1445426124985;263.485107421875;-98.43487548828125;-1.7223566770553589;0.242218017578125;-13.200729370117188;-1.6337890625
1445426125019;261.24139404296875;-99.98856353759766;-1.960915207862854;0.0068511962890625;-12.494644165039062;0.621734619140625
1445426125052;260.3949279785156;-100.56838989257812;-2.0380921363830566;-0.326568603515625;-14.083328247070312;-0.633514404296875
1445426125084;258.20025634765625;-99.81329345703125;-2.294299840927124;-1.1307220458984375;-13.455703735351562;-0.300079345703125
1445426125117;255.45309448242188;-98.0953140258789;-2.815920829772949;-0.522705078125;-11.10211181640625;0.13140869140625
1445426125148;254.11874389648438;-97.00223541259766;-2.971407413482666;0.04608154296875;-10.31756591796875;-0.3981475830078125
1445426125184;251.15008544921875;-94.52828216552734;-3.0830280780792236;1.12481689453125;-8.748504638671875;-1.1630706787109375
1445426125215;248.709716796875;-92.70922088623047;-3.3056249618530273;0.536407470703125;-6.9636993408203125;-1.437652587890625
1445426125248;247.51565551757812;-92.26399230957031;-3.421693801879883;0.2029876708984375;-6.747955322265625;-1.1042327880859375
1445426125281;245.315673828125;-92.57701110839844;-3.825002431869507;-0.287353515625;-7.3363494873046875;-0.88848876953125
1445426125314;243.80764770507812;-93.55521392822266;-4.387839317321777;-1.228790283203125;-8.748504638671875;0.621734619140625
1445426125346;243.48092651367188;-93.91434478759766;-4.658050537109375;-0.2481231689453125;-10.415634155273438;0.30792236328125
1445426125379;241.40853881835938;-93.33546447753906;-5.578208923339844;0.5560302734375;-14.161773681640625;-2.02606201171875
1445426125413;241.1455078125;-92.77677154541016;-6.352352142333984;-1.5622100830078125;-13.84796142578125;0.19024658203125
1445426125446;242.58172607421875;-91.56916046142578;-7.287898063659668;-0.718841552734375;-13.514541625976562;-0.3981475830078125
1445426125478;241.88186645507812;-89.05331420898438;-7.679306983947754;0.8109893798828125;-11.239395141601562;-2.37908935546875
1445426125514;241.3875732421875;-87.87919616699219;-8.084182739257812;1.105194091796875;-9.925308227539062;-2.908660888671875
1445426125544;241.51763916015625;-87.55316162109375;-9.355179786682129;-0.4246368408203125;-7.9835968017578125;-2.6536865234375
1445426125578;241.85760498046875;-90.8932113647461;-9.872180938720703;0.1441497802734375;-8.532760620117188;-3.22247314453125
1445426125611;241.9716796875;-93.53236389160156;-9.795289039611816;1.0659637451171875;-8.748504638671875;-3.085174560546875
1445426125643;242.167236328125;-99.29412841796875;-8.762656211853027;0.928680419921875;-10.572540283203125;0.2098541259765625
1445426125677;242.39239501953125;-103.06136322021484;-6.431450366973877;0.7717742919921875;-10.611770629882812;-0.005889892578125
1445426125710;241.4566650390625;-104.40979766845703;-5.24769926071167;1.30133056640625;-10.964813232421875;-1.1630706787109375
1445426125743;238.15036010742188;-107.3960952758789;-3.438453197479248;3.0076904296875;-14.377532958984375;-1.771087646484375
1445426125776;235.74285888671875;-108.48407745361328;-2.7424700260162354;3.1253662109375;-14.965927124023438;-1.6337890625
1445426125810;230.3262939453125;-110.01251220703125;-1.3538867235183716;3.0076904296875;-12.47503662109375;-1.3592071533203125
1445426125842;224.37039184570312;-110.62504577636719;-0.5620960593223572;2.2819976806640625;-9.533035278320312;-0.2020263671875
1445426125876;222.0657958984375;-110.93571472167969;-0.41579484939575195;2.301605224609375;-5.5907745361328125;0.0333404541015625
1445426125907;220.1060791015625;-111.80972290039062;-0.40927350521087646;1.928955078125;-5.7084503173828125;-0.2608642578125
1445426125940;219.93429565429688;-112.30132293701172;-0.45556479692459106;0.9482879638671875;-6.865631103515625;-1.261138916015625
1445426125974;220.74960327148438;-113.3806381225586;-0.08724374324083328;1.30133056640625;-7.552093505859375;-1.6337890625
1445426126006;222.1470947265625;-114.07947540283203;1.0217087268829346;2.32122802734375;-8.218948364257812;-1.7318572998046875
1445426126040;225.0162353515625;-114.21086120605469;2.1714510917663574;2.1446990966796875;-9.886077880859375;-1.7906951904296875
1445426126073;226.6685791015625;-114.24364471435547;2.3713538646698;1.2032623291015625;-11.45513916015625;-2.5359954833984375
1445426126106;229.2750244140625;-114.09423065185547;1.5467665195465088;-0.091217041015625;-14.220611572265625;-3.0655670166015625
1445426126139;230.15985107421875;-113.74451446533203;0.740045964717865;1.791656494140625;-14.377532958984375;-2.7713623046875
1445426126172;232.16073608398438;-112.69503021240234;-0.6434907913208008;2.419281005859375;-13.808746337890625;-2.8498077392578125
1445426126205;234.97406005859375;-111.40277099609375;-1.6775856018066406;1.9681854248046875;-12.376968383789062;-2.5359954833984375
1445426126238;236.50750732421875;-110.73795318603516;-2.113107442855835;1.2817230224609375;-10.219512939453125;-1.574951171875
1445426126272;239.7720947265625;-109.76598358154297;-2.905791997909546;0.6933135986328125;-8.983871459960938;-1.202301025390625
1445426126303;243.25958251953125;-109.42523956298828;-3.8329293727874756;0.1833648681640625;-6.7087249755859375;-0.6138916015625
1445426126337;245.15179443359375;-109.44393157958984;-4.265259265899658;0.2029876708984375;-5.9634246826171875;-0.515838623046875
1445426126370;248.91351318359375;-109.53569793701172;-5.082418441772461;0.8502197265625;-5.610382080078125;-1.143463134765625
1445426126403;252.65420532226562;-109.43627166748047;-6.2166242599487305;1.2817230224609375;-7.57171630859375;-1.6533966064453125
1445426126436;255.22055053710938;-109.46717071533203;-6.878543853759766;2.0858612060546875;-10.5333251953125;-2.1045074462890625
1445426126469;260.8121643066406;-109.7583999633789;-8.31531810760498;0.987518310546875;-12.494644165039062;-2.8694305419921875
1445426126502;262.7430725097656;-109.92047119140625;-9.153990745544434;0.536407470703125;-12.59271240234375;-3.771636962890625
1445426126536;266.6372375488281;-109.80094146728516;-10.30003833770752;1.2032623291015625;-13.181106567382812;-4.026611328125
1445426126568;268.79571533203125;-108.79900360107422;-11.166494369506836;2.0270233154296875;-11.33746337890625;-2.9282684326171875
1445426126601;269.5995178222656;-108.06192779541016;-11.441819190979004;2.2035369873046875;-8.983871459960938;-1.4768829345703125
1445426126634;271.6630859375;-106.4526138305664;-11.62923526763916;1.75244140625;-7.80706787109375;-0.9669342041015625
1445426126667;273.0636291503906;-104.50981903076172;-11.8032865524292;0.6933135986328125;-6.355682373046875;-0.633514404296875
1445426126700;273.6496276855469;-103.43968963623047;-11.810322761535645;0.4383392333984375;-6.2576141357421875;-0.7904205322265625
1445426126734;275.191650390625;-101.28654479980469;-11.435349464416504;0.8894500732421875;-7.826690673828125;-0.9277191162109375
1445426126767;276.3399658203125;-100.11424255371094;-11.097837448120117;2.0074005126953125;-9.944915771484375;-0.9669342041015625
1445426126799;277.89154052734375;-97.09716033935547;-10.443292617797852;2.67425537109375;-10.278350830078125;-0.9277191162109375
1445426126832;278.8167724609375;-94.1988296508789;-9.926863670349121;3.57647705078125;-10.5921630859375;-2.281036376953125
1445426126865;279.8440856933594;-92.83965301513672;-9.728626251220703;3.5960845947265625;-10.984420776367188;-2.20257568359375
1445426126898;280.0357971191406;-92.72876739501953;-9.693711280822754;3.7137603759765625;-10.807907104492188;-1.5357208251953125
1445426126931;280.5970764160156;-92.9233627319336;-9.460358619689941;0.0068511962890625;-11.494369506835938;-0.7119598388671875
1445426126964;280.2777099609375;-92.90361785888672;-9.1108980178833;-1.405303955078125;-13.416473388671875;-2.8302001953125
1445426126997;279.302001953125;-92.3588638305664;-8.543730735778809;-2.9547576904296875;-11.10211181640625;-1.084625244140625
1445426127030;279.2306213378906;-94.17504119873047;-7.327565670013428;-0.6796112060546875;-10.631378173828125;-1.0257720947265625
1445426127065;280.1092529296875;-94.73006439208984;-6.421087265014648;0.2618255615234375;-9.984146118164062;-0.1627960205078125
1445426127096;282.09918212890625;-94.35543823242188;-4.896522521972656;-0.228515625;-9.493820190429688;-0.6727447509765625
1445426127130;283.60009765625;-93.30701446533203;-4.132023811340332;-0.6207733154296875;-9.258453369140625;-1.829925537109375
1445426127162;284.336669921875;-93.14422607421875;-3.9531912803649902;-0.4246368408203125;-9.650726318359375;-2.4771575927734375
1445426127195;285.2457580566406;-93.79476165771484;-3.7156620025634766;-0.2481231689453125;-9.866470336914062;-3.144012451171875
1445426127228;287.27801513671875;-95.94424438476562;-3.0099594593048096;-0.954193115234375;-8.88580322265625;-0.0843353271484375
1445426127261;288.0538024902344;-96.91796875;-2.5775444507598877;-0.6992340087890625;-9.434967041015625;0.01373291015625
1445426127294;287.6112060546875;-97.77658081054688;-2.270942449569702;-0.1304473876953125;-11.631668090820312;-1.06500244140625
1445426127327;287.13104248046875;-98.12733459472656;-2.3769421577453613;0.7325439453125;-10.729446411132812;1.190521240234375
1445426127360;286.9434509277344;-98.79006958007812;-2.1649935245513916;0.7717742919921875;-10.552932739257812;-0.9865570068359375
1445426127393;287.024169921875;-98.28069305419922;-2.0970561504364014;-1.2483978271484375;-10.611770629882812;-0.4766082763671875
1445426127426;286.8766784667969;-97.67786407470703;-2.3026838302612305;-1.5818328857421875;-9.709564208984375;-1.2415313720703125
1445426127460;286.54388427734375;-96.39649200439453;-2.59414005279541;-0.405029296875;-8.964248657226562;-2.1829681396484375
1445426127491;285.4200744628906;-95.62671661376953;-3.4139091968536377;-0.8169097900390625;-9.474197387695312;-2.7909698486328125
1445426127527;284.43701171875;-95.67497253417969;-3.9493143558502197;-0.895355224609375;-9.846847534179688;-3.0067291259765625
1445426127558;283.46563720703125;-96.67510986328125;-4.370349884033203;0.5756378173828125;-9.376129150390625;-2.37908935546875
1445426127592;282.76025390625;-98.40306854248047;-4.924118518829346;0.22259521484375;-9.90570068359375;-1.261138916015625
1445426127627;281.58209228515625;-99.11135864257812;-5.547704219818115;-1.522979736328125;-10.474472045898438;-0.3197021484375
1445426127657;277.73260498046875;-100.21331024169922;-6.799106121063232;-1.5033721923828125;-10.6510009765625;-0.633514404296875
1445426127690;275.4134216308594;-100.41388702392578;-7.416604042053223;-0.6207733154296875;-10.670608520507812;-0.5942840576171875
1445426127723;271.3577575683594;-100.45638275146484;-8.564438819885254;-0.3069610595703125;-10.513702392578125;-0.5942840576171875
1445426127756;267.92236328125;-100.02238464355469;-9.31892204284668;0.4579620361328125;-10.062606811523438;-0.6727447509765625
1445426127789;266.52191162109375;-99.67742919921875;-9.650821685791016;0.654083251953125;-9.925308227539062;-0.77081298828125
1445426127822;263.5367126464844;-98.75802612304688;-10.354514122009277;0.5756378173828125;-9.748779296875;-1.3984375
1445426127855;260.7839660644531;-97.87527465820312;-11.033767700195312;0.16375732421875;-9.533035278320312;-2.26141357421875
1445426127888;259.34185791015625;-97.63115692138672;-11.507044792175293;-0.2481231689453125;-9.493820190429688;-2.5359954833984375
1445426127920;256.55316162109375;-97.85916900634766;-12.597095489501953;-0.9345855712890625;-9.552658081054688;-2.26141357421875
1445426127954;253.07958984375;-99.2482681274414;-13.19116497039795;0.7521514892578125;-9.376129150390625;-3.34014892578125
1445426127986;250.52813720703125;-100.15083312988281;-13.354509353637695;0.7129364013671875;-10.847137451171875;-4.0070037841796875
1445426128021;245.1505126953125;-101.61473083496094;-12.960464477539062;0.9678955078125;-11.651275634765625;-3.6735687255859375
1445426128053;239.85287475585938;-103.30937957763672;-11.480325698852539;0.8894500732421875;-11.690505981445312;-1.7906951904296875
1445426128093;237.03225708007812;-104.04850769042969;-10.374290466308594;1.164031982421875;-11.670883178710938;0.935546875
1445426128119;228.9814453125;-104.62653350830078;-8.0368013381958;0.8502197265625;-11.16094970703125;2.092742919921875
1445426128155;224.73291015625;-104.75035095214844;-6.854247570037842;0.1833648681640625;-10.19989013671875;2.2888641357421875
1445426128185;216.98345947265625;-105.2165756225586;-4.256292343139648;0.34027099609375;-9.101547241210938;1.26898193359375
1445426128221;209.8385009765625;-105.67000579833984;-1.6690945625305176;1.6935882568359375;-9.768402099609375;0.30792236328125
1445426128253;206.14788818359375;-105.94293975830078;-0.5895172953605652;1.4582366943359375;-10.376419067382812;-0.0843353271484375
1445426128285;199.5906982421875;-107.11957550048828;1.2402433156967163;1.0267486572265625;-10.494094848632812;-0.064727783203125
1445426128317;194.7120361328125;-108.75199127197266;2.9050395488739014;0.6933135986328125;-11.21978759765625;-0.5942840576171875
1445426128350;192.1923828125;-109.40970611572266;3.503279447555542;1.12481689453125;-11.984695434570312;-0.4766082763671875
1445426128384;185.59912109375;-110.61619567871094;3.5673444271087646;2.0074005126953125;-12.788848876953125;0.621734619140625
1445426128418;179.20033264160156;-111.26677703857422;2.684683084487915;3.4784088134765625;-11.317855834960938;0.7786407470703125
1445426128448;177.29136657714844;-111.460693359375;2.3127167224884033;4.0471954345703125;-10.749069213867188;0.562896728515625
1445426128484;175.6007537841797;-111.62997436523438;1.6568598747253418;3.890289306640625;-9.395751953125;0.621734619140625
1445426128516;175.3614501953125;-111.52155303955078;1.2378621101379395;3.1449737548828125;-9.238845825195312;0.876708984375
1445426128548;176.02662658691406;-111.1431884765625;0.16590926051139832;2.61541748046875;-9.023101806640625;0.955169677734375
1445426128581;179.05943298339844;-110.62513732910156;-0.7974230647087097;2.55657958984375;-10.7098388671875;0.386383056640625
1445426128615;181.2244873046875;-110.3154525756836;-1.1161746978759766;2.419281005859375;-10.866744995117188;0.3471527099609375
1445426128648;187.1866455078125;-109.75157928466797;-1.6107079982757568;2.164306640625;-11.062881469726562;-0.0843353271484375
1445426128680;194.3828125;-109.13725280761719;-2.827923059463501;1.5955352783203125;-11.435531616210938;0.13140869140625
1445426128715;198.33538818359375;-108.85787963867188;-3.8695051670074463;1.2621002197265625;-11.670883178710938;0.327545166015625
1445426128746;207.402099609375;-108.38114166259766;-6.44434118270874;1.6347503662109375;-11.827789306640625;0.621734619140625
1445426128779;212.48300170898438;-108.33747100830078;-7.945521831512451;1.0267486572265625;-11.710113525390625;0.3471527099609375
1445426128812;222.69741821289062;-108.56805419921875;-11.130377769470215;0.16375732421875;-11.553207397460938;0.111785888671875
1445426128845;232.34280395507812;-109.10289001464844;-13.811352729797363;-1.5818328857421875;-10.807907104492188;-0.4373779296875
1445426128878;236.84136962890625;-109.35356140136719;-14.739557266235352;-2.2094573974609375;-9.474197387695312;-1.6730194091796875
1445426128912;244.95556640625;-109.33956909179688;-15.581721305847168;-2.032928466796875;-9.199615478515625;-2.6144561767578125
1445426128945;251.810546875;-109.12494659423828;-15.153419494628906;-1.20916748046875;-8.787734985351562;-3.7520294189453125
1445426128979;255.1632080078125;-109.20872497558594;-14.518149375915527;-0.542327880859375;-8.4346923828125;-4.2031402587890625
1445426129010;261.1201171875;-109.29692840576172;-12.791715621948242;0.9482879638671875;-8.218948364257812;-5.3799285888671875
1445426129042;263.1307067871094;-109.0584945678711;-12.090727806091309;2.7723236083984375;-7.885528564453125;-4.791534423828125
1445426129076;265.3276672363281;-108.38992309570312;-11.304584503173828;3.51763916015625;-7.610931396484375;-4.222747802734375
1445426129109;266.5003662109375;-107.37631225585938;-10.826276779174805;3.831451416015625;-9.042709350585938;-4.9288177490234375
1445426129142;267.44580078125;-105.89020538330078;-10.533575057983398;5.1063079833984375;-14.534439086914062;-5.301483154296875
1445426129175;268.0526428222656;-105.46599578857422;-10.673151969909668;3.57647705078125;-12.906524658203125;-4.458099365234375
1445426129207;270.2049255371094;-105.94210815429688;-10.573352813720703;1.53668212890625;-7.0225372314453125;0.6021270751953125
1445426129241;275.25750732421875;-105.66085815429688;-8.977993965148926;0.536407470703125;-10.788284301757812;-0.4373779296875
1445426129275;277.8345642089844;-104.9588851928711;-8.395284652709961;-0.267730712890625;-10.6510009765625;-1.3003692626953125
1445426129307;282.8863220214844;-104.13115692138672;-6.879772663116455;-0.718841552734375;-9.650726318359375;-3.3597564697265625
1445426129340;285.22216796875;-104.12718963623047;-6.079587936401367;-1.3660736083984375;-8.297409057617188;-3.202850341796875
1445426129373;288.4527587890625;-105.18815612792969;-3.817599058151245;-1.287628173828125;-8.022811889648438;-3.0655670166015625
1445426129405;290.1608581542969;-105.7211685180664;-0.8037091493606567;-0.8757476806640625;-9.081939697265625;-1.4768829345703125
1445426129439;291.1403503417969;-105.6209716796875;0.387471079826355;-0.1892852783203125;-9.650726318359375;-1.6533966064453125
1445426129471;292.6160888671875;-105.71636199951172;0.9699774980545044;-1.3072357177734375;-10.690231323242188;-1.18267822265625
1445426129505;294.39178466796875;-105.32759857177734;1.2464967966079712;-1.169952392578125;-12.220062255859375;-1.18267822265625
1445426129538;294.1453552246094;-104.6729736328125;1.2381210327148438;-1.0522613525390625;-12.494644165039062;-0.868865966796875
1445426129571;292.59246826171875;-102.35786437988281;1.3316993713378906;-0.34619140625;-11.651275634765625;-1.06500244140625
1445426129604;291.1690673828125;-99.49663543701172;1.2730556726455688;0.0853118896484375;-10.337188720703125;-1.496490478515625
1445426129637;290.4017333984375;-98.18453216552734;1.2497693300247192;0.0656890869140625;-9.3369140625;-1.5945587158203125
1445426129670;288.39117431640625;-96.16085052490234;1.0918205976486206;-0.5030975341796875;-8.395462036132812;-2.2418060302734375
1445426129703;287.18328857421875;-95.74348449707031;0.9508537650108337;-0.954193115234375;-8.748504638671875;-2.2418060302734375
1445426129736;284.6915283203125;-96.64088439941406;0.6555997729301453;-1.2483978271484375;-9.140777587890625;-2.1829681396484375
1445426129769;281.529541015625;-98.98412322998047;0.17925691604614258;-1.15032958984375;-8.611221313476562;-0.0254974365234375
1445426129802;280.3670654296875;-100.07556915283203;-0.14258547127246857;-1.2680206298828125;-8.2581787109375;1.0924530029296875
1445426129835;278.07171630859375;-101.15699005126953;-0.6660609245300293;-0.7384490966796875;-11.298233032226562;0.0921783447265625
1445426129868;274.8177795410156;-100.8530502319336;-0.8556154370307922;-0.97381591796875;-13.710678100585938;-0.692352294921875
1445426129901;272.8822326660156;-100.3007583618164;-0.7921478748321533;-1.405303955078125;-13.84796142578125;-0.9080963134765625
1445426129935;268.1519775390625;-99.09620666503906;-0.4650607407093048;-0.660003662109375;-12.788848876953125;-1.18267822265625
1445426129968;263.648193359375;-98.06034851074219;-0.4160953760147095;-0.1696624755859375;-11.023651123046875;-1.0257720947265625
1445426130000;261.73638916015625;-97.60881805419922;-0.489766389131546;-0.267730712890625;-10.003753662109375;-0.633514404296875
1445426130034;258.17852783203125;-96.71947479248047;-0.39767390489578247;-0.4246368408203125;-8.3758544921875;-0.064727783203125
1445426130067;254.92269897460938;-95.58499908447266;0.048526789993047714;0.0853118896484375;-7.12060546875;0.680572509765625
1445426130099;253.51382446289062;-94.9119873046875;0.16740475594997406;0.418731689453125;-6.6498870849609375;1.0336151123046875
1445426130132;250.64108276367188;-93.37242889404297;-0.2852572202682495;0.9090576171875;-7.2775115966796875;0.2098541259765625
1445426130164;249.4349365234375;-92.54537963867188;-0.8482944369316101;0.8306121826171875;-8.277786254882812;0.01373291015625
1445426130198;247.94378662109375;-91.12821197509766;-2.103562831878662;-0.1696624755859375;-13.965652465820312;-1.18267822265625
1445426130230;246.52572631835938;-90.52598571777344;-3.0829017162323;-0.1304473876953125;-15.338577270507812;-2.5948486328125
1445426130265;245.34619140625;-90.78401184082031;-3.5531554222106934;1.497467041015625;-14.102935791015625;-3.3793792724609375
1445426130296;244.200439453125;-92.18295288085938;-4.883674144744873;2.1446990966796875;-11.90625;-2.7125244140625
1445426130330;245.24502563476562;-94.90760040283203;-6.340896129608154;-0.542327880859375;-8.5523681640625;0.19024658203125
1445426130363;245.33016967773438;-96.44635009765625;-6.827620029449463;-1.09149169921875;-7.552093505859375;0.562896728515625
1445426130396;241.30267333984375;-98.85750579833984;-7.104099750518799;-1.287628173828125;-7.2775115966796875;0.504058837890625
1445426130429;236.5679931640625;-100.98876953125;-5.946870803833008;0.6344757080078125;-7.9835968017578125;0.896331787109375
1445426130462;235.96783447265625;-102.26725769042969;-4.764505386352539;1.2621002197265625;-8.003204345703125;1.014007568359375
1445426130495;235.68881225585938;-104.40666198730469;-1.7605552673339844;2.8899993896484375;-8.650436401367188;0.680572509765625
1445426130528;235.107666015625;-105.18570709228516;-0.3324374258518219;3.380340576171875;-9.434967041015625;0.2686920166015625
1445426130561;233.1669921875;-106.18856048583984;1.5622166395187378;4.498291015625;-13.377243041992188;-1.3984375
1445426130594;231.95803833007812;-107.33861541748047;2.328068494796753;3.9687347412109375;-15.828903198242188;-1.5945587158203125
1445426130628;231.64288330078125;-107.92190551757812;2.2359142303466797;3.2038116455078125;-15.122833251953125;-1.5553436279296875
1445426130660;231.71319580078125;-108.84645080566406;1.8506356477737427;2.125091552734375;-14.004867553710938;-1.3395843505859375
1445426130693;231.98263549804688;-109.49580383300781;1.528014063835144;1.9485626220703125;-11.729736328125;-1.2415313720703125
1445426130726;231.9879150390625;-109.67300415039062;1.4013291597366333;1.6543731689453125;-9.886077880859375;-0.810028076171875
1445426130759;231.841064453125;-110.1374282836914;1.1197680234909058;0.987518310546875;-6.5322113037109375;-0.0451202392578125
1445426130794;232.07199096679688;-110.48149108886719;0.9954032897949219;0.9090576171875;-4.845458984375;-0.1431732177734375
1445426130824;233.31069946289062;-111.19804382324219;0.4958779215812683;0.869842529296875;-4.8062286376953125;-0.2020263671875
1445426130858;236.0042724609375;-112.01187896728516;0.25283393263816833;1.0071258544921875;-6.43414306640625;-1.1042327880859375
1445426130892;238.03518676757812;-112.3813247680664;0.4578682780265808;0.4383392333984375;-8.415084838867188;-1.6141815185546875
1445426130923;243.72906494140625;-112.85678100585938;1.6940499544143677;0.6737060546875;-8.76812744140625;-2.1633453369140625
1445426130957;250.3492431640625;-112.6856460571289;2.756260633468628;1.3993988037109375;-13.49493408203125;-3.7520294189453125
1445426130990;253.595458984375;-112.3599853515625;2.656365156173706;0.3991241455078125;-14.887466430664062;-4.36004638671875
1445426131022;257.7218017578125;-111.40162658691406;0.9907853603363037;0.3795013427734375;-14.632492065429688;-4.144287109375
1445426131056;259.8817138671875;-110.93634796142578;-1.6103812456130981;1.046356201171875;-12.612335205078125;-4.4973297119140625
1445426131089;260.4744873046875;-110.81612396240234;-2.9759347438812256;0.7717742919921875;-10.9451904296875;-3.908935546875
1445426131122;262.2803955078125;-110.58271026611328;-5.309598922729492;0.7325439453125;-7.5913238525390625;-2.2221832275390625
1445426131155;263.9830017089844;-110.24185943603516;-7.919208526611328;0.301055908203125;-5.9438018798828125;-1.7318572998046875
1445426131192;264.58148193359375;-110.00856018066406;-9.252545356750488;0.2029876708984375;-6.2772369384765625;-1.7318572998046875
1445426131221;265.8642883300781;-109.47794342041016;-11.274852752685547;0.4383392333984375;-7.6501617431640625;-2.2221832275390625
1445426131254;266.7680358886719;-109.0592269897461;-11.817337989807129;1.6347503662109375;-9.376129150390625;-3.3205413818359375
1445426131287;269.7970275878906;-107.91888427734375;-11.843103408813477;2.125091552734375;-9.101547241210938;-3.28131103515625
1445426131320;272.8675537109375;-106.37496948242188;-11.016844749450684;2.32122802734375;-8.3758544921875;-2.4967803955078125
1445426131355;273.58807373046875;-103.76420593261719;-10.074882507324219;2.5369720458984375;-8.336624145507812;-1.810302734375
1445426131385;273.3321533203125;-101.85360717773438;-9.51673698425293;2.9096221923828125;-8.964248657226562;-1.261138916015625
1445426131419;272.1167297363281;-97.5178451538086;-8.450222969055176;3.7922210693359375;-9.474197387695312;-1.319976806640625
1445426131452;271.6072692871094;-95.57684326171875;-8.038190841674805;4.066802978515625;-9.827239990234375;-1.947601318359375
1445426131485;271.48712158203125;-94.00956726074219;-7.655424118041992;4.77288818359375;-10.964813232421875;-2.1829681396484375
1445426131519;272.42120361328125;-94.87248992919922;-8.07430362701416;3.3018798828125;-11.808181762695312;0.4059906005859375
1445426131551;272.50933837890625;-95.17483520507812;-8.099488258361816;0.9678955078125;-14.730560302734375;-4.8896026611328125
1445426131586;270.82672119140625;-95.1932373046875;-7.9258928298950195;-3.798126220703125;-9.533035278320312;0.4648284912109375
1445426131618;272.1487731933594;-97.0564193725586;-6.165073871612549;-1.6602783203125;-11.847412109375;-0.3981475830078125
1445426131651;272.1937561035156;-96.73213958740234;-5.472780704498291;-1.15032958984375;-12.337738037109375;-0.1039581298828125
1445426131684;273.36712646484375;-95.63509368896484;-3.9760212898254395;-1.287628173828125;-10.572540283203125;-0.6138916015625
1445426131716;274.1185607910156;-94.78096771240234;-3.2226452827453613;-1.2680206298828125;-9.160385131835938;-1.319976806640625
1445426131751;275.62640380859375;-93.07069396972656;-2.252920627593994;-0.7580718994140625;-8.88580322265625;-2.08489990234375
1445426131782;275.79083251953125;-92.16178894042969;-2.011244535446167;0.3991241455078125;-9.042709350585938;-3.85009765625
1445426131818;276.446533203125;-92.2245101928711;-2.0471017360687256;0.654083251953125;-9.395751953125;-3.8697052001953125
1445426131848;277.8003845214844;-93.73872375488281;-1.9825729131698608;0.0068511962890625;-9.219223022460938;-2.7321319580078125
1445426131881;279.2049255371094;-95.85516357421875;-1.335019826889038;-0.4638671875;-9.160385131835938;0.24908447265625
1445426131915;279.1080322265625;-96.89307403564453;-1.055518627166748;-0.85614013671875;-9.572265625;0.0921783447265625
1445426131947;277.07183837890625;-98.36786651611328;-0.8511292338371277;0.0068511962890625;-11.690505981445312;0.327545166015625
1445426131982;275.9658508300781;-98.24433898925781;-0.17649579048156738;-0.9934234619140625;-11.082489013671875;-0.9080963134765625
1445426132013;276.31207275390625;-97.70083618164062;0.26785197854042053;-0.7580718994140625;-11.239395141601562;-0.751190185546875
1445426132045;277.2353210449219;-96.3288345336914;0.6482892632484436;-0.267730712890625;-10.670608520507812;-1.1042327880859375
1445426132079;276.9627685546875;-95.59675598144531;0.7668055891990662;-0.9934234619140625;-9.101547241210938;-2.14373779296875
1445426132112;276.3283386230469;-94.24641418457031;1.0163462162017822;-1.111114501953125;-8.454315185546875;-2.26141357421875
1445426132145;274.82025146484375;-94.45220947265625;0.917193591594696;-1.0130462646484375;-8.670059204101562;-2.6536865234375
1445426132178;273.6904296875;-95.22344970703125;0.8105964064598083;-1.3072357177734375;-8.670059204101562;-2.8498077392578125
1445426132210;271.4136657714844;-97.52962493896484;0.6064672470092773;-1.20916748046875;-9.00347900390625;-1.3984375
1445426132244;269.93072509765625;-99.59249114990234;0.18839232623577118;-0.326568603515625;-10.042984008789062;-1.143463134765625
1445426132278;268.935791015625;-100.5431900024414;-0.12765119969844818;-0.228515625;-10.631378173828125;-1.00616455078125
1445426132310;267.248046875;-101.28619384765625;-0.7138005495071411;-0.6796112060546875;-12.9849853515625;-1.0453948974609375
1445426132343;265.2085266113281;-100.3396987915039;-1.0017563104629517;-1.5818328857421875;-11.78857421875;-0.4569854736328125
1445426132376;264.1101379394531;-99.32001495361328;-0.8371992111206055;-0.8169097900390625;-10.788284301757812;-0.4766082763671875
1445426132408;261.80828857421875;-96.24427795410156;-0.3530444800853729;0.869842529296875;-8.689666748046875;-1.0257720947265625
1445426132442;260.71466064453125;-94.50996398925781;-0.3645450174808502;0.8109893798828125;-7.7678375244140625;-1.378814697265625
1445426132475;259.3261413574219;-91.63172149658203;-0.8870721459388733;0.4971771240234375;-8.1993408203125;-1.3984375
1445426132508;257.92877197265625;-89.5360336303711;-1.9097620248794556;-0.5030975341796875;-9.925308227539062;-1.888763427734375
1445426132541;257.38079833984375;-88.87220764160156;-2.555173635482788;-1.03265380859375;-10.807907104492188;-1.712249755859375
1445426132574;256.5367736816406;-88.76932525634766;-3.3269712924957275;-0.6992340087890625;-10.356796264648438;-2.3006439208984375
1445426132607;254.99069213867188;-90.04552459716797;-3.8480875492095947;-0.4442596435546875;-9.140777587890625;-1.8495330810546875
1445426132641;255.19412231445312;-91.32897186279297;-4.1794233322143555;0.1245269775390625;-9.90570068359375;-1.319976806640625
1445426132673;255.73464965820312;-94.76749420166016;-4.443848133087158;1.615142822265625;-13.534149169921875;-2.02606201171875
1445426132706;254.2305908203125;-98.75971984863281;-4.235709190368652;2.4585113525390625;-13.84796142578125;-2.5359954833984375
1445426132739;252.57376098632812;-101.28868103027344;-4.04840087890625;2.360443115234375;-13.592987060546875;-1.7906951904296875
1445426132773;249.1058349609375;-105.53661346435547;-3.7815022468566895;0.4971771240234375;-11.729736328125;0.1706390380859375
1445426132806;246.70718383789062;-106.68395233154297;-3.6458942890167236;1.0855865478515625;-9.415359497070312;-0.2804718017578125
1445426132837;241.92422485351562;-107.91067504882812;-2.6499600410461426;1.9681854248046875;-9.160385131835938;-0.3589324951171875
1445426132871;239.0572509765625;-108.97700500488281;-0.7633747458457947;3.1645965576171875;-6.9048614501953125;-0.4177703857421875
1445426132905;238.250732421875;-109.27386474609375;0.22797523438930511;2.360443115234375;-6.0418701171875;-0.868865966796875
1445426132937;236.8812255859375;-109.57247924804688;2.1153085231781006;-0.208892822265625;-5.8065185546875;-1.3592071533203125
1445426132970;236.45672607421875;-110.0814208984375;3.838573455810547;1.164031982421875;-8.081649780273438;-1.143463134765625
1445426133004;236.53094482421875;-110.28559875488281;4.542117118835449;2.0270233154296875;-9.68994140625;-1.96722412109375
1445426133036;236.86590576171875;-110.58749389648438;5.919380187988281;1.30133056640625;-11.827789306640625;-3.7520294189453125
1445426133068;236.74398803710938;-111.54798126220703;6.372431755065918;0.7129364013671875;-11.376693725585938;-2.516387939453125
1445426133101;236.75103759765625;-111.86748504638672;6.079309463500977;1.615142822265625;-12.41619873046875;-1.7906951904296875
1445426133136;236.679443359375;-111.77119445800781;4.465516090393066;2.6546478271484375;-14.161773681640625;-2.006439208984375
1445426133188;236.4097900390625;-111.30342102050781;2.4610629081726074;0.987518310546875;-11.494369506835938;-3.1047821044921875
1445426133222;236.6324462890625;-110.46409606933594;0.5649272799491882;0.4383392333984375;-10.356796264648438;-2.967498779296875
1445426133272;238.6856689453125;-109.486328125;-1.790195345878601;-0.0519866943359375;-6.689117431640625;-2.14373779296875
1445426133299;239.30990600585938;-109.44895935058594;-2.6125388145446777;0.0068511962890625;-6.0026397705078125;-2.1829681396484375
1445426133324;239.806640625;-109.59288787841797;-3.4065401554107666;0.026458740234375;-5.845733642578125;-2.37908935546875
1445426133377;240.87185668945312;-110.32431030273438;-5.047138214111328;0.2618255615234375;-5.610382080078125;-1.888763427734375
1445426133400;241.244384765625;-110.53471374511719;-5.4300761222839355;2.73309326171875;-8.630828857421875;-2.516387939453125
1445426133420;241.6329345703125;-110.695068359375;-5.7731099128723145;4.3610076904296875;-11.317855834960938;-2.9871063232421875
1445426133530;244.96929931640625;-112.51233673095703;-9.97453784942627;4.243316650390625;-15.593551635742188;-4.9876708984375
1445426133534;245.17642211914062;-112.24690246582031;-10.817440032958984;4.243316650390625;-15.593551635742188;-4.9876708984375
1445426133563;244.4991455078125;-111.28718566894531;-11.56667709350586;2.811553955078125;-13.828353881835938;-3.34014892578125
1445426133596;241.35992431640625;-107.7294921875;-12.337308883666992;1.0659637451171875;-8.3170166015625;-0.1431732177734375
1445426133630;240.96771240234375;-106.22370147705078;-12.103477478027344;0.6148681640625;-6.61065673828125;-0.0254974365234375
1445426133663;243.11520385742188;-104.39856719970703;-10.660568237304688;0.0853118896484375;-3.5902099609375;-0.515838623046875
1445426133696;246.63677978515625;-102.93451690673828;-9.029438972473145;0.595245361328125;-0.079437255859375;0.01373291015625
1445426133729;247.85397338867188;-102.29304504394531;-8.37122917175293;1.5170745849609375;0.881622314453125;-0.515838623046875
1445426133761;248.99447631835938;-101.19094848632812;-7.133676052093506;3.5372467041015625;0.39129638671875;-4.3011932373046875
1445426133795;250.25308227539062;-101.48321533203125;-6.962982654571533;0.8502197265625;-7.9051361083984375;-2.14373779296875
1445426133831;253.12078857421875;-102.46257019042969;-6.351705551147461;-2.150604248046875;-17.20184326171875;-1.12384033203125
1445426133861;259.25799560546875;-102.91571044921875;-4.150333881378174;-2.8762969970703125;-23.713455200195312;-5.0072784423828125
1445426133894;259.83685302734375;-103.47423553466797;-3.8105416297912598;-2.621337890625;-21.497146606445312;-0.6531219482421875
1445426133927;260.78997802734375;-104.45191192626953;-3.8059072494506836;-3.288177490234375;-21.967864990234375;-0.182403564453125
1445426133959;258.4457092285156;-100.728759765625;-2.3465683460235596;-1.7779541015625;-19.280853271484375;-2.02606201171875
1445426133993;256.83416748046875;-98.39846801757812;-1.622861623764038;2.2035369873046875;-12.121994018554688;-3.144012451171875
1445426134026;254.38784790039062;-95.21873474121094;-0.7846595644950867;3.69415283203125;-7.3951873779296875;-2.7125244140625
1445426134059;253.85186767578125;-94.27861022949219;-0.7143709063529968;0.9482879638671875;-0.45208740234375;-3.45782470703125
1445426134100;257.1419372558594;-94.99019622802734;-0.5956390500068665;-1.20916748046875;1.5288543701171875;-1.319976806640625
1445426134125;258.6053466796875;-95.78581237792969;-0.3422406017780304;-1.1895599365234375;1.8622894287109375;1.32781982421875
1445426134157;258.97430419921875;-95.89814758300781;0.5004048347473145;-1.797576904296875;0.2932281494140625;1.249359130859375
1445426134192;257.63818359375;-95.50520324707031;0.9741343259811401;-1.3072357177734375;-0.5305328369140625;-0.2804718017578125
1445426134224;255.91812133789062;-95.670166015625;1.1342082023620605;2.10546875;-2.589935302734375;-1.810302734375
1445426134257;253.49151611328125;-96.44549560546875;0.3019094467163086;5.7535552978515625;-17.241073608398438;-1.51611328125
1445426134289;254.88336181640625;-100.31941986083984;-0.9995105862617493;0.5756378173828125;-21.399093627929688;0.1510162353515625
1445426134323;261.68035888671875;-100.68887329101562;1.796038031578064;-4.8964691162109375;-21.202957153320312;-0.9277191162109375
1445426134355;261.53814697265625;-100.63374328613281;2.1577398777008057;-1.09149169921875;-24.32147216796875;-1.9279937744140625
1445426134388;261.4053955078125;-99.68257904052734;1.1512973308563232;0.1833648681640625;-22.04632568359375;0.1510162353515625
1445426134422;262.5131530761719;-96.47620391845703;0.8071689009666443;-0.4246368408203125;-19.731948852539062;-0.2608642578125
1445426134457;262.30560302734375;-93.89995574951172;0.9468269348144531;0.6933135986328125;-8.925033569335938;-3.9285430908203125
1445426134488;259.9609375;-90.00572967529297;1.1013641357421875;0.7717742919921875;-5.0219879150390625;-3.34014892578125
1445426134520;259.6383361816406;-89.75291442871094;1.097415566444397;0.359893798828125;0.0382537841796875;-3.771636962890625
1445426134554;259.7888488769531;-90.2668685913086;0.8824082016944885;-0.34619140625;1.391571044921875;-2.32025146484375
1445426134586;260.2137756347656;-91.64164733886719;0.6684260368347168;-1.974090576171875;0.940460205078125;1.1120758056640625
1445426134621;260.8594970703125;-91.49999237060547;1.4201347827911377;-2.1309967041015625;-0.7266693115234375;0.4059906005859375
1445426134657;260.1769714355469;-91.37947845458984;2.187004327774048;0.7521514892578125;-0.3540191650390625;1.4062652587890625
1445426134686;259.0247802734375;-91.98841857910156;3.162273406982422;3.0076904296875;-0.9620208740234375;0.01373291015625
1445426134719;257.81988525390625;-92.8174819946289;2.9387168884277344;5.1847686767578125;-14.671722412109375;0.562896728515625
1445426134752;251.114501953125;-95.507080078125;0.9185000061988831;0.3991241455078125;-23.674224853515625;-0.4373779296875
1445426134787;255.23104858398438;-97.66541290283203;1.518949031829834;-3.8177490234375;-22.517044067382812;-1.3984375
1445426134819;255.11444091796875;-98.20170593261719;2.0495688915252686;-2.9547576904296875;-20.379196166992188;-0.88848876953125
1445426134851;255.85601806640625;-99.04582214355469;2.0964510440826416;0.026458740234375;-21.909027099609375;1.26898193359375
1445426134884;256.2274169921875;-97.15351104736328;1.260237216949463;0.5167999267578125;-19.339691162109375;0.24908447265625
1445426134917;256.3746337890625;-95.76676940917969;1.100182294845581;0.8306121826171875;-16.260406494140625;-0.810028076171875
1445426134950;256.2423095703125;-92.62496948242188;1.3734828233718872;0.9482879638671875;-8.022811889648438;-2.4967803955078125
1445426134983;254.98513793945312;-90.42547607421875;1.8116579055786133;-0.8757476806640625;-2.1584320068359375;-3.4185943603515625
1445426135015;255.18597412109375;-90.15859985351562;1.8694881200790405;-0.58154296875;-0.6089935302734375;-3.9677734375
1445426135050;256.1669616699219;-90.94863891601562;1.379462718963623;-0.3069610595703125;1.273895263671875;-0.515838623046875
1445426135082;256.5321960449219;-91.29449462890625;1.2402729988098145;-3.111663818359375;0.8423919677734375;1.9358367919921875
1445426135115;256.7752685546875;-90.84336853027344;2.033053398132324;-2.1898345947265625;-0.177490234375;1.7200775146484375
1445426135148;255.30300903320312;-90.32030487060547;2.834867238998413;3.51763916015625;-5.5123138427734375;-2.8105926513671875
1445426135182;251.78375244140625;-90.8454818725586;2.443509817123413;5.1651458740234375;-17.751007080078125;-2.5948486328125
1445426135215;250.06158447265625;-94.34195709228516;0.48861029744148254;1.18365478515625;-17.221450805664062;-0.4177703857421875
1445426135247;255.69097900390625;-96.29305267333984;2.391120195388794;-7.328521728515625;-22.4385986328125;-5.477996826171875
1445426135280;254.745849609375;-96.14688873291016;3.671755313873291;-4.50421142578125;-18.613998413085938;-1.3984375
1445426135313;254.57867431640625;-98.23588562011719;2.5315229892730713;-0.287353515625;-14.92669677734375;0.81787109375
1445426135346;255.80172729492188;-97.0482177734375;1.0763713121414185;0.1245269775390625;-15.240509033203125;0.386383056640625
1445426135379;256.44268798828125;-95.43423461914062;0.9134262800216675;-0.267730712890625;-13.67144775390625;0.562896728515625
1445426135412;256.8589172363281;-91.66243743896484;0.5069876313209534;-0.2481231689453125;-9.376129150390625;-0.574676513671875
1445426135444;255.94406127929688;-89.68730926513672;0.3851572573184967;0.301055908203125;-5.845733642578125;-2.14373779296875
1445426135478;255.7574462890625;-86.6862564086914;-0.08675368130207062;0.4579620361328125;-5.1396636962890625;-2.20257568359375
1445426135539;255.43072509765625;-85.72108459472656;-1.3849658966064453;-3.4450836181640625;-6.7675628662109375;-1.712249755859375
1445426135547;255.43072509765625;-85.72108459472656;-1.3849658966064453;-3.562774658203125;-9.199615478515625;-2.4183197021484375
1445426135577;254.4326171875;-87.7762222290039;-1.6901414394378662;-0.6207733154296875;-13.90679931640625;-3.908935546875
1445426135610;251.92880249023438;-89.40646362304688;-1.9276808500289917;0.595245361328125;-12.906524658203125;1.32781982421875
1445426135644;251.8570556640625;-90.51387786865234;-2.4485809803009033;-2.7586212158203125;-14.240234375;-0.3785400390625
1445426135676;251.6787109375;-91.16284942626953;-2.753692626953125;-1.4249267578125;-14.92669677734375;-0.5942840576171875
1445426135709;249.7877197265625;-90.7370834350586;-2.960200786590576;0.418731689453125;-10.788284301757812;-1.437652587890625
1445426135742;248.6783447265625;-90.93699645996094;-3.2499194145202637;-0.150054931640625;-8.728897094726562;-1.574951171875
1445426135774;246.89288330078125;-93.34610748291016;-2.9324231147766113;0.3206634521484375;-6.5125885009765625;-1.261138916015625
1445426135808;245.39398193359375;-96.87830352783203;-2.0758841037750244;1.5759124755859375;-6.944091796875;-0.692352294921875
1445426135840;245.01803588867188;-98.60279083251953;-1.691755771636963;1.6347503662109375;-6.7871856689453125;-0.5550537109375
1445426135874;244.69027709960938;-102.25637817382812;-0.5891193151473999;1.98779296875;-5.2573394775390625;-1.143463134765625
1445426135907;244.642822265625;-104.18244934082031;0.18107886612415314;2.4585113525390625;-6.061492919921875;-1.3395843505859375
1445426135940;246.00570678710938;-107.1331558227539;1.821580171585083;3.69415283203125;-12.239669799804688;-1.6533966064453125
1445426135973;246.26953125;-108.866943359375;2.510101318359375;4.380615234375;-17.025314331054688;-3.1047821044921875
1445426136008;245.94345092773438;-109.79566192626953;2.288809299468994;3.6745452880859375;-17.7117919921875;-3.908935546875
1445426136039;245.09307861328125;-111.26031494140625;1.3201617002487183;2.5369720458984375;-17.535263061523438;-4.41888427734375
1445426136072;245.04281616210938;-111.70378875732422;1.0425100326538086;2.5761871337890625;-13.965652465820312;-3.1047821044921875
1445426136106;246.76925659179688;-111.35100555419922;1.130105972290039;1.9093475341796875;-11.572830200195312;-2.7321319580078125
1445426136137;248.60821533203125;-110.32569885253906;1.3189356327056885;-0.7580718994140625;-6.983306884765625;-2.32025146484375
1445426136171;249.6212158203125;-109.78475189208984;1.3899825811386108;-1.4249267578125;-3.3548583984375;-1.202301025390625
1445426136205;251.22225952148438;-108.7984848022461;0.98078453540802;-1.2483978271484375;-2.2957305908203125;-0.9669342041015625
1445426136236;252.11968994140625;-108.31134796142578;0.40934357047080994;-0.58154296875;-2.2368927001953125;-1.437652587890625
1445426136273;252.7740478515625;-108.25248718261719;0.4526123106479645;0.869842529296875;-3.7667236328125;-2.575225830078125
1445426136303;254.46066284179688;-108.58062744140625;1.1525765657424927;1.3993988037109375;-5.35540771484375;-3.0459442138671875
1445426136336;256.0438537597656;-108.99225616455078;2.09317946434021;1.9093475341796875;-11.51397705078125;-3.3793792724609375
1445426136369;256.3502197265625;-109.41629028320312;2.148569107055664;1.6935882568359375;-14.965927124023438;-4.105072021484375
1445426136401;256.6474304199219;-111.09199523925781;0.36395591497421265;0.1441497802734375;-15.6719970703125;-6.92938232421875
1445426136435;256.8917236328125;-112.64893341064453;-3.0386626720428467;2.301605224609375;-15.907363891601562;-7.16473388671875
1445426136467;257.3203430175781;-112.93523406982422;-4.497777938842773;2.8311614990234375;-16.12310791015625;-6.7136383056640625
1445426136502;257.56793212890625;-112.2502212524414;-6.53692102432251;0.7129364013671875;-13.455703735351562;-4.7523040771484375
1445426136533;257.0606689453125;-111.66107177734375;-7.330752372741699;-0.6796112060546875;-9.415359497070312;-2.8694305419921875
1445426136567;255.02255249023438;-110.25104522705078;-8.72064208984375;-0.836517333984375;-5.5711517333984375;-1.5357208251953125
1445426136601;253.2808837890625;-108.68997192382812;-9.811470031738281;0.3795013427734375;-2.589935302734375;-1.3592071533203125
1445426136633;252.99929809570312;-108.06961822509766;-10.17371940612793;0.654083251953125;-1.0993194580078125;-1.574951171875
1445426136667;252.94677734375;-107.38560485839844;-10.59048843383789;1.0267486572265625;-1.2169952392578125;-1.947601318359375
1445426136699;251.29049682617188;-107.27220153808594;-11.031967163085938;2.3408355712890625;-5.1396636962890625;-2.7517547607421875
1445426136733;249.427978515625;-107.04817962646484;-11.380931854248047;3.1253662109375;-9.06231689453125;-2.6536865234375
1445426136765;246.14703369140625;-105.99330139160156;-11.9158296585083;6.6753692626953125;-15.201278686523438;-3.830474853515625
1445426136799;245.93136596679688;-105.1579818725586;-12.600211143493652;6.1850433349609375;-15.240509033203125;-4.1246795654296875
1445426136834;245.95550537109375;-104.78726959228516;-12.607934951782227;4.635589599609375;-11.572830200195312;-1.8495330810546875
1445426136863;246.72274780273438;-103.22749328613281;-11.637866973876953;3.6549224853515625;-9.356521606445312;-0.94732666015625
1445426136897;247.9017333984375;-101.09127044677734;-10.69477653503418;3.0076904296875;-5.6496124267578125;-0.4373779296875
1445426136930;248.09414672851562;-99.96705627441406;-10.736371040344238;3.0861358642578125;-4.0609283447265625;-0.4766082763671875
1445426136963;249.51171875;-98.2729263305664;-11.891357421875;4.262939453125;-5.6496124267578125;-0.6138916015625
1445426136996;249.98089599609375;-98.20519256591797;-12.810990333557129;1.164031982421875;-12.906524658203125;-8.321929931640625
1445426137028;249.84408569335938;-99.64005279541016;-13.107721328735352;-7.701171875;-15.632781982421875;-2.575225830078125
1445426137062;257.05279541015625;-103.14472961425781;-9.749009132385254;-0.777679443359375;-12.573104858398438;-0.692352294921875
1445426137095;257.08233642578125;-103.82366180419922;-9.050437927246094;-2.7586212158203125;-15.4366455078125;-0.005889892578125
1445426137128;261.5442199707031;-103.57380676269531;-7.613853931427002;-3.0135955810546875;-16.495758056640625;0.0921783447265625
1445426137160;261.916259765625;-100.04100799560547;-5.112735271453857;-1.1895599365234375;-12.730010986328125;0.2098541259765625
1445426137195;260.3587646484375;-97.83116149902344;-4.379662990570068;0.4971771240234375;-10.415634155273438;-0.5942840576171875
1445426137227;258.2337646484375;-94.5489730834961;-3.835346221923828;2.419281005859375;-8.277786254882812;-3.4185943603515625
1445426137259;258.0041809082031;-93.57266998291016;-3.79715895652771;2.5173492431640625;-6.6498870849609375;-5.5172271728515625
1445426137293;257.3238220214844;-93.29180908203125;-4.380655765533447;0.7521514892578125;-6.120330810546875;-5.242645263671875
1445426137326;257.40008544921875;-94.71748352050781;-4.515429973602295;-2.7782440185546875;-5.29656982421875;-2.5948486328125
1445426137359;256.5871887207031;-95.85343170166016;-4.3135199546813965;-2.5624847412109375;-4.7473907470703125;2.0338897705078125
1445426137392;254.15032958984375;-98.41172790527344;-4.204812526702881;-2.8762969970703125;-7.5128631591796875;3.1910858154296875
1445426137425;251.39846801757812;-99.38359832763672;-3.8873887062072754;3.1842041015625;-15.3189697265625;-4.0070037841796875
1445426137457;249.41162109375;-100.02018737792969;-4.309566497802734;-0.954193115234375;-14.92669677734375;-0.3589324951171875
1445426137491;249.61737060546875;-101.25817108154297;-3.952852249145508;-2.2094573974609375;-14.769790649414062;0.562896728515625
1445426137524;250.2955322265625;-99.53399658203125;-2.9037537574768066;-1.8367919921875;-16.534988403320312;0.2098541259765625
1445426137557;250.18478393554688;-98.0218734741211;-2.23067307472229;-0.601165771484375;-15.024765014648438;0.2883148193359375
1445426137589;248.98248291015625;-94.82073974609375;-1.6936006546020508;2.3996734619140625;-10.7098388671875;-0.7904205322265625
1445426137623;246.018798828125;-92.49927520751953;-2.249117136001587;1.0659637451171875;-5.6888275146484375;-2.908660888671875
1445426137659;245.08676147460938;-92.23531341552734;-2.5881285667419434;0.0656890869140625;-4.6689453125;-3.22247314453125
1445426137688;244.339111328125;-92.82810974121094;-2.8840837478637695;-0.9345855712890625;-3.6294403076171875;-1.4180450439453125
1445426137722;244.37921142578125;-93.4918441772461;-2.916696786880493;-0.7972869873046875;-4.8062286376953125;0.7001953125
1445426137754;243.92153930664062;-95.93659973144531;-2.8623173236846924;-0.58154296875;-6.9048614501953125;0.30792236328125
1445426137787;243.03390502929688;-97.31200408935547;-3.001979351043701;3.439178466796875;-16.515380859375;-4.6346282958984375
1445426137820;241.68597412109375;-97.6484603881836;-3.2823266983032227;-1.6602783203125;-14.887466430664062;-0.2804718017578125
1445426137854;240.74252319335938;-99.02584075927734;-5.264198303222656;-3.033203125;-13.534149169921875;1.3474273681640625
1445426137887;243.26123046875;-100.29934692382812;-5.146280288696289;-2.484039306640625;-15.94659423828125;0.327545166015625
1445426137920;243.12857055664062;-98.73292541503906;-4.8520402908325195;-1.4445343017578125;-13.90679931640625;0.4648284912109375
1445426137953;241.915283203125;-95.0731430053711;-4.437464714050293;1.3405609130859375;-10.454864501953125;-2.7517547607421875
1445426137986;240.030517578125;-92.23499298095703;-5.282155513763428;1.18365478515625;-7.1009979248046875;-3.45782470703125
1445426138019;239.5828857421875;-92.14337921142578;-6.087137699127197;1.5759124755859375;-5.6299896240234375;-3.1832427978515625
1445426138052;240.56692504882812;-94.11997985839844;-7.85470724105835;0.28143310546875;-3.98248291015625;-2.3006439208984375
1445426138085;239.5318603515625;-97.70848846435547;-9.563751220703125;-1.0718841552734375;-3.6294403076171875;-0.3197021484375
1445426138118;238.21292114257812;-99.50640106201172;-10.285146713256836;-1.20916748046875;-5.041595458984375;-0.3785400390625
1445426138151;237.00958251953125;-102.26759338378906;-10.591582298278809;2.164306640625;-13.338027954101562;-2.9871063232421875
1445426138184;237.2969970703125;-103.71981811523438;-9.76934814453125;5.5574188232421875;-16.06427001953125;-5.2622528076171875
1445426138217;238.07705688476562;-107.17292785644531;-7.581361770629883;5.7339324951171875;-15.260116577148438;-5.79180908203125
1445426138251;236.5816650390625;-108.68892669677734;-6.2897539138793945;5.439727783203125;-15.201278686523438;-4.399261474609375
1445426138283;235.0118408203125;-108.34542846679688;-5.977260589599609;5.949676513671875;-14.044097900390625;-3.261688232421875
1445426138316;230.57232666015625;-106.46588897705078;-5.716662406921387;4.89056396484375;-10.239120483398438;-1.2219085693359375
1445426138351;228.38336181640625;-105.2044448852539;-5.179256916046143;0.5167999267578125;-5.8261260986328125;-0.300079345703125
1445426138383;229.122802734375;-105.08141326904297;-4.249450206756592;-0.8169097900390625;-3.7078857421875;-1.0257720947265625
1445426138414;231.6229248046875;-105.32109069824219;-1.0145940780639648;-2.2486724853515625;-2.78607177734375;0.386383056640625
1445426138449;234.20840454101562;-104.94108581542969;3.3672149181365967;-0.326568603515625;-4.0020904541015625;-0.9669342041015625
1445426138481;234.7354736328125;-104.64787292480469;5.366337299346924;0.654083251953125;-5.1396636962890625;-2.32025146484375
1445426138514;235.61709594726562;-104.31584167480469;8.684388160705566;3.3018798828125;-9.356521606445312;-3.1047821044921875
1445426138547;236.21441650390625;-103.98509216308594;9.550667762756348;4.635589599609375;-14.161773681640625;-2.20257568359375
1445426138580;236.5185546875;-104.26113891601562;8.74946403503418;2.61541748046875;-15.573944091796875;-2.8105926513671875
1445426138613;237.2537841796875;-105.16606140136719;5.788147926330566;-1.03265380859375;-19.575042724609375;-4.732696533203125
1445426138645;237.58255004882812;-105.6836166381836;4.134774684906006;-0.3069610595703125;-19.300460815429688;-5.654510498046875
1445426138678;237.81484985351562;-106.39079284667969;1.5667247772216797;0.7129364013671875;-16.12310791015625;-4.47772216796875
1445426138711;237.52206420898438;-105.8724136352539;-0.3825104534626007;-0.3854217529296875;-8.689666748046875;-1.75146484375
1445426138745;237.15362548828125;-105.62581634521484;-1.2782615423202515;-0.6796112060546875;-5.9241943359375;-1.2415313720703125
1445426138778;236.34329223632812;-105.13479614257812;-3.000419855117798;-0.5030975341796875;-1.94268798828125;-0.868865966796875
1445426138810;236.61474609375;-104.76899719238281;-4.706137180328369;0.242218017578125;0.0970916748046875;-0.3785400390625
1445426138844;237.38970947265625;-104.80667114257812;-5.379870891571045;0.8502197265625;0.0382537841796875;-0.3981475830078125
1445426138876;239.05841064453125;-105.06916809082031;-6.45805025100708;1.8308868408203125;-3.5313720703125;-1.712249755859375
1445426138910;239.49420166015625;-105.21544647216797;-6.848804473876953;2.2035369873046875;-11.121719360351562;-2.457550048828125
1445426138943;240.1097412109375;-105.26658630371094;-7.13336706161499;3.5372467041015625;-21.497146606445312;-3.39898681640625
1445426138975;241.32159423828125;-104.20556640625;-7.0134077072143555;4.243316650390625;-17.49603271484375;-5.2818603515625
1445426139010;240.653076171875;-103.25743865966797;-6.847329139709473;6.1654205322265625;-16.044662475585938;-4.7523040771484375
1445426139042;239.84579467773438;-101.22012329101562;-6.0891289710998535;4.6748199462890625;-11.690505981445312;-0.9669342041015625
1445426139074;240.46710205078125;-98.64854431152344;-6.199782848358154;1.7720489501953125;-5.845733642578125;0.955169677734375
1445426139107;240.15411376953125;-97.46961975097656;-7.021101474761963;1.12481689453125;-3.9432525634765625;0.9159393310546875
1445426139140;241.03329467773438;-96.3846435546875;-8.765219688415527;0.0068511962890625;-3.6882781982421875;0.2098541259765625
1445426139174;240.94244384765625;-95.70780181884766;-9.24767017364502;-0.4638671875;-8.454315185546875;-3.8108673095703125
1445426139207;241.01968383789062;-95.45240020751953;-8.865501403808594;-0.287353515625;-13.0438232421875;-4.222747802734375
1445426139239;242.99679565429688;-97.2602767944336;-7.210894584655762;-0.01275634765625;-15.789688110351562;-9.537948608398438
1445426139273;247.9117431640625;-99.98933410644531;-6.429322719573975;-1.8367919921875;-11.10211181640625;0.2294769287109375
1445426139312;249.68844604492188;-101.69329071044922;-6.240675926208496;-4.3865203857421875;-15.475875854492188;-0.82965087890625
1445426139339;251.6334228515625;-100.26516723632812;-4.356363773345947;-3.680450439453125;-15.063995361328125;-0.94732666015625
1445426139380;249.90570068359375;-97.14669799804688;-2.491514205932617;-1.5033721923828125;-11.180557250976562;-0.7315826416015625
1445426139405;248.34909057617188;-95.80438995361328;-1.7800356149673462;-0.4834747314453125;-9.395751953125;-1.2415313720703125
1445426139437;247.1285400390625;-93.45660400390625;-0.868083655834198;1.2032623291015625;-6.630279541015625;-2.4379425048828125
1445426139470;247.1302490234375;-92.69347381591797;-0.7266201376914978;1.41900634765625;-5.9241943359375;-2.692901611328125
1445426139504;246.4010009765625;-91.79547882080078;-1.1886200904846191;0.7325439453125;-7.2775115966796875;-3.6735687255859375
1445426139537;245.09933471679688;-93.03255462646484;-2.2262351512908936;-0.8757476806640625;-8.571990966796875;-3.1047821044921875
1445426139570;244.48361206054688;-94.4405288696289;-2.4164414405822754;-0.9345855712890625;-8.76812744140625;-0.7904205322265625
1445426139603;241.60781860351562;-97.26988220214844;-2.1920011043548584;-1.8760223388671875;-9.297683715820312;0.2098541259765625
1445426139636;237.62506103515625;-99.44834899902344;-2.0234458446502686;0.7717742919921875;-15.10321044921875;-0.2804718017578125
1445426139671;236.520263671875;-100.61278533935547;-2.287566661834717;-0.091217041015625;-14.220611572265625;-0.182403564453125
1445426139702;237.7178955078125;-101.06898498535156;-2.5167436599731445;-0.895355224609375;-15.162063598632812;-0.3393096923828125
1445426139735;238.53848266601562;-100.01033020019531;-2.2307941913604736;-0.895355224609375;-12.53387451171875;-0.5942840576171875
1445426139777;239.45672607421875;-95.22606658935547;-0.9734580516815186;0.28143310546875;-6.0222625732421875;-2.339874267578125
1445426139801;238.86154174804688;-93.67253112792969;-0.708791971206665;0.7129364013671875;-5.5711517333984375;-3.0655670166015625
1445426139835;237.39193725585938;-92.42325592041016;-0.648371160030365;1.0071258544921875;-6.8460235595703125;-5.2230224609375
1445426139867;233.85885620117188;-92.00022888183594;-1.206288456916809;0.8109893798828125;-8.454315185546875;-5.8114166259765625
1445426139902;231.26361083984375;-94.62743377685547;-2.531996488571167;0.6737060546875;-8.2581787109375;-0.4569854736328125
1445426139933;231.31948852539062;-97.19095611572266;-3.3852999210357666;-0.208892822265625;-8.277786254882812;-0.1627960205078125
1445426139971;231.20248413085938;-100.79500579833984;-5.082728862762451;0.0853118896484375;-12.945755004882812;-1.829925537109375
1445426139998;231.2005615234375;-102.43447875976562;-6.021644115447998;-1.8956451416015625;-14.4755859375;-1.496490478515625
1445426140034;231.39599609375;-102.50106811523438;-6.047439098358154;-2.7978515625;-14.455978393554688;-1.1630706787109375
1445426140065;230.23052978515625;-99.95804595947266;-4.927367687225342;-1.3072357177734375;-11.533599853515625;-0.633514404296875
1445426140098;228.35354614257812;-94.84793090820312;-2.996873617172241;1.5955352783203125;-7.2775115966796875;-2.8694305419921875
1445426140131;226.8892822265625;-92.23085021972656;-2.451057195663452;1.98779296875;-6.120330810546875;-3.6931915283203125
1445426140164;224.48760986328125;-88.994873046875;-2.817302703857422;1.3405609130859375;-6.5125885009765625;-5.1445770263671875
1445426140196;223.85052490234375;-88.70091247558594;-3.6181042194366455;-0.3657989501953125;-8.297409057617188;-5.0465087890625
1445426140229;222.23922729492188;-91.32247161865234;-5.1287384033203125;-0.287353515625;-9.297683715820312;-6.3802032470703125
1445426140262;219.91360473632812;-97.84394836425781;-6.077693939208984;1.5759124755859375;-10.611770629882812;0.5432891845703125
1445426140297;221.21347045898438;-100.86174774169922;-6.051520824432373;0.9090576171875;-13.475311279296875;0.1510162353515625
1445426140328;221.07901000976562;-103.79634094238281;-5.821271896362305;1.3209381103515625;-14.318679809570312;-1.9279937744140625
1445426140362;218.97283935546875;-106.85742950439453;-4.562372207641602;3.0076904296875;-16.29962158203125;-2.6144561767578125
1445426140394;217.20709228515625;-107.70889282226562;-4.179649353027344;3.57647705078125;-16.613449096679688;-2.4967803955078125
1445426140428;212.0672607421875;-108.2613525390625;-3.7975776195526123;3.7725982666015625;-13.2203369140625;-1.8691558837890625
1445426140460;205.912109375;-107.59748077392578;-3.0202817916870117;2.9488525390625;-9.081939697265625;-0.3785400390625
1445426140494;204.11492919921875;-107.16908264160156;-2.6637370586395264;2.125091552734375;-6.944091796875;0.19024658203125
1445426140526;202.3153076171875;-107.0507583618164;-2.511229991912842;-0.4638671875;-2.96258544921875;-0.692352294921875
1445426140561;201.561279296875;-107.5958251953125;-2.4449634552001953;-0.326568603515625;-2.3545684814453125;0.0333404541015625
1445426140593;200.5361328125;-109.24039459228516;-1.9932103157043457;0.595245361328125;-2.589935302734375;0.0333404541015625
1445426140626;200.66455078125;-110.62728881835938;-1.2494474649429321;3.1253662109375;-4.6297149658203125;-2.692901611328125
1445426140659;201.31103515625;-111.38177490234375;-0.7912572026252747;3.949127197265625;-7.3951873779296875;-3.595123291015625
1445426140692;204.4698486328125;-112.19123840332031;0.6682047843933105;3.6549224853515625;-13.867584228515625;-2.4771575927734375
1445426140725;207.0419921875;-112.42999267578125;0.28586769104003906;0.10491943359375;-17.064544677734375;-4.4973297119140625
1445426140759;207.361572265625;-112.68486022949219;-0.617661714553833;-0.660003662109375;-17.31951904296875;-5.4976043701171875
1445426140790;206.70892333984375;-112.53053283691406;-2.057318687438965;2.0074005126953125;-16.378082275390625;-4.8111419677734375
1445426140823;206.4049072265625;-111.11444091796875;-2.6595685482025146;2.046630859375;-10.964813232421875;-2.634063720703125
1445426140857;206.428466796875;-110.14915466308594;-2.8471531867980957;1.3209381103515625;-8.5523681640625;-1.8691558837890625
1445426140890;205.868896484375;-108.42495727539062;-3.7079343795776367;-0.1304473876953125;-3.845184326171875;-1.3395843505859375
1445426140922;205.40167236328125;-107.87657165527344;-4.416900634765625;-0.8169097900390625;-1.7269439697265625;-2.1633453369140625
1445426140955;206.63507080078125;-107.84919738769531;-5.095626354217529;-0.8757476806640625;-1.7857818603515625;-2.5556182861328125
1445426140989;209.35687255859375;-108.66222381591797;-4.2606000900268555;0.7129364013671875;-3.099884033203125;-3.0655670166015625
1445426141022;210.865234375;-109.05915069580078;-3.2631993293762207;1.47784423828125;-7.1402130126953125;-4.4384918212890625
1445426141054;214.04269409179688;-109.3837890625;-1.2932260036468506;1.0267486572265625;-11.259017944335938;-4.53656005859375
1445426141088;216.78121948242188;-109.63145446777344;0.10215919464826584;0.5756378173828125;-16.397689819335938;-4.2423553466796875
1445426141120;217.69537353515625;-109.70987701416016;0.06191909313201904;1.046356201171875;-15.88775634765625;-4.65423583984375
1445426141154;218.3623046875;-110.50859832763672;-1.664857029914856;1.3797760009765625;-17.123382568359375;-5.1053466796875
1445426141186;218.261962890625;-111.04035186767578;-2.768620491027832;1.9681854248046875;-16.103500366210938;-4.281585693359375
1445426141221;217.49853515625;-111.259765625;-4.3043212890625;1.6543731689453125;-14.377532958984375;-3.3793792724609375
1445426141252;215.46490478515625;-109.94416046142578;-4.997891426086426;0.34027099609375;-9.631103515625;-1.96722412109375
1445426141286;213.33367919921875;-107.98690795898438;-5.136833190917969;-0.58154296875;-2.884124755859375;-1.5357208251953125
1445426141318;213.0462646484375;-107.25196838378906;-5.096606731414795;-0.954193115234375;-1.2169952392578125;-1.2807464599609375
1445426141352;212.1422119140625;-105.98502349853516;-5.085723400115967;-0.4834747314453125;-1.275848388671875;-2.0456695556640625
1445426141385;211.4752197265625;-105.40263366699219;-5.081966400146484;1.3405609130859375;-3.0410308837890625;-3.771636962890625
1445426141419;210.13357543945312;-105.06661224365234;-4.733497142791748;2.419281005859375;-4.55126953125;-4.71307373046875
1445426141453;211.2508544921875;-105.45694732666016;-3.563608169555664;4.812103271484375;-11.572830200195312;-3.16363525390625
1445426141485;213.28179931640625;-105.58331298828125;-2.858675718307495;2.9684600830078125;-15.358184814453125;-2.3006439208984375
1445426141519;216.30694580078125;-105.81414031982422;-2.8702244758605957;2.4781341552734375;-15.240509033203125;-2.4379425048828125
1445426141551;217.7369384765625;-106.91213989257812;-4.167913436889648;1.98779296875;-15.985809326171875;-3.28131103515625
1445426141585;217.53121948242188;-106.97268676757812;-5.034638404846191;1.6347503662109375;-15.730850219726562;-2.9871063232421875
1445426141617;217.30996704101562;-105.90089416503906;-5.706667900085449;1.791656494140625;-12.180831909179688;-1.5553436279296875
1445426141648;217.5025634765625;-103.96269226074219;-5.380951404571533;1.47784423828125;-7.552093505859375;-0.3589324951171875
1445426141682;217.1827392578125;-102.48798370361328;-5.199980735778809;1.105194091796875;-5.218109130859375;-0.3981475830078125
1445426141714;216.8353271484375;-99.52323150634766;-5.054524898529053;0.5167999267578125;-2.6880035400390625;-0.810028076171875
1445426141748;217.046875;-98.3066635131836;-4.770151138305664;0.7717742919921875;-5.0612030029296875;-2.8694305419921875
1445426141782;217.63800048828125;-97.06574249267578;-3.441455602645874;2.32122802734375;-8.591598510742188;-5.3210906982421875
1445426141814;218.77029418945312;-97.89305877685547;-2.166862964630127;2.5173492431640625;-16.554595947265625;-6.1252288818359375
1445426141849;222.22210693359375;-99.82047271728516;-1.5365207195281982;0.7913818359375;-9.06231689453125;2.0338897705078125
1445426141880;227.93106079101562;-103.66099548339844;-0.967016339302063;-3.9354248046875;-6.3360748291015625;-0.6138916015625
1445426141913;231.00259399414062;-102.51538848876953;0.4527164697647095;-5.2102813720703125;-14.789398193359375;-0.9277191162109375
1445426141949;229.71853637695312;-101.5523452758789;1.0129579305648804;-2.8370819091796875;-12.65155029296875;0.0333404541015625
1445426141979;227.373779296875;-100.18183898925781;1.284794569015503;-0.208892822265625;-11.27862548828125;-0.3589324951171875
1445426142012;226.92446899414062;-97.58316040039062;1.2528076171875;-0.542327880859375;-9.395751953125;-2.0456695556640625
1445426142045;226.57208251953125;-96.10256958007812;1.221453309059143;-0.1696624755859375;-8.160110473632812;-3.22247314453125
1445426142077;224.94073486328125;-94.36797332763672;1.1874654293060303;0.4383392333984375;-6.689117431640625;-4.8896026611328125
1445426142111;224.44158935546875;-94.05908966064453;1.038392424583435;-1.8367919921875;-6.5910491943359375;-4.36004638671875
1445426142144;224.62371826171875;-95.11800384521484;1.0169131755828857;-2.8174591064453125;-7.0813751220703125;-2.9871063232421875
1445426142177;222.67864990234375;-97.73197937011719;2.5120177268981934;-2.7782440185546875;-6.8852386474609375;2.5438385009765625
1445426142210;219.5841064453125;-98.759521484375;2.999584197998047;1.5759124755859375;-16.534988403320312;-1.3395843505859375
1445426142242;215.1505126953125;-99.84186553955078;2.3644628524780273;2.0074005126953125;-15.005157470703125;-0.1039581298828125
1445426142276;214.3702392578125;-101.55137634277344;0.6811805963516235;-1.6210479736328125;-12.749618530273438;0.4059906005859375
1445426142308;216.45352172851562;-101.42111206054688;0.6130349040031433;-2.5624847412109375;-15.4954833984375;-0.1039581298828125
1445426142341;219.42959594726562;-98.92729949951172;1.4496487379074097;-1.346466064453125;-14.044097900390625;-0.064727783203125
1445426142375;217.8162841796875;-95.77947235107422;2.2497267723083496;1.850494384765625;-9.081939697265625;0.4256134033203125
1445426142408;216.56491088867188;-94.19259643554688;2.5192646980285645;2.693878173828125;-7.2186737060546875;-1.3395843505859375
1445426142441;215.12979125976562;-91.1824951171875;2.205023765563965;1.438629150390625;-5.53192138671875;-2.5359954833984375
1445426142474;214.867919921875;-90.69169616699219;1.8808460235595703;-0.4638671875;-5.0808258056640625;-3.202850341796875
1445426142506;215.15719604492188;-91.74166870117188;1.5301016569137573;-1.5426025390625;-6.473358154296875;-4.47772216796875
1445426142540;217.01544189453125;-94.74937438964844;1.5760035514831543;-0.522705078125;-10.356796264648438;0.13140869140625
1445426142572;217.556884765625;-96.4079818725586;1.0425902605056763;0.5756378173828125;-13.416473388671875;-0.1039581298828125
1445426142606;216.79330444335938;-98.96664428710938;-0.5758288502693176;-1.0522613525390625;-14.534439086914062;-1.4768829345703125
1445426142639;217.61813354492188;-98.4173355102539;-1.1134711503982544;-3.36663818359375;-14.4755859375;-0.064727783203125
1445426142672;217.22119140625;-97.36384582519531;-1.0623875856399536;-2.542877197265625;-13.78912353515625;0.81787109375
1445426142704;215.63009643554688;-93.72945404052734;-0.7863860130310059;1.36016845703125;-10.19989013671875;-0.2804718017578125
1445426142738;215.0850830078125;-91.68717193603516;-0.9521927237510681;1.732818603515625;-7.610931396484375;-1.9083709716796875
1445426142770;216.00372314453125;-88.72937774658203;-2.1384825706481934;0.654083251953125;-7.061767578125;-2.1633453369140625
1445426142804;217.0704345703125;-87.82325744628906;-3.689103603363037;-0.85614013671875;-6.238006591796875;-2.8302001953125
1445426142837;217.85092163085938;-88.22148132324219;-4.290404319763184;-1.3268585205078125;-6.6498870849609375;-1.0257720947265625
1445426142870;219.43212890625;-90.70287322998047;-4.648024559020996;-0.777679443359375;-10.121444702148438;-0.82965087890625
1445426142902;220.400146484375;-93.34941101074219;-4.777149677276611;-0.58154296875;-14.769790649414062;-1.888763427734375
1445426142937;219.72683715820312;-94.37145233154297;-4.8990349769592285;1.6543731689453125;-14.965927124023438;-2.5556182861328125
1445426142969;219.063720703125;-97.66850280761719;-4.441123008728027;4.2825469970703125;-14.86785888671875;-2.5948486328125
1445426143002;218.2845458984375;-101.39818572998047;-3.3195393085479736;3.1645965576171875;-11.553207397460938;-2.08489990234375
1445426143036;217.05715942382812;-102.7534408569336;-2.833425998687744;2.7134857177734375;-9.729171752929688;-1.5357208251953125
1445426143068;214.30780029296875;-103.99147033691406;-2.086089849472046;0.8894500732421875;-6.061492919921875;-0.515838623046875
1445426143104;213.1947021484375;-104.9797592163086;-1.4135512113571167;0.3206634521484375;-4.3159027099609375;0.5236663818359375
1445426143133;213.55096435546875;-105.64236450195312;-0.9482290744781494;0.477569580078125;-4.5120391845703125;0.6021270751953125
1445426143167;213.658447265625;-106.8021469116211;0.19510984420776367;0.477569580078125;-6.1399383544921875;-1.00616455078125
1445426143200;213.88003540039062;-108.31612396240234;2.7228798866271973;1.3797760009765625;-6.3949127197265625;-1.5945587158203125
1445426143234;214.89102172851562;-109.2154312133789;4.568577766418457;2.4781341552734375;-6.2576141357421875;-1.712249755859375
1445426143265;218.40286254882812;-110.27165222167969;7.41357946395874;3.9098968505859375;-12.671173095703125;-2.457550048828125
1445426143303;220.27133178710938;-110.65223693847656;8.298382759094238;0.7521514892578125;-16.18194580078125;-4.1835174560546875
1445426143335;222.9420166015625;-111.53524780273438;8.949348449707031;-0.522705078125;-15.456253051757812;-4.673858642578125
1445426143364;223.5595703125;-112.50395965576172;7.355359077453613;-0.97381591796875;-15.3189697265625;-6.164459228515625
1445426143400;223.14791870117188;-112.90538024902344;6.226554870605469;-0.1108245849609375;-14.75018310546875;-6.3409881591796875
1445426143430;222.71566772460938;-112.73787689208984;4.815908908843994;0.16375732421875;-11.651275634765625;-4.732696533203125
1445426143464;222.83441162109375;-111.54325866699219;3.535046339035034;-0.405029296875;-7.7089996337890625;-2.006439208984375
1445426143497;223.06344604492188;-110.90911865234375;2.5818605422973633;-0.58154296875;-5.9634246826171875;-0.88848876953125
1445426143530;223.02520751953125;-110.3167724609375;0.06003396213054657;-0.326568603515625;-3.1194915771484375;-0.300079345703125
1445426143563;223.45538330078125;-110.35179138183594;-2.360313653945923;0.242218017578125;-3.02142333984375;-1.2415313720703125
1445426143596;224.21142578125;-110.44854736328125;-3.3176355361938477;0.6737060546875;-3.8844146728515625;-1.8691558837890625
1445426143629;226.92410278320312;-111.05732727050781;-4.138132572174072;1.7132110595703125;-6.355682373046875;-2.6732940673828125
1445426143662;228.69744873046875;-111.50634002685547;-4.01846170425415;1.673980712890625;-10.788284301757812;-3.653961181640625
1445426143695;231.74169921875;-112.32923889160156;-4.158568859100342;1.3797760009765625;-13.867584228515625;-4.59539794921875
1445426143729;233.07839965820312;-111.8827896118164;-5.180641174316406;1.497467041015625;-15.88775634765625;-6.6548004150390625
1445426143761;232.74526977539062;-111.13108825683594;-5.708953380584717;4.0275726318359375;-15.475875854492188;-5.6937408447265625
1445426143794;232.64175415039062;-108.85690307617188;-5.947457313537598;3.7725982666015625;-14.495208740234375;-4.5169525146484375
1445426143827;232.58343505859375;-105.78192901611328;-5.586608409881592;2.164306640625;-10.749069213867188;-2.3594818115234375
1445426143860;232.67822265625;-104.25598907470703;-5.3392534255981445;1.2032623291015625;-8.336624145507812;-1.9083709716796875
1445426143893;234.76626586914062;-101.71404266357422;-4.515589714050293;-0.6207733154296875;-4.6297149658203125;0.621734619140625
1445426143926;236.63442993164062;-100.70854187011719;-3.8462562561035156;0.2618255615234375;-3.6882781982421875;1.8573760986328125
1445426143959;240.24905395507812;-98.87590789794922;-2.463831663131714;0.7913818359375;-3.4725341796875;1.8377685546875
1445426143992;243.1461181640625;-97.4671401977539;-1.357232689857483;2.7723236083984375;-6.1987762451171875;-2.339874267578125
1445426144024;244.83929443359375;-97.29042053222656;-1.0308490991592407;-0.542327880859375;-13.436080932617188;-3.39898681640625
1445426144058;250.74969482421875;-97.83380889892578;-0.013141284696757793;-2.5624847412109375;-12.239669799804688;-3.5558929443359375
1445426144090;255.13436889648438;-99.23396301269531;1.407952904701233;-6.3282470703125;-14.416748046875;-4.59539794921875
1445426144125;256.2880859375;-99.39395141601562;2.2099621295928955;-3.111663818359375;-15.3778076171875;-1.084625244140625
1445426144156;255.37371826171875;-99.3917465209961;2.5533668994903564;-1.6406707763671875;-15.260116577148438;-0.4569854736328125
1445426144190;255.172607421875;-97.51710510253906;2.7240264415740967;1.0659637451171875;-14.201004028320312;0.0333404541015625
1445426144223;255.30511474609375;-96.07070922851562;2.952108144760132;2.2623748779296875;-13.024200439453125;-0.2608642578125
1445426144256;255.97503662109375;-93.21639251708984;3.0578978061676025;2.988067626953125;-8.513153076171875;-1.3984375
1445426144289;256.5518493652344;-92.27995300292969;2.702268123626709;-0.1696624755859375;-4.6885528564453125;-2.006439208984375
1445426144321;258.7855224609375;-91.54613494873047;1.8804495334625244;-1.8760223388671875;-4.2570648193359375;-2.3006439208984375
1445426144355;261.7940673828125;-91.68701934814453;2.300952672958374;-3.3470306396484375;-4.1786041259765625;-1.1630706787109375
1445426144387;263.0218200683594;-91.89095306396484;2.980867624282837;-2.8370819091796875;-3.727508544921875;-0.6727447509765625
1445426144421;262.5164489746094;-92.52242279052734;4.827648162841797;-1.8956451416015625;-5.551544189453125;-1.888763427734375
1445426144455;258.49981689453125;-94.03531646728516;6.685696601867676;0.04608154296875;-9.317291259765625;-0.5942840576171875
1445426144486;256.9515380859375;-94.75899505615234;7.315850257873535;0.9482879638671875;-12.102386474609375;-2.457550048828125
1445426144520;253.6810302734375;-96.17958068847656;6.612244129180908;-0.7580718994140625;-15.926971435546875;-0.3785400390625
1445426144552;252.73446655273438;-98.8644027709961;5.205804347991943;-2.8959197998046875;-16.00543212890625;1.6808624267578125
1445426144587;253.73336791992188;-98.92296600341797;5.0619707107543945;-2.993988037109375;-18.868972778320312;-0.123565673828125
1445426144620;253.2857666015625;-96.74161529541016;5.899835109710693;0.0656890869140625;-14.80902099609375;0.1510162353515625
1445426144652;254.59805297851562;-94.0531005859375;5.172056198120117;0.5756378173828125;-13.49493408203125;-1.5357208251953125
1445426144684;255.05245971679688;-92.77828216552734;4.557121276855469;0.0068511962890625;-12.02392578125;-2.3006439208984375
1445426144718;255.19586181640625;-90.93104553222656;3.7328999042510986;-2.34674072265625;-6.7871856689453125;-1.810302734375
1445426144751;255.54205322265625;-90.51148986816406;3.4157190322875977;-3.503936767578125;-3.6098175048828125;-1.3984375
1445426144784;256.18927001953125;-90.3624038696289;3.4952166080474854;-2.8762969970703125;-3.158721923828125;-0.3981475830078125
1445426144819;256.511962890625;-90.39897918701172;3.7052481174468994;-1.6014404296875;-3.0606536865234375;0.6021270751953125
1445426144850;256.3537292480469;-90.60152435302734;3.911712408065796;-1.9348602294921875;-4.39434814453125;-0.6727447509765625
1445426144893;254.26788330078125;-92.33351135253906;6.312251567840576;-2.11138916015625;-7.4148101806640625;-0.6138916015625
1445426144918;252.79693603515625;-93.52989959716797;7.327609062194824;-0.6796112060546875;-10.31756591796875;-2.08489990234375
1445426144949;249.9190673828125;-95.19161224365234;7.573895454406738;0.3991241455078125;-17.8883056640625;-7.4393310546875
1445426144982;247.09481811523438;-99.20344543457031;7.013978958129883;-0.4246368408203125;-12.906524658203125;0.01373291015625
1445426145015;247.6181640625;-101.71612548828125;5.459345817565918;-3.170501708984375;-16.29962158203125;-0.241241455078125
1445426145051;247.868408203125;-101.35397338867188;4.626437664031982;-3.562774658203125;-18.69244384765625;-0.7119598388671875
1445426145081;247.78421020507812;-99.4574966430664;3.227057695388794;-1.09149169921875;-15.083602905273438;0.7198028564453125
1445426145114;249.90347290039062;-96.3207778930664;1.4992423057556152;-0.150054931640625;-12.886917114257812;-2.4183197021484375
1445426145147;250.06448364257812;-94.50746154785156;0.9842480421066284;0.418731689453125;-11.043258666992188;-4.2031402587890625
1445426145180;248.24713134765625;-92.02346801757812;0.0053480383940041065;-0.5030975341796875;-5.492706298828125;-3.536285400390625
1445426145215;247.53466796875;-92.09088897705078;-0.4424230456352234;-0.91497802734375;-1.70733642578125;-1.7318572998046875
1445426145245;247.37326049804688;-92.9399642944336;-0.9632624983787537;-0.4442596435546875;-1.275848388671875;-0.9669342041015625
1445426145279;247.39813232421875;-93.96993255615234;-1.1606820821762085;0.4383392333984375;-1.275848388671875;0.641357421875
1445426145312;246.9444580078125;-94.52681732177734;-1.3313817977905273;0.7913818359375;-2.256500244140625;1.26898193359375
1445426145344;244.53890991210938;-95.93547058105469;-1.8368535041809082;1.673980712890625;-7.0225372314453125;-4.458099365234375
1445426145377;241.2735595703125;-97.98469543457031;-2.6257622241973877;0.4971771240234375;-14.69134521484375;-0.9277191162109375
1445426145411;240.90771484375;-99.60003662109375;-3.191709041595459;1.3209381103515625;-18.45709228515625;-6.2036895751953125
1445426145443;241.983642578125;-102.01693725585938;-5.026953220367432;-1.9348602294921875;-16.789962768554688;-0.515838623046875
1445426145477;243.42434692382812;-103.94296264648438;-6.9786272048950195;-2.5821075439453125;-21.634445190429688;0.36676025390625
1445426145510;242.90234375;-103.24608612060547;-7.238262176513672;-0.6796112060546875;-19.790802001953125;0.562896728515625
1445426145542;241.7666015625;-99.7671127319336;-6.862231731414795;3.439178466796875;-15.005157470703125;-1.771087646484375
1445426145575;240.7706298828125;-97.29801940917969;-7.316793918609619;2.8507843017578125;-9.611495971679688;-3.4970550537109375
1445426145609;238.22109985351562;-94.55579376220703;-8.871810913085938;2.242767333984375;-5.7084503173828125;-2.8498077392578125
1445426145642;237.89697265625;-95.48175048828125;-9.830880165100098;0.3795013427734375;-1.452362060546875;-2.457550048828125
1445426145675;238.048095703125;-96.64971923828125;-10.214187622070312;-0.3854217529296875;-1.275848388671875;-2.26141357421875
1445426145708;239.10662841796875;-99.748046875;-10.478888511657715;0.0853118896484375;-2.4330291748046875;-2.0456695556640625
1445426145741;238.88870239257812;-103.30784606933594;-9.353093147277832;-0.97381591796875;-3.2960052490234375;-2.9871063232421875
1445426145775;238.07174682617188;-104.86195373535156;-8.237822532653809;-0.836517333984375;-4.904296875;-1.5357208251953125
1445426145806;236.61297607421875;-106.8915023803711;-5.821717262268066;2.55657958984375;-8.748504638671875;0.1510162353515625
1445426145840;239.64886474609375;-109.11540222167969;-3.3194775581359863;6.0477447509765625;-16.868408203125;-5.7525787353515625
1445426145874;240.34857177734375;-110.17980194091797;-2.2624359130859375;9.22509765625;-18.613998413085938;-6.75286865234375
1445426145905;242.37506103515625;-111.47747039794922;-0.9998230338096619;7.5775909423828125;-16.044662475585938;-4.9288177490234375
1445426145939;244.5235595703125;-111.27597045898438;-1.3189115524291992;2.125091552734375;-16.927261352539062;-3.085174560546875
1445426145972;245.56988525390625;-110.0986328125;-3.693215847015381;1.3209381103515625;-16.201568603515625;-3.4185943603515625
1445426146005;246.89566040039062;-108.99111938476562;-4.098781108856201;0.869842529296875;-11.945480346679688;-3.45782470703125
1445426146037;248.32281494140625;-108.09766387939453;-3.851604461669922;-0.4442596435546875;-7.179443359375;-1.9279937744140625
1445426146071;251.59930419921875;-106.263671875;-3.3401787281036377;-0.6796112060546875;-5.2573394775390625;-1.261138916015625
1445426146103;255.54391479492188;-104.76832580566406;-2.479609966278076;0.026458740234375;-2.884124755859375;-0.868865966796875
1445426146138;257.37652587890625;-104.10374450683594;-2.058600902557373;0.9678955078125;-2.3349609375;-0.4177703857421875
1445426146169;261.8036193847656;-103.16967010498047;-0.956224799156189;1.556304931640625;-2.8056793212890625;-0.810028076171875
1445426146202;266.5247802734375;-102.32096099853516;0.179764062166214;1.497467041015625;-5.7672882080078125;-1.2219085693359375
1445426146236;268.54425048828125;-101.8138427734375;0.4301232695579529;1.3797760009765625;-8.88580322265625;-0.77081298828125
1445426146271;272.4585876464844;-101.33016204833984;0.31669870018959045;0.6737060546875;-15.358184814453125;-2.006439208984375
1445426146302;276.3266296386719;-102.2093276977539;-1.032918930053711;0.04608154296875;-18.908203125;-4.6934661865234375
1445426146334;277.81976318359375;-102.74761962890625;-1.7549515962600708;-0.1696624755859375;-19.555435180664062;-5.61529541015625
1445426146368;279.7366943359375;-103.26058197021484;-2.6954612731933594;0.28143310546875;-17.123382568359375;-5.3406982421875
1445426146402;280.804443359375;-103.25396728515625;-2.8814797401428223;-0.208892822265625;-14.044097900390625;-4.2619781494140625
1445426146435;281.88134765625;-102.5741958618164;-3.464540481567383;-0.85614013671875;-12.435806274414062;-4.2423553466796875
1445426146468;280.93585205078125;-101.51017761230469;-4.07226037979126;-1.287628173828125;-8.709274291992188;-3.45782470703125
1445426146500;280.3457336425781;-100.90029907226562;-4.202010154724121;-1.03265380859375;-6.72833251953125;-2.37908935546875
1445426146534;279.5697937011719;-99.8597412109375;-4.034955978393555;0.0853118896484375;-3.2960052490234375;-0.5942840576171875
1445426146567;278.76812744140625;-99.00276947021484;-3.811830520629883;0.928680419921875;-1.5504302978515625;-0.515838623046875
1445426146598;277.91632080078125;-98.73724365234375;-3.9533846378326416;0.7325439453125;-1.4327545166015625;-0.810028076171875
1445426146632;276.1105041503906;-98.90221405029297;-4.358009338378906;0.2618255615234375;-2.531097412109375;-1.4768829345703125
1445426146665;274.53985595703125;-99.76667785644531;-4.728631496429443;0.359893798828125;-6.238006591796875;-2.1633453369140625
1445426146698;273.89794921875;-100.43831634521484;-4.8280253410339355;0.8502197265625;-10.219512939453125;-2.6732940673828125
1445426146732;272.845458984375;-102.3910903930664;-5.127300262451172;1.9681854248046875;-18.63360595703125;-3.7324066162109375
1445426146764;272.3277893066406;-103.6356430053711;-5.767391204833984;2.7919464111328125;-20.300735473632812;-6.3409881591796875
1445426146797;270.98394775390625;-105.6941909790039;-7.17563533782959;4.4002227783203125;-20.73223876953125;-5.595672607421875
1445426146831;269.63885498046875;-106.34019470214844;-7.754573345184326;3.1842041015625;-16.436920166015625;-3.595123291015625
1445426146863;269.691650390625;-106.25965118408203;-7.598323345184326;0.9678955078125;-11.16094970703125;-2.5948486328125
1445426146895;271.5452575683594;-105.36280059814453;-6.817227840423584;0.8306121826171875;-8.76812744140625;-1.9083709716796875
1445426146929;274.9319763183594;-104.45722198486328;-5.800678253173828;0.2618255615234375;-4.080535888671875;-0.77081298828125
1445426146965;276.7276916503906;-104.00904846191406;-5.232680320739746;-0.267730712890625;-2.0995941162109375;-0.6531219482421875
1445426146995;279.1790466308594;-103.14633178710938;-3.982022285461426;-0.718841552734375;-0.4716949462890625;-1.12384033203125
1445426147029;280.29107666015625;-102.9373779296875;-2.5880823135375977;0.4383392333984375;-0.62860107421875;-2.9282684326171875
1445426147061;281.0050354003906;-103.51657104492188;-1.9322919845581055;0.595245361328125;-1.452362060546875;-3.8108673095703125
1445426147093;282.77911376953125;-106.98885345458984;-1.171429991722107;1.497467041015625;-4.7081756591796875;-0.5550537109375
1445426147127;283.5843505859375;-108.9847640991211;-0.9591365456581116;-0.8757476806640625;-14.161773681640625;0.7001953125
1445426147160;286.2114562988281;-110.78113555908203;-0.16294634342193604;-4.2100067138671875;-18.63360595703125;-2.4183197021484375
1445426147192;287.52410888671875;-112.31326293945312;2.1928160190582275;-1.5818328857421875;-19.71234130859375;-3.3009185791015625
1445426147227;287.42669677734375;-113.588623046875;2.1634488105773926;1.2817230224609375;-16.025039672851562;-3.830474853515625
1445426147258;288.2934265136719;-113.90474700927734;1.657317042350769;0.5756378173828125;-16.57421875;-4.281585693359375
1445426147292;289.9813537597656;-110.42461395263672;1.8359463214874268;-0.6796112060546875;-13.004592895507812;-3.3009185791015625
1445426147324;290.44879150390625;-108.0885238647461;1.7777856588363647;-0.3854217529296875;-12.220062255859375;-3.771636962890625
1445426147358;290.68988037109375;-103.26245880126953;1.1733566522598267;0.5560302734375;-8.983871459960938;-3.6931915283203125
1445426147391;288.424072265625;-99.97270202636719;0.33939751982688904;-0.267730712890625;-2.90374755859375;-3.45782470703125
1445426147424;286.9466552734375;-98.85183715820312;0.10692667961120605;-0.718841552734375;-1.58966064453125;-3.34014892578125
1445426147457;286.1220703125;-97.36080169677734;0.2074691504240036;-0.3069610595703125;-1.3542938232421875;-3.34014892578125
1445426147489;286.6378173828125;-97.30082702636719;0.4383299648761749;-0.6796112060546875;-1.9230804443359375;-1.810302734375
1445426147523;287.9621276855469;-97.71508026123047;1.0625702142715454;-0.208892822265625;-3.8647918701171875;-1.4180450439453125
1445426147556;288.41461181640625;-97.92032623291016;1.496292233467102;2.9096221923828125;-11.572830200195312;-6.8313140869140625
1445426147589;288.271484375;-98.26193237304688;1.2291357517242432;3.2234344482421875;-14.063705444335938;-4.968048095703125
1445426147622;289.11273193359375;-102.07328796386719;0.6678829789161682;-0.5619354248046875;-7.80706787109375;1.6612396240234375
1445426147655;295.02154541015625;-103.68834686279297;2.544250011444092;-4.2688446044921875;-19.437759399414062;-4.59539794921875
1445426147688;296.0726013183594;-103.82185363769531;3.3754234313964844;-3.915802001953125;-19.202392578125;-3.9481658935546875
1445426147721;296.12799072265625;-104.51510620117188;3.404646396636963;-1.03265380859375;-15.4954833984375;-1.3592071533203125
1445426147754;299.36895751953125;-102.75780487060547;3.155954599380493;-2.935150146484375;-18.123672485351562;-0.515838623046875
1445426147787;300.56475830078125;-100.464599609375;3.167393922805786;-3.111663818359375;-17.515655517578125;-1.2219085693359375
1445426147819;299.4721374511719;-95.9796142578125;2.6856558322906494;-0.4442596435546875;-13.004592895507812;-2.08489990234375
1445426147852;297.765869140625;-94.58525848388672;2.164551019668579;1.3797760009765625;-6.7871856689453125;-2.6144561767578125
1445426147886;294.00909423828125;-93.28451538085938;1.072371482849121;-0.405029296875;-4.21783447265625;-1.51611328125
1445426147919;291.46826171875;-93.3536148071289;1.361934781074524;-3.915802001953125;-0.39324951171875;-0.868865966796875
1445426147952;290.690673828125;-93.51165008544922;2.021434783935547;-1.3660736083984375;-0.0990447998046875;-0.064727783203125
1445426147985;288.682861328125;-94.5152359008789;2.659717321395874;0.0656890869140625;-0.197113037109375;0.994384765625
1445426148018;285.9545593261719;-96.08952331542969;2.1878106594085693;3.1253662109375;-3.6294403076171875;-0.5942840576171875
1445426148051;283.9455261230469;-97.08232879638672;1.4706193208694458;4.576751708984375;-13.946029663085938;-2.2418060302734375
1445426148086;280.2032470703125;-100.4684829711914;-0.5514182448387146;1.497467041015625;-15.770065307617188;-1.261138916015625
1445426148117;282.5631408691406;-103.4290542602539;0.7152230739593506;-2.974365234375;-17.241073608398438;-1.8691558837890625
1445426148150;282.5752868652344;-104.072998046875;1.0371149778366089;-3.503936767578125;-19.555435180664062;-2.4771575927734375
1445426148184;281.08026123046875;-104.72654724121094;1.1808764934539795;0.6148681640625;-20.771453857421875;-0.9865570068359375
1445426148225;281.2176208496094;-103.45266723632812;0.6741296052932739;2.10546875;-16.8095703125;0.955169677734375
1445426148248;282.4563903808594;-101.4124984741211;0.4044683873653412;1.556304931640625;-16.338851928710938;0.5236663818359375
1445426148283;283.0205993652344;-96.24073791503906;-0.26465368270874023;0.5167999267578125;-12.71038818359375;-3.085174560546875
1445426148315;281.9502868652344;-94.14192199707031;-0.735462486743927;0.536407470703125;-4.8258514404296875;-4.0462188720703125
1445426148348;279.1846008300781;-91.67140197753906;-1.7166287899017334;-2.6409454345703125;0.62664794921875;-4.2619781494140625
1445426148381;280.2261047363281;-90.79949188232422;-1.8255456686019897;-0.3657989501953125;0.39129638671875;-3.595123291015625
1445426148416;281.08099365234375;-91.1044692993164;-1.6388369798660278;-0.032379150390625;0.8620147705078125;-1.143463134765625
1445426148446;282.7197570800781;-91.23793029785156;-1.2922362089157104;0.0853118896484375;-1.4327545166015625;1.56317138671875
1445426148480;282.8670349121094;-90.5927505493164;-0.8992945551872253;3.0665283203125;-10.415634155273438;-5.3799285888671875
1445426148512;281.81195068359375;-90.4355239868164;-1.072228193283081;2.3408355712890625;-17.49603271484375;-4.9484405517578125
1445426148545;280.22998046875;-93.66268157958984;-0.9980640411376953;-2.2094573974609375;-13.887191772460938;1.818145751953125
1445426148579;283.856201171875;-96.4931640625;0.8696787357330322;-3.4647064208984375;-21.791351318359375;-2.6536865234375
1445426148612;284.5142517089844;-97.1671371459961;1.3017786741256714;-0.7972869873046875;-19.633895874023438;-1.3395843505859375
1445426148645;283.94903564453125;-98.2102279663086;1.1668853759765625;1.556304931640625;-16.417312622070312;0.0333404541015625
1445426148678;285.14111328125;-98.01502227783203;0.9606018662452698;-0.6207733154296875;-15.691619873046875;-0.3589324951171875
1445426148710;290.33453369140625;-94.7183609008789;0.6483285427093506;-1.6995086669921875;-14.416748046875;-0.7315826416015625
1445426148744;291.31536865234375;-91.39566040039062;0.1278458684682846;-0.7580718994140625;-8.94464111328125;-2.065277099609375
1445426148777;290.766845703125;-90.52022552490234;0.007899113930761814;-0.150054931640625;-6.061492919921875;-2.37908935546875
1445426148810;290.1004638671875;-90.3579330444336;-0.31772324442863464;-0.97381591796875;-3.3744659423828125;-1.6141815185546875
1445426148843;291.0337829589844;-91.30792236328125;-0.2507711946964264;-1.5818328857421875;-2.78607177734375;-0.8492584228515625
1445426148875;291.7314147949219;-91.96334838867188;0.060056157410144806;-1.03265380859375;-2.648773193359375;-0.515838623046875
1445426148908;292.07025146484375;-93.86234283447266;0.8537420630455017;-0.4638671875;-2.9233551025390625;0.13140869140625
1445426148941;292.16119384765625;-94.99715423583984;1.3639246225357056;0.301055908203125;-5.5123138427734375;-0.82965087890625
1445426148975;291.2509765625;-97.20404815673828;2.2539238929748535;0.7521514892578125;-9.3369140625;-1.06500244140625
1445426149008;291.381103515625;-98.65869140625;2.622969388961792;0.4971771240234375;-14.75018310546875;-0.2608642578125
1445426149041;291.1937255859375;-99.91111755371094;2.7480993270874023;-1.5033721923828125;-20.889144897460938;-3.0655670166015625
1445426149075;291.2035217285156;-101.01355743408203;2.512516736984253;-0.6796112060546875;-19.418136596679688;-1.143463134765625
1445426149106;292.25543212890625;-102.3934326171875;1.1139203310012817;-0.85614013671875;-17.554885864257812;1.072845458984375
1445426149140;293.5755310058594;-101.94062805175781;0.3898257911205292;-1.7191162109375;-17.868698120117188;0.24908447265625
1445426149174;295.6451110839844;-98.7711410522461;0.05319864675402641;-1.0130462646484375;-16.044662475585938;-1.06500244140625
1445426149206;294.3984069824219;-94.91166687011719;-0.692837119102478;0.6737060546875;-10.435256958007812;-3.908935546875
1445426149239;292.6997985839844;-93.53846740722656;-1.3743674755096436;0.536407470703125;-7.0813751220703125;-4.222747802734375
1445426149271;290.03521728515625;-92.17962646484375;-2.2676308155059814;-1.5426025390625;-1.275848388671875;-3.8697052001953125
1445426149305;289.7562561035156;-92.49506378173828;-2.1299455165863037;-2.05255126953125;0.9208526611328125;-3.261688232421875
1445426149339;289.5168151855469;-93.4014892578125;-1.807383418083191;-1.0718841552734375;1.960357666015625;-1.712249755859375
1445426149371;289.627197265625;-94.31282806396484;-1.3086363077163696;-0.5619354248046875;-0.079437255859375;2.52423095703125
1445426149403;289.2540283203125;-94.1747817993164;-0.9866422414779663;0.987518310546875;-6.55181884765625;-1.7906951904296875
1445426149437;288.86260986328125;-94.04705047607422;-0.9829363822937012;0.536407470703125;-13.710678100585938;-2.9282684326171875
1445426149471;287.5654296875;-94.20578002929688;-1.2848013639450073;2.8311614990234375;-25.047164916992188;-6.3802032470703125
1445426149502;288.04150390625;-95.01522064208984;-1.0068848133087158;2.8899993896484375;-18.672836303710938;-2.26141357421875
1445426149541;290.69989013671875;-97.1560287475586;-0.7895026206970215;0.654083251953125;-20.693008422851562;-1.00616455078125
1445426149569;288.5180969238281;-96.57716369628906;-3.007786512374878;-1.15032958984375;-20.751846313476562;-2.006439208984375
1445426149602;286.8103332519531;-95.3704833984375;-4.025503635406494;-0.9934234619140625;-18.555160522460938;-1.5553436279296875
1445426149635;284.81005859375;-92.859619140625;-4.62382173538208;0.8109893798828125;-12.808456420898438;-1.9868316650390625
1445426149667;281.76263427734375;-90.74544525146484;-5.116321086883545;0.9090576171875;-6.2772369384765625;-1.2219085693359375
