sep=;
timestamp;gyro-alpha;gyro-beta;gyro-gamma;accel-x;accel-y;accel-z
1445426168298;149.76026916503906;-96.11011505126953;-1.7979258298873901;-0.326568603515625;-5.041595458984375;-1.084625244140625
1445426168332;152.31898498535156;-96.98932647705078;-1.3437854051589966;1.3209381103515625;-4.10015869140625;-0.4962158203125
1445426168365;158.3705291748047;-98.8031005859375;-0.24011944234371185;2.046630859375;-4.4532012939453125;-0.1431732177734375
1445426168400;161.93118286132812;-99.54684448242188;0.5255059003829956;2.419281005859375;-8.160110473632812;-0.82965087890625
1445426168433;168.58416748046875;-100.7112808227539;1.929248571395874;2.4781341552734375;-11.317855834960938;-1.771087646484375
1445426168465;173.4512939453125;-102.0508804321289;2.53193736076355;0.6933135986328125;-15.122833251953125;-3.3009185791015625
1445426168497;175.45901489257812;-102.81232452392578;2.5621907711029053;-0.3069610595703125;-16.142715454101562;-4.968048095703125
1445426168530;178.01556396484375;-104.78056335449219;1.8943746089935303;-0.542327880859375;-16.025039672851562;-5.61529541015625
1445426168563;178.72547912597656;-106.57891845703125;0.6898856163024902;-0.267730712890625;-14.514816284179688;-5.360321044921875
1445426168595;178.37005615234375;-107.0245590209961;0.08801497519016266;0.0853118896484375;-11.78857421875;-4.2031402587890625
1445426168629;176.73011779785156;-107.03453826904297;-1.0338616371154785;0.0068511962890625;-10.14105224609375;-3.7324066162109375
1445426168662;174.9503173828125;-106.21280670166016;-1.561509132385254;-0.542327880859375;-6.924468994140625;-2.8890380859375
1445426168697;174.20474243164062;-105.70507049560547;-1.6520389318466187;-0.6207733154296875;-4.5120391845703125;-1.888763427734375
1445426168729;172.78892517089844;-105.00999450683594;-1.8173794746398926;-0.267730712890625;-3.7667236328125;-1.771087646484375
1445426168761;171.3120880126953;-104.95010375976562;-1.4830418825149536;-0.091217041015625;-4.1786041259765625;-2.08489990234375
1445426168796;170.74522399902344;-105.11061096191406;-1.0148377418518066;0.0068511962890625;-6.1399383544921875;-2.575225830078125
1445426168828;169.94139099121094;-105.48416137695312;0.44032230973243713;-0.405029296875;-8.787734985351562;-3.026336669921875
1445426168860;168.59608459472656;-105.7905502319336;1.374983549118042;-0.091217041015625;-11.808181762695312;-3.791259765625
1445426168894;167.1840057373047;-106.12325286865234;1.139229416847229;0.026458740234375;-13.338027954101562;-4.1246795654296875
1445426168926;163.0559844970703;-106.96925354003906;-0.01663321815431118;0.5756378173828125;-14.338302612304688;-4.6934661865234375
1445426168959;160.56646728515625;-107.26834869384766;-0.707847535610199;1.41900634765625;-14.848251342773438;-4.5561676025390625
1445426168993;155.49468994140625;-107.06706237792969;-1.808624267578125;1.41900634765625;-14.142166137695312;-4.36004638671875
1445426169025;150.0560302734375;-106.22550964355469;-2.768054723739624;0.418731689453125;-11.78857421875;-3.202850341796875
1445426169058;146.94073486328125;-105.74079132080078;-3.3728737831115723;-0.208892822265625;-10.121444702148438;-2.1241302490234375
1445426169091;140.3886260986328;-105.0914077758789;-4.776419162750244;-0.836517333984375;-6.1987762451171875;-0.064727783203125
1445426169124;134.674560546875;-104.85652160644531;-6.005220890045166;-0.4442596435546875;-3.786346435546875;0.994384765625
1445426169158;132.16583251953125;-104.81067657470703;-6.463868618011475;0.22259521484375;-3.9236297607421875;0.8374786376953125
1445426169191;127.53005981445312;-104.77547454833984;-6.8098249435424805;1.3209381103515625;-4.9435272216796875;0.19024658203125
1445426169223;123.35432434082031;-104.35989379882812;-6.33733606338501;3.81182861328125;-7.5128631591796875;-0.0254974365234375
1445426169256;122.26394653320312;-104.06045532226562;-5.729406833648682;5.5770263671875;-9.552658081054688;-0.2020263671875
1445426169289;121.31364440917969;-103.13419342041016;-5.4927754402160645;8.460189819335938;-12.730010986328125;-0.751190185546875
1445426169322;120.53897094726562;-102.5551528930664;-6.3516387939453125;6.851898193359375;-14.416748046875;-1.202301025390625
1445426169355;120.98028564453125;-101.67060089111328;-7.632275104522705;5.6750946044921875;-15.534713745117188;-0.4177703857421875
1445426169389;121.71707153320312;-99.83686828613281;-7.819805145263672;5.2239837646484375;-15.083602905273438;0.1706390380859375
1445426169422;121.81051635742188;-98.77430725097656;-7.859142303466797;3.321502685546875;-11.867019653320312;-0.4177703857421875
1445426169454;122.34541320800781;-96.89250946044922;-7.939841270446777;2.3408355712890625;-9.572265625;0.13140869140625
1445426169490;122.7413330078125;-95.86888122558594;-8.555583000183105;1.9093475341796875;-6.1595458984375;0.1706390380859375
1445426169520;123.7315673828125;-95.85163879394531;-8.751557350158691;1.732818603515625;-5.7672882080078125;-0.3981475830078125
1445426169553;126.44927978515625;-96.37410736083984;-8.545641899108887;1.4582366943359375;-6.8852386474609375;-1.00616455078125
1445426169586;130.47528076171875;-97.76074981689453;-7.251806735992432;0.242218017578125;-7.80706787109375;-0.2020263671875
1445426169619;132.961181640625;-98.54100799560547;-6.701674938201904;1.3209381103515625;-8.4935302734375;0.2883148193359375
1445426169652;139.97930908203125;-99.90999603271484;-5.998063087463379;2.61541748046875;-13.965652465820312;-3.144012451171875
1445426169685;148.3872833251953;-101.63890075683594;-4.8600873947143555;-0.7972869873046875;-12.47503662109375;0.1510162353515625
1445426169718;150.9671630859375;-101.652099609375;-4.5775604248046875;-1.9544830322265625;-13.514541625976562;1.4258880615234375
1445426169752;153.01895141601562;-99.33077239990234;-4.662337303161621;-2.5624847412109375;-14.730560302734375;0.3471527099609375
1445426169783;154.1215057373047;-97.9706039428711;-4.734100818634033;-1.228790283203125;-10.807907104492188;0.13140869140625
1445426169817;156.75294494628906;-95.45059967041016;-4.622995376586914;-0.3657989501953125;-8.925033569335938;-0.3197021484375
1445426169850;160.44776916503906;-94.25534057617188;-4.421224594116211;0.3206634521484375;-6.66949462890625;-3.536285400390625
1445426169883;163.36636352539062;-94.18901062011719;-4.033092498779297;-0.9934234619140625;-6.72833251953125;-2.9282684326171875
1445426169916;169.9434356689453;-95.34928131103516;-2.2489402294158936;-1.3268585205078125;-7.669769287109375;-2.8105926513671875
1445426169949;172.6166229248047;-96.0931625366211;-0.9641425013542175;-1.522979736328125;-9.474197387695312;-2.516387939453125
1445426169983;175.0455780029297;-96.8863525390625;2.0195727348327637;-2.739013671875;-10.513702392578125;-1.5945587158203125
1445426170015;174.2515411376953;-97.83828735351562;5.041271686553955;-1.0130462646484375;-10.572540283203125;-1.692626953125
1445426170049;172.6709747314453;-98.52204895019531;5.890673637390137;0.3991241455078125;-12.121994018554688;-2.32025146484375
1445426170082;172.27511596679688;-99.1264419555664;6.039666175842285;-0.1696624755859375;-12.02392578125;-2.2418060302734375
1445426170114;172.34031677246094;-98.15591430664062;5.950197219848633;-2.484039306640625;-12.396575927734375;-0.9080963134765625
1445426170146;171.742919921875;-97.05892944335938;5.737955570220947;-2.11138916015625;-11.90625;-0.692352294921875
1445426170181;169.40342712402344;-94.8191909790039;4.448610782623291;-1.15032958984375;-10.847137451171875;-0.692352294921875
1445426170213;166.52728271484375;-93.21344757080078;2.6836867332458496;-0.01275634765625;-8.670059204101562;-1.0453948974609375
1445426170247;165.2239990234375;-92.75743865966797;2.001678228378296;-0.542327880859375;-7.5913238525390625;-2.3594818115234375
1445426170279;163.22337341308594;-92.8085708618164;1.1914278268814087;-0.718841552734375;-7.92474365234375;-3.1244049072265625
1445426170311;161.4359130859375;-94.60010528564453;0.9231930375099182;-2.7586212158203125;-7.826690673828125;-1.947601318359375
1445426170350;159.1012420654297;-95.78581237792969;0.7648792862892151;-2.2682952880859375;-8.120880126953125;-2.32025146484375
1445426170378;153.5259246826172;-98.027587890625;0.7693551778793335;-4.935699462890625;-9.160385131835938;2.4850006103515625
1445426170411;146.44493103027344;-100.3487777709961;0.2821306586265564;0.2029876708984375;-13.1026611328125;0.2294769287109375
1445426170444;143.19204711914062;-101.92782592773438;-0.5443418622016907;2.3408355712890625;-12.35736083984375;0.759033203125
1445426170478;138.63917541503906;-103.50839233398438;-1.844578742980957;2.301605224609375;-13.318405151367188;0.1706390380859375
1445426170510;135.06988525390625;-102.97462463378906;-2.6183197498321533;0.595245361328125;-13.867584228515625;-0.3393096923828125
1445426170543;133.01536560058594;-102.37124633789062;-3.0654354095458984;-0.091217041015625;-13.122268676757812;-0.3785400390625
1445426170576;128.37515258789062;-101.11470794677734;-3.5335588455200195;-0.4638671875;-10.5921630859375;-0.0451202392578125
1445426170609;125.958984375;-100.48383331298828;-3.6162350177764893;1.438629150390625;-7.5324859619140625;-0.4766082763671875
1445426170643;121.0057373046875;-99.38711547851562;-4.150705337524414;1.673980712890625;-7.179443359375;-1.12384033203125
1445426170676;117.091796875;-99.54776000976562;-4.686709403991699;1.12481689453125;-7.1990509033203125;-2.2418060302734375
1445426170708;114.8660888671875;-100.4683609008789;-5.082189083099365;1.2817230224609375;-6.8264007568359375;-2.5359954833984375
1445426170741;110.96348571777344;-103.29129028320312;-6.298196792602539;1.732818603515625;-7.1990509033203125;-2.457550048828125
1445426170774;108.69189453125;-105.76516723632812;-7.722031593322754;2.242767333984375;-10.7686767578125;-0.9865570068359375
1445426170808;107.41903686523438;-106.79838562011719;-8.776056289672852;3.0665283203125;-11.533599853515625;-1.3984375
1445426170840;106.3502197265625;-107.76840209960938;-10.187376976013184;0.8894500732421875;-12.435806274414062;-1.5945587158203125
1445426170873;105.5145263671875;-107.2038345336914;-10.582135200500488;-0.032379150390625;-13.61260986328125;-1.692626953125
1445426170906;103.577392578125;-104.47201538085938;-11.03313159942627;0.10491943359375;-12.808456420898438;-1.3592071533203125
1445426170939;102.81344604492188;-100.94722747802734;-11.294614791870117;1.1444244384765625;-9.3369140625;-1.3592071533203125
1445426170972;102.710693359375;-99.43437957763672;-11.494842529296875;1.5955352783203125;-7.0813751220703125;-2.398712158203125
1445426171006;103.00064086914062;-97.59896850585938;-12.075347900390625;1.7132110595703125;-6.43414306640625;-2.8498077392578125
1445426171039;104.55096435546875;-98.49443054199219;-12.323103904724121;1.30133056640625;-7.434417724609375;-2.7713623046875
1445426171071;105.16227722167969;-99.95661926269531;-11.994292259216309;2.5173492431640625;-7.669769287109375;-3.39898681640625
1445426171107;107.31393432617188;-104.35792541503906;-10.434938430786133;4.262939453125;-9.140777587890625;-4.0070037841796875
1445426171138;108.37152099609375;-106.7730484008789;-9.386285781860352;5.380889892578125;-13.083053588867188;-2.5359954833984375
1445426171173;108.92584228515625;-110.28904724121094;-7.299888610839844;4.6551971435546875;-13.2791748046875;-1.7906951904296875
1445426171203;108.96261596679688;-111.90032958984375;-4.982702732086182;4.439453125;-12.671173095703125;-1.7906951904296875
1445426171238;108.57943725585938;-111.57328033447266;-2.715576410293579;4.1648712158203125;-12.631942749023438;-1.4180450439453125
1445426171269;108.16685485839844;-110.79645538330078;-1.6814087629318237;4.5963592529296875;-11.121719360351562;-2.0456695556640625
1445426171302;108.58676147460938;-109.77120208740234;-0.2824840843677521;4.2041015625;-7.3951873779296875;-1.75146484375
1445426171335;110.11180114746094;-109.16132354736328;0.06065892055630684;1.9485626220703125;-4.904296875;-0.6138916015625
1445426171369;115.01705932617188;-108.00859832763672;0.35215312242507935;1.2032623291015625;-4.15899658203125;0.052947998046875
1445426171401;118.0135498046875;-107.69844055175781;0.627387523651123;0.5756378173828125;-4.33551025390625;0.386383056640625
1445426171433;124.64434814453125;-107.169677734375;1.6453043222427368;0.6344757080078125;-5.1396636962890625;-0.633514404296875
1445426171467;130.38531494140625;-106.74224853515625;2.633174419403076;1.1444244384765625;-7.7089996337890625;-2.6732940673828125
1445426171500;133.41465759277344;-106.63186645507812;3.131505250930786;1.222869873046875;-10.984420776367188;-2.516387939453125
1445426171534;139.71156311035156;-106.3365478515625;3.857515811920166;0.595245361328125;-15.534713745117188;-3.4382171630859375
1445426171566;144.46214294433594;-106.18128204345703;3.7395904064178467;0.6148681640625;-16.06427001953125;-3.712799072265625
1445426171602;145.83856201171875;-106.1207504272461;3.1011955738067627;1.105194091796875;-15.711227416992188;-3.830474853515625
1445426171633;148.93453979492188;-105.80470275878906;1.4204782247543335;1.36016845703125;-15.299346923828125;-3.6147308349609375
1445426171665;152.2766876220703;-104.80701446533203;-0.42420560121536255;1.47784423828125;-13.2203369140625;-2.9478759765625
1445426171698;153.6082000732422;-104.09644317626953;-1.484605312347412;1.105194091796875;-10.003753662109375;-2.1829681396484375
1445426171732;155.6292266845703;-102.78569793701172;-3.7689032554626465;1.222869873046875;-8.748504638671875;-1.9279937744140625
1445426171764;158.17303466796875;-102.31958770751953;-5.469686031341553;0.7913818359375;-6.1399383544921875;-1.3592071533203125
1445426171798;159.5023956298828;-102.33708190917969;-5.971246719360352;0.6344757080078125;-6.0811004638671875;-2.0456695556640625
1445426171830;161.72610473632812;-102.84017944335938;-6.4341721534729;0.536407470703125;-6.5910491943359375;-2.457550048828125
1445426171865;163.14305114746094;-104.0376968383789;-6.380529880523682;0.1833648681640625;-6.72833251953125;-2.281036376953125
1445426171899;163.92645263671875;-105.02163696289062;-6.3659281730651855;0.654083251953125;-7.297119140625;-2.6144561767578125
1445426171929;165.3105926513672;-107.56298828125;-6.32197380065918;1.6347503662109375;-10.003753662109375;-4.2619781494140625
1445426171962;165.38641357421875;-108.92749786376953;-6.31174373626709;0.2029876708984375;-12.239669799804688;-5.301483154296875
1445426171995;164.1105194091797;-111.61555480957031;-7.023984909057617;-0.58154296875;-12.02392578125;-5.3799285888671875
1445426172028;161.02728271484375;-113.90204620361328;-8.884784698486328;1.41900634765625;-11.592437744140625;-5.55645751953125
1445426172062;157.85897827148438;-114.75176239013672;-10.177178382873535;2.5761871337890625;-10.807907104492188;-5.2034149169921875
1445426172095;156.4730987548828;-114.43511962890625;-10.432793617248535;2.43890380859375;-10.180282592773438;-4.9288177490234375
1445426172127;154.1366729736328;-112.22928619384766;-10.404128074645996;1.673980712890625;-8.120880126953125;-3.261688232421875
1445426172161;152.89158630371094;-110.71673583984375;-10.39852523803711;0.928680419921875;-5.6888275146484375;-1.9868316650390625
1445426172193;149.40383911132812;-107.52983856201172;-10.8939208984375;0.595245361328125;-4.472808837890625;-1.3395843505859375
1445426172226;144.6761932373047;-104.52066040039062;-11.29032039642334;0.6933135986328125;-4.55126953125;-1.12384033203125
1445426172259;142.35726928710938;-103.30656433105469;-11.36469841003418;1.24249267578125;-5.276947021484375;-2.3006439208984375
1445426172292;138.08717346191406;-102.18138885498047;-11.233811378479004;3.321502685546875;-8.1993408203125;-4.4973297119140625
1445426172326;135.690185546875;-103.2884292602539;-10.504481315612793;4.5963592529296875;-12.161224365234375;-5.7133636474609375
1445426172357;136.06195068359375;-104.8266830444336;-10.072554588317871;4.7336578369140625;-14.240234375;-4.3011932373046875
1445426172391;133.63027954101562;-107.40908813476562;-10.043346405029297;5.655487060546875;-9.297683715820312;0.2686920166015625
1445426172425;132.2211151123047;-106.8963394165039;-10.665830612182617;4.9690093994140625;-14.024490356445312;-0.77081298828125
1445426172458;130.6790008544922;-104.63001251220703;-11.64925765991211;3.51763916015625;-13.024200439453125;-0.82965087890625
1445426172491;131.47705078125;-102.34268188476562;-10.822335243225098;0.8894500732421875;-9.180007934570312;-1.1630706787109375
1445426172523;132.32249450683594;-100.7367172241211;-9.952255249023438;-0.032379150390625;-8.846572875976562;-1.8495330810546875
1445426172556;132.31954956054688;-97.53872680664062;-8.797286033630371;0.16375732421875;-8.76812744140625;-2.37908935546875
1445426172590;132.89942932128906;-96.21698760986328;-8.59328842163086;0.1441497802734375;-8.689666748046875;-4.2423553466796875
1445426172626;135.3210906982422;-96.99866485595703;-8.00098991394043;-1.1895599365234375;-8.748504638671875;-3.026336669921875
1445426172655;135.8631591796875;-97.89274597167969;-7.496999263763428;-1.0130462646484375;-8.611221313476562;-2.5556182861328125
1445426172688;136.0111541748047;-100.20358276367188;-6.846809387207031;-1.03265380859375;-8.277786254882812;-0.300079345703125
1445426172722;135.47474670410156;-101.51177215576172;-6.793913841247559;-0.601165771484375;-8.277786254882812;-0.4177703857421875
1445426172756;134.7671661376953;-102.78340148925781;-6.811618328094482;1.732818603515625;-12.02392578125;-0.633514404296875
1445426172787;133.9744110107422;-102.85807037353516;-6.896511554718018;0.6148681640625;-13.1614990234375;-0.5354461669921875
1445426172820;132.00357055664062;-101.97954559326172;-6.590153217315674;-0.1108245849609375;-13.926422119140625;-0.6727447509765625
1445426172853;131.30517578125;-100.16886901855469;-5.333841323852539;-0.032379150390625;-13.2791748046875;-0.7315826416015625
1445426172886;131.50521850585938;-99.03964233398438;-4.564637184143066;-0.1304473876953125;-11.90625;-0.7315826416015625
1445426172919;131.64271545410156;-96.68873596191406;-3.4111759662628174;0.026458740234375;-10.454864501953125;-0.8492584228515625
1445426172952;130.68502807617188;-95.01577758789062;-3.255012273788452;0.04608154296875;-7.86590576171875;-1.1630706787109375
1445426172987;130.14149475097656;-94.70552825927734;-3.2580137252807617;-0.836517333984375;-7.257904052734375;-2.339874267578125
1445426173018;128.67604064941406;-95.8128662109375;-2.9605908393859863;-1.228790283203125;-7.297119140625;-2.398712158203125
1445426173051;125.48417663574219;-98.62942504882812;-2.8749537467956543;-0.4442596435546875;-6.865631103515625;-0.7904205322265625
1445426173085;124.10076904296875;-99.92696380615234;-3.0703279972076416;0.5756378173828125;-7.7089996337890625;0.24908447265625
1445426173117;122.00552368164062;-101.6591796875;-4.180103302001953;3.7333831787109375;-12.004318237304688;-4.1246795654296875
1445426173150;120.45669555664062;-102.7213134765625;-5.322045803070068;1.75244140625;-10.866744995117188;-1.202301025390625
1445426173183;119.42080688476562;-105.7518539428711;-6.67732048034668;1.438629150390625;-11.16094970703125;-1.378814697265625
1445426173216;117.16621398925781;-105.94083404541016;-7.377005100250244;-0.6992340087890625;-15.691619873046875;-2.32025146484375
1445426173250;115.85769653320312;-105.52462005615234;-7.400936126708984;0.301055908203125;-14.102935791015625;-1.12384033203125
1445426173282;114.26934814453125;-103.93737030029297;-6.9155707359313965;0.8109893798828125;-12.945755004882812;-0.88848876953125
1445426173315;112.75454711914062;-101.31071472167969;-6.543989181518555;1.5759124755859375;-10.003753662109375;-1.0453948974609375
1445426173350;111.6610107421875;-99.93268585205078;-6.52806282043457;1.811279296875;-7.4540252685546875;-1.51611328125
1445426173382;109.94499206542969;-97.90715026855469;-6.7667107582092285;2.164306640625;-6.72833251953125;-2.006439208984375
1445426173414;109.23593139648438;-97.92460632324219;-7.60105037689209;2.1446990966796875;-5.610382080078125;-1.574951171875
1445426173446;108.78402709960938;-98.72105407714844;-8.260461807250977;2.10546875;-4.7081756591796875;-1.5357208251953125
1445426173480;109.11337280273438;-100.92535400390625;-9.880879402160645;1.8701171875;-6.0418701171875;-1.1630706787109375
1445426173514;109.7318115234375;-102.20348358154297;-12.139558792114258;0.6344757080078125;-13.239959716796875;-2.8890380859375
1445426173546;109.75640869140625;-103.36798095703125;-13.655133247375488;-0.954193115234375;-12.259292602539062;-1.5553436279296875
1445426173579;108.9993896484375;-104.59620666503906;-16.06369400024414;-2.2682952880859375;-13.573379516601562;-2.3006439208984375
1445426173612;108.16168212890625;-104.14508056640625;-16.637248992919922;-1.0522613525390625;-13.749893188476562;-2.339874267578125
1445426173646;107.78981018066406;-102.59320068359375;-16.124683380126953;-0.7384490966796875;-12.867294311523438;-1.437652587890625
1445426173679;107.23947143554688;-100.4085693359375;-14.897767066955566;0.9482879638671875;-11.043258666992188;-0.7315826416015625
1445426173711;106.67057800292969;-99.6958236694336;-14.40147590637207;3.949127197265625;-7.0813751220703125;-1.9279937744140625
1445426173745;105.48268127441406;-99.61051177978516;-13.974138259887695;5.3024444580078125;-6.6498870849609375;-3.0067291259765625
1445426173777;105.97401428222656;-101.93184661865234;-13.572565078735352;5.12591552734375;-9.00347900390625;-4.0462188720703125
1445426173811;105.58517456054688;-103.5942611694336;-12.93915843963623;3.92950439453125;-9.670333862304688;-3.7520294189453125
1445426173843;105.0390625;-106.50704956054688;-10.584220886230469;4.5375213623046875;-10.8863525390625;-1.771087646484375
1445426173877;106.80975341796875;-107.99781799316406;-7.502357006072998;7.3618316650390625;-11.984695434570312;-1.8691558837890625
1445426173910;107.52017211914062;-107.86341094970703;-6.402559280395508;7.2637786865234375;-11.670883178710938;-2.4379425048828125
1445426173942;108.07379150390625;-107.14646911621094;-4.742963790893555;5.027862548828125;-10.6510009765625;-2.02606201171875
1445426173975;108.1597900390625;-106.4888687133789;-3.765545129776001;1.928955078125;-7.9051361083984375;-0.515838623046875
1445426174008;108.25994873046875;-104.49032592773438;-1.297816276550293;1.7132110595703125;-6.37530517578125;-0.574676513671875
1445426174041;109.194580078125;-103.01980590820312;1.2439333200454712;0.28143310546875;-4.413970947265625;-1.319976806640625
1445426174074;110.51840209960938;-102.9723129272461;2.746258020401001;0.3991241455078125;-5.100433349609375;-1.96722412109375
1445426174107;113.22308349609375;-103.12287139892578;5.432530403137207;0.6737060546875;-5.551544189453125;-2.908660888671875
1445426174140;114.72891235351562;-103.49540710449219;6.801771640777588;2.49774169921875;-9.729171752929688;-4.4973297119140625
1445426174173;114.80682373046875;-104.04932403564453;6.704045295715332;2.183929443359375;-12.573104858398438;-4.8699798583984375
1445426174206;114.20166015625;-105.71953582763672;5.399020671844482;2.301605224609375;-15.5543212890625;-4.2619781494140625
1445426174239;113.68231201171875;-107.10846710205078;3.4358906745910645;0.16375732421875;-16.848800659179688;-4.3011932373046875
1445426174272;113.28125;-107.44129180908203;2.587157726287842;0.026458740234375;-16.495758056640625;-4.4973297119140625
1445426174308;112.51216125488281;-107.44322967529297;1.3608723878860474;0.928680419921875;-12.828079223632812;-3.3205413818359375
1445426174339;112.11488342285156;-107.00373077392578;0.9431756138801575;0.6933135986328125;-9.06231689453125;-1.9868316650390625
1445426174371;110.93296813964844;-105.79647064208984;-0.12131109088659286;0.22259521484375;-7.2186737060546875;-1.6533966064453125
1445426174405;109.29852294921875;-105.31695556640625;-1.746251106262207;-0.1696624755859375;-5.0219879150390625;-1.261138916015625
1445426174438;108.6859130859375;-105.45246887207031;-2.532172441482544;0.4383392333984375;-4.55126953125;-1.771087646484375
1445426174471;107.99334716796875;-106.18546295166016;-3.789828062057495;0.8306121826171875;-5.1200408935546875;-2.4379425048828125
1445426174503;107.87765502929688;-107.51200103759766;-4.604002475738525;1.7132110595703125;-6.0418701171875;-2.5948486328125
1445426174536;108.18986511230469;-108.26175689697266;-5.0788750648498535;3.9098968505859375;-9.90570068359375;-2.339874267578125
1445426174570;109.47940063476562;-109.84904479980469;-6.013108253479004;4.812103271484375;-12.769241333007812;-2.6144561767578125
1445426174602;109.9158935546875;-110.75755310058594;-6.972016334533691;2.9488525390625;-11.435531616210938;-4.5757904052734375
1445426174635;111.53399658203125;-112.8133773803711;-9.887691497802734;3.1645965576171875;-12.730010986328125;-4.8307647705078125
1445426174669;112.33543395996094;-113.47608184814453;-12.304485321044922;3.321502685546875;-13.455703735351562;-5.360321044921875
1445426174701;111.90032958984375;-112.9966812133789;-13.267613410949707;2.811553955078125;-11.121719360351562;-4.399261474609375
1445426174735;111.08868408203125;-110.6854019165039;-14.568381309509277;2.2231597900390625;-9.886077880859375;-3.771636962890625
1445426174767;110.45352172851562;-107.77543640136719;-15.337987899780273;0.9678955078125;-6.9048614501953125;-2.5948486328125
1445426174800;110.14193725585938;-106.44158172607422;-15.715102195739746;0.6148681640625;-4.982757568359375;-1.12384033203125
1445426174833;108.89486694335938;-103.9277114868164;-16.08574867248535;0.9090576171875;-4.5708770751953125;-0.7904205322265625
1445426174866;107.61976623535156;-102.40078735351562;-15.389188766479492;2.10546875;-4.8846893310546875;-2.1045074462890625
1445426174899;107.55227661132812;-101.9930419921875;-14.548913955688477;3.75299072265625;-6.924468994140625;-2.516387939453125
1445426174933;109.09341430664062;-102.08085632324219;-12.200689315795898;5.6947021484375;-9.278060913085938;-3.6147308349609375
1445426174965;109.6793212890625;-103.39044189453125;-13.500802040100098;8.067916870117188;-19.359298706054688;-5.2622528076171875
1445426174998;109.02877807617188;-104.71366882324219;-14.943580627441406;5.263214111328125;-13.749893188476562;-0.4373779296875
1445426175031;108.44142150878906;-105.05362701416016;-16.75648307800293;3.3411102294921875;-7.23828125;-0.3197021484375
1445426175064;110.11944580078125;-104.36197662353516;-15.667584419250488;-0.3657989501953125;-13.67144775390625;-1.4768829345703125
1445426175097;112.90301513671875;-101.5469741821289;-11.784124374389648;-1.3072357177734375;-11.886642456054688;-1.888763427734375
1445426175130;116.59544372558594;-98.99900817871094;-9.522506713867188;0.0656890869140625;-8.983871459960938;-2.2418060302734375
1445426175164;116.74603271484375;-97.96404266357422;-8.927681922912598;0.28143310546875;-8.3170166015625;-2.3594818115234375
1445426175196;117.11038208007812;-96.41883087158203;-7.636514186859131;0.10491943359375;-8.983871459960938;-3.791259765625
1445426175229;120.89328002929688;-97.00769805908203;-6.145280838012695;-0.0716094970703125;-8.748504638671875;-3.595123291015625
1445426175262;121.7347412109375;-98.0832748413086;-5.560420036315918;-1.169952392578125;-7.1598358154296875;-0.3393096923828125
1445426175295;123.71868896484375;-100.5437240600586;-4.684682846069336;-2.05255126953125;-7.5913238525390625;1.4258880615234375
1445426175328;123.99336242675781;-101.13048553466797;-4.359506607055664;-1.1307220458984375;-11.51397705078125;-0.0254974365234375
1445426175360;122.72625732421875;-102.16447448730469;-4.29992151260376;0.8306121826171875;-12.71038818359375;-0.3785400390625
1445426175394;122.21063232421875;-102.91802215576172;-4.920377254486084;2.32122802734375;-12.220062255859375;-0.1039581298828125
1445426175427;123.2088623046875;-102.33755493164062;-4.116666793823242;0.0068511962890625;-14.161773681640625;-0.2804718017578125
1445426175460;123.89447021484375;-101.11164855957031;-3.350308418273926;-1.0718841552734375;-14.024490356445312;-0.4766082763671875
1445426175493;124.92413330078125;-98.19071960449219;-2.4617271423339844;-1.522979736328125;-11.612045288085938;-0.3393096923828125
1445426175527;124.9818115234375;-96.67528533935547;-2.5726935863494873;0.242218017578125;-9.650726318359375;-0.5550537109375
1445426175560;124.59759521484375;-94.0826416015625;-3.165850877761841;0.9678955078125;-8.670059204101562;-1.084625244140625
1445426175593;124.76739501953125;-92.4146499633789;-3.585294246673584;0.8306121826171875;-6.9636993408203125;-2.1633453369140625
1445426175629;125.06222534179688;-92.18439483642578;-3.7713704109191895;-0.091217041015625;-7.4148101806640625;-2.8302001953125
1445426175659;126.179443359375;-93.2989730834961;-3.789431095123291;-1.09149169921875;-7.9639739990234375;-2.6536865234375
1445426175691;125.75924682617188;-95.85791778564453;-3.1055853366851807;-0.836517333984375;-8.062042236328125;-2.339874267578125
1445426175724;125.55548095703125;-97.53297424316406;-2.6090195178985596;-0.287353515625;-8.238555908203125;0.7001953125
1445426175757;124.53640747070312;-99.91297149658203;-2.1726865768432617;0.7325439453125;-10.062606811523438;-1.0257720947265625
1445426175790;123.80281066894531;-102.27394104003906;-2.6765291690826416;1.2032623291015625;-12.612335205078125;-1.8495330810546875
1445426175823;123.85980224609375;-103.2181167602539;-3.257540225982666;1.850494384765625;-12.71038818359375;-1.692626953125
1445426175856;124.5113525390625;-103.60330963134766;-4.253237247467041;0.595245361328125;-14.279464721679688;-1.6141815185546875
1445426175890;124.691650390625;-103.06468963623047;-4.6819844245910645;0.22259521484375;-13.691055297851562;-1.202301025390625
1445426175924;125.0526123046875;-101.26243591308594;-5.473659992218018;0.22259521484375;-13.024200439453125;-0.9865570068359375
1445426175955;125.2303466796875;-98.890380859375;-5.750856876373291;0.2618255615234375;-11.121719360351562;-0.82965087890625
1445426175989;125.12692260742188;-97.6417465209961;-5.7403645515441895;0.359893798828125;-9.493820190429688;-0.94732666015625
1445426176021;124.93380737304688;-95.49382781982422;-5.880105495452881;0.7129364013671875;-6.924468994140625;-1.574951171875
1445426176056;125.23257446289062;-94.7379150390625;-6.278929710388184;0.477569580078125;-5.8261260986328125;-2.20257568359375
1445426176089;125.733642578125;-95.10871124267578;-6.505529880523682;0.16375732421875;-5.8261260986328125;-2.6732940673828125
1445426176123;127.83247375488281;-97.31344604492188;-6.211745738983154;-0.34619140625;-6.238006591796875;-3.9481658935546875
1445426176154;130.54864501953125;-100.09042358398438;-5.39860200881958;-1.2483978271484375;-8.76812744140625;-1.829925537109375
1445426176186;129.9920196533203;-100.988525390625;-5.864736080169678;-0.8757476806640625;-9.552658081054688;-0.2020263671875
1445426176222;127.79257202148438;-102.55451965332031;-8.088770866394043;-1.111114501953125;-12.35736083984375;-2.1241302490234375
1445426176252;126.1651611328125;-103.03539276123047;-9.384563446044922;-0.1696624755859375;-15.632781982421875;-0.9865570068359375
1445426176285;123.49362182617188;-103.26603698730469;-10.789067268371582;0.6344757080078125;-15.907363891601562;-0.7904205322265625
1445426176319;121.36882019042969;-101.08447265625;-10.989973068237305;0.026458740234375;-13.416473388671875;-0.7904205322265625
1445426176352;119.3883056640625;-99.21234130859375;-11.337663650512695;3.615692138671875;-10.8275146484375;-3.2420806884765625
1445426176384;117.88385009765625;-96.62239074707031;-12.50689697265625;4.8513336181640625;-10.239120483398438;-3.4185943603515625
1445426176417;118.94532775878906;-96.79281616210938;-13.805330276489258;4.2041015625;-7.061767578125;-2.339874267578125
1445426176450;120.07254028320312;-97.67689514160156;-14.01584243774414;2.5173492431640625;-5.845733642578125;-1.3984375
1445426176483;121.11198425292969;-100.03740692138672;-13.641051292419434;2.635040283203125;-6.7675628662109375;-1.96722412109375
1445426176516;121.97688293457031;-102.67407989501953;-12.987239837646484;2.360443115234375;-10.02337646484375;-3.8697052001953125
1445426176549;122.293701171875;-104.01139068603516;-12.401764869689941;2.301605224609375;-9.984146118164062;-3.3793792724609375
1445426176582;123.62953186035156;-106.5593490600586;-9.980344772338867;2.635040283203125;-6.7675628662109375;-0.3393096923828125
1445426176615;125.38299560546875;-107.22093200683594;-8.09874153137207;2.5369720458984375;-4.8258514404296875;1.3670501708984375
1445426176648;128.94691467285156;-106.87059020996094;-4.509911060333252;2.8311614990234375;-4.8062286376953125;0.327545166015625
1445426176681;130.1163330078125;-106.55003356933594;-2.2349693775177;2.988067626953125;-7.4148101806640625;-2.4183197021484375
1445426176714;131.05096435546875;-106.30176544189453;-1.1908113956451416;3.380340576171875;-12.102386474609375;-2.398712158203125
1445426176747;135.3658905029297;-104.35625457763672;0.8097851276397705;3.9098968505859375;-13.828353881835938;-2.398712158203125
1445426176780;138.8136749267578;-102.19243621826172;0.512839674949646;2.7723236083984375;-15.063995361328125;-3.4185943603515625
1445426176813;140.24534606933594;-101.4527816772461;-0.32572153210639954;2.693878173828125;-15.848526000976562;-4.4973297119140625
1445426176846;142.58370971679688;-100.60465240478516;-2.4696850776672363;2.55657958984375;-15.515090942382812;-4.71307373046875
1445426176879;144.7752227783203;-100.19783782958984;-4.3413848876953125;1.18365478515625;-12.35736083984375;-3.3205413818359375
1445426176913;145.7356414794922;-100.07273864746094;-5.252444744110107;0.595245361328125;-10.435256958007812;-2.1045074462890625
1445426176945;146.25428771972656;-100.0595474243164;-7.562246322631836;0.4971771240234375;-7.375579833984375;-0.9080963134765625
1445426176978;146.0922393798828;-100.25360870361328;-8.812718391418457;0.595245361328125;-5.100433349609375;-0.4766082763671875
1445426177011;145.49168395996094;-100.7759017944336;-11.049232482910156;0.536407470703125;-5.100433349609375;-0.94732666015625
1445426177044;145.80160522460938;-101.80934143066406;-12.052998542785645;0.10491943359375;-6.5714263916015625;-2.08489990234375
1445426177077;146.53407287597656;-102.6966781616211;-11.903319358825684;0.6148681640625;-7.5324859619140625;-2.575225830078125
1445426177110;148.31930541992188;-105.17558288574219;-11.491625785827637;0.9678955078125;-7.7678375244140625;-3.0067291259765625
1445426177143;150.94805908203125;-107.90924072265625;-11.434173583984375;3.3018798828125;-11.21978759765625;-4.0070037841796875
1445426177176;151.87185668945312;-108.99238586425781;-11.651690483093262;2.4781341552734375;-12.180831909179688;-5.536834716796875
1445426177210;152.14373779296875;-111.08354187011719;-13.08500862121582;1.9093475341796875;-11.33746337890625;-5.595672607421875
1445426177242;151.33721923828125;-112.12442779541016;-14.545595169067383;2.2623748779296875;-12.063156127929688;-5.67413330078125
1445426177274;150.22647094726562;-111.933837890625;-15.214517593383789;2.0270233154296875;-11.886642456054688;-5.7722015380859375
1445426177310;147.90164184570312;-110.87113189697266;-16.209957122802734;1.497467041015625;-9.768402099609375;-4.65423583984375
1445426177341;146.20716857910156;-109.44940185546875;-16.770200729370117;1.75244140625;-6.1987762451171875;-2.516387939453125
1445426177374;145.6219482421875;-108.76580810546875;-16.97817039489746;1.7720489501953125;-5.4534759521484375;-2.065277099609375
1445426177407;144.44175720214844;-107.72876739501953;-17.471912384033203;2.5958099365234375;-5.17889404296875;-1.6533966064453125
1445426177440;143.83279418945312;-107.41088104248047;-17.64661979675293;3.0861358642578125;-5.7476806640625;-1.888763427734375
1445426177475;142.66647338867188;-107.35475158691406;-17.75303840637207;3.3607330322265625;-6.0418701171875;-2.1633453369140625
1445426177507;142.78709411621094;-108.19125366210938;-17.53423309326172;4.0275726318359375;-7.1990509033203125;-2.967498779296875
1445426177544;144.08575439453125;-109.81816101074219;-17.45633888244629;5.596649169921875;-10.297958374023438;-5.55645751953125
1445426177572;143.71206665039062;-110.47909545898438;-17.859973907470703;6.5380859375;-12.828079223632812;-8.12579345703125
1445426177605;141.75372314453125;-111.51636505126953;-18.774391174316406;5.086700439453125;-13.122268676757812;-4.6150054931640625
1445426177639;140.66415405273438;-111.54524230957031;-18.680898666381836;5.9889068603515625;-7.1990509033203125;-1.4768829345703125
1445426177671;139.5491943359375;-109.49674987792969;-17.950559616088867;6.26348876953125;-7.92474365234375;-1.143463134765625
1445426177705;140.42764282226562;-106.03750610351562;-16.693340301513672;3.556854248046875;-11.435531616210938;-0.82965087890625
1445426177737;141.62261962890625;-104.56208038330078;-15.720531463623047;2.55657958984375;-10.062606811523438;-0.4177703857421875
1445426177770;146.4681396484375;-102.62220001220703;-13.570484161376953;0.5756378173828125;-8.630828857421875;-0.751190185546875
1445426177805;151.86090087890625;-101.35086059570312;-10.965930938720703;-0.267730712890625;-9.376129150390625;-2.2418060302734375
1445426177836;154.06289672851562;-101.14141082763672;-9.715360641479492;0.3206634521484375;-9.591873168945312;-2.1633453369140625
1445426177869;157.74002075195312;-102.3733139038086;-7.410616874694824;1.105194091796875;-8.3170166015625;-1.692626953125
1445426177901;160.51402282714844;-103.29126739501953;-6.017754554748535;0.3795013427734375;-8.179718017578125;-0.868865966796875
1445426177935;166.31414794921875;-103.65277099609375;-3.5352931022644043;-0.954193115234375;-10.337188720703125;0.3471527099609375
1445426177968;169.19166564941406;-103.23493957519531;-3.088491678237915;-1.6014404296875;-12.631942749023438;-0.6138916015625
1445426178001;170.48345947265625;-103.12753295898438;-3.1917874813079834;-0.9934234619140625;-12.337738037109375;-0.2216339111328125
1445426178035;172.90670776367188;-102.23347473144531;-2.865396022796631;-0.6207733154296875;-12.455429077148438;-0.4177703857421875
1445426178068;174.79005432128906;-99.9005355834961;-2.304349899291992;-0.0519866943359375;-11.572830200195312;-0.6727447509765625
1445426178100;175.40045166015625;-98.80555725097656;-2.2078115940093994;-0.3069610595703125;-10.925582885742188;-0.9277191162109375
1445426178133;177.13580322265625;-97.3568115234375;-1.948266625404358;0.0068511962890625;-9.00347900390625;-2.1829681396484375
1445426178166;179.44940185546875;-96.92520141601562;-1.631035566329956;-0.836517333984375;-7.4540252685546875;-2.9871063232421875
1445426178199;180.7515869140625;-97.4387435913086;-1.232373833656311;-1.15032958984375;-7.1990509033203125;-2.9871063232421875
1445426178232;182.3482666015625;-99.58782196044922;-0.18985891342163086;-1.7191162109375;-7.2186737060546875;-2.1241302490234375
1445426178265;181.9661865234375;-100.82743835449219;-0.07452987134456635;-0.3657989501953125;-8.513153076171875;-0.3981475830078125
1445426178298;180.38336181640625;-103.25208282470703;-0.7085039615631104;0.2029876708984375;-9.807632446289062;-1.4768829345703125
1445426178331;180.4271240234375;-104.69024658203125;-0.8201531171798706;0.8894500732421875;-10.9451904296875;-0.574676513671875
1445426178365;179.94683837890625;-104.89134979248047;-0.9868417978286743;-0.267730712890625;-14.573654174804688;-1.6730194091796875
1445426178398;178.78921508789062;-104.6653823852539;-1.6688088178634644;-0.1108245849609375;-13.946029663085938;-1.06500244140625
1445426178430;178.45928955078125;-103.88508605957031;-2.6598000526428223;0.3795013427734375;-13.004592895507812;-0.6138916015625
1445426178466;178.6165313720703;-103.21864318847656;-2.9047327041625977;0.6148681640625;-12.239669799804688;-0.5354461669921875
1445426178498;178.61463928222656;-101.76305389404297;-3.185044050216675;0.7129364013671875;-9.827239990234375;-0.868865966796875
1445426178530;178.02357482910156;-100.94438934326172;-3.5959880352020264;0.16375732421875;-7.0225372314453125;-1.5553436279296875
1445426178562;177.87034606933594;-100.83065032958984;-3.7723145484924316;0.1441497802734375;-6.179168701171875;-2.0456695556640625
1445426178595;177.1606903076172;-101.61244201660156;-3.9095513820648193;-0.8757476806640625;-5.8261260986328125;-1.378814697265625
1445426178628;174.91017150878906;-103.74561309814453;-3.6182050704956055;-0.91497802734375;-5.9830322265625;-2.0456695556640625
1445426178661;172.9403533935547;-105.15127563476562;-3.748422384262085;-0.150054931640625;-8.415084838867188;-2.5556182861328125
1445426178694;168.8785858154297;-107.20069885253906;-4.6195526123046875;1.3405609130859375;-14.710952758789062;-2.02606201171875
1445426178727;166.82240295410156;-108.38011169433594;-5.464996814727783;-0.542327880859375;-12.121994018554688;0.5432891845703125
1445426178760;163.92921447753906;-111.80719757080078;-7.5952372550964355;2.242767333984375;-12.004318237304688;-0.1627960205078125
1445426178793;162.86581420898438;-112.51789855957031;-7.689471244812012;2.7723236083984375;-13.651840209960938;-1.00616455078125
1445426178827;162.97305297851562;-111.4769515991211;-7.111222743988037;3.92950439453125;-8.925033569335938;-2.516387939453125
1445426178859;165.05751037597656;-108.51486206054688;-6.799788951873779;3.7137603759765625;-8.473922729492188;-3.536285400390625
1445426178892;166.65203857421875;-106.01728820800781;-8.699214935302734;3.1842041015625;-9.180007934570312;-3.6147308349609375
1445426178926;167.1144256591797;-105.22677612304688;-9.582059860229492;3.2038116455078125;-8.82696533203125;-3.85009765625
1445426178958;169.5271759033203;-105.40410614013672;-10.622577667236328;2.6546478271484375;-8.2581787109375;-5.026885986328125
1445426178991;173.68470764160156;-108.43974304199219;-10.602690696716309;2.929229736328125;-7.86590576171875;-4.6150054931640625
1445426179023;176.10897827148438;-109.98477935791016;-10.359545707702637;2.38006591796875;-7.74822998046875;-4.36004638671875
1445426179058;181.48382568359375;-111.51781463623047;-8.723437309265137;-0.6992340087890625;-6.1595458984375;-1.7318572998046875
1445426179090;184.1903076171875;-111.31970977783203;-7.453155994415283;-0.4834747314453125;-4.6885528564453125;-1.202301025390625
1445426179123;188.99993896484375;-109.63187408447266;-5.534245491027832;0.9482879638671875;-5.9241943359375;-2.7713623046875
1445426179157;192.813720703125;-108.0997085571289;-4.907530784606934;3.1645965576171875;-10.807907104492188;-6.223297119140625
1445426179189;194.5362548828125;-107.16201782226562;-4.64841365814209;-0.4246368408203125;-13.200729370117188;-5.0465087890625
1445426179222;198.2286376953125;-104.34191131591797;-4.304291725158691;-1.8956451416015625;-13.534149169921875;-4.3208160400390625
1445426179255;199.86334228515625;-101.49163055419922;-4.782942295074463;-0.8169097900390625;-13.122268676757812;-5.55645751953125
1445426179288;200.25408935546875;-100.20091247558594;-5.0491743087768555;-0.1304473876953125;-11.925857543945312;-5.301483154296875
1445426179322;200.66644287109375;-97.8042984008789;-5.547877788543701;0.1833648681640625;-8.905410766601562;-3.16363525390625
1445426179355;200.1575927734375;-95.8814697265625;-6.20441198348999;-0.228515625;-6.0222625732421875;-2.20257568359375
1445426179387;200.114990234375;-95.29254150390625;-6.436324596405029;-0.150054931640625;-5.5123138427734375;-2.1829681396484375
1445426179420;201.0474853515625;-94.87877655029297;-6.034631729125977;-0.01275634765625;-7.1598358154296875;-2.5556182861328125
1445426179453;201.61004638671875;-94.84520721435547;-5.4603271484375;0.0656890869140625;-8.866195678710938;-3.45782470703125
1445426179486;202.626953125;-95.09314727783203;-4.3126020431518555;0.869842529296875;-9.552658081054688;-4.340423583984375
1445426179519;202.22845458984375;-96.24622344970703;-4.106144428253174;1.0659637451171875;-13.73028564453125;-4.8699798583984375
1445426179552;201.4378662109375;-97.00326538085938;-4.277552604675293;-0.150054931640625;-15.122833251953125;-4.144287109375
1445426179585;198.7679443359375;-98.75694274902344;-5.09241247177124;-0.1696624755859375;-15.122833251953125;-4.0070037841796875
1445426179618;194.69927978515625;-100.63520812988281;-6.241408348083496;0.359893798828125;-13.2203369140625;-3.85009765625
1445426179653;192.3013916015625;-101.58653259277344;-6.874095916748047;0.22259521484375;-10.239120483398438;-2.6732940673828125
1445426179684;186.3460693359375;-103.22296905517578;-8.42689037322998;-0.208892822265625;-8.76812744140625;-2.1045074462890625
1445426179717;180.130615234375;-104.61461639404297;-10.102967262268066;-0.3069610595703125;-6.2772369384765625;-1.0257720947265625
1445426179750;177.22108459472656;-105.3366470336914;-10.937583923339844;0.10491943359375;-5.5907745361328125;-0.82965087890625
1445426179783;172.531005859375;-106.98611450195312;-12.260597229003906;1.164031982421875;-5.3161773681640625;-1.5357208251953125
1445426179816;170.58558654785156;-107.73943328857422;-12.65754222869873;2.693878173828125;-6.8264007568359375;-3.026336669921875
1445426179849;166.2203826904297;-109.21968841552734;-13.284486770629883;4.459075927734375;-8.120880126953125;-3.28131103515625
1445426179882;160.2376708984375;-111.58123779296875;-15.275457382202148;4.83172607421875;-9.90570068359375;-3.830474853515625
1445426179916;157.5940704345703;-112.8239517211914;-16.190982818603516;3.87066650390625;-10.611770629882812;-4.968048095703125
1445426179949;153.43421936035156;-114.17350769042969;-17.608726501464844;3.439178466796875;-10.494094848632812;-4.9484405517578125
1445426179981;148.6051025390625;-113.83726501464844;-18.437105178833008;4.439453125;-9.591873168945312;-3.9677734375
1445426180015;145.9984130859375;-113.07963562011719;-18.372488021850586;4.2041015625;-9.45458984375;-3.2420806884765625
1445426180047;141.41787719726562;-110.3055419921875;-17.416704177856445;4.0471954345703125;-8.76812744140625;-1.771087646484375
1445426180081;139.68191528320312;-108.64464569091797;-16.793975830078125;4.94940185546875;-7.434417724609375;-1.06500244140625
1445426180112;139.2117462158203;-105.822021484375;-15.369176864624023;5.204376220703125;-6.55181884765625;-1.319976806640625
1445426180146;140.50003051757812;-103.68626403808594;-14.367608070373535;4.94940185546875;-6.1595458984375;-2.065277099609375
1445426180179;141.5120391845703;-104.31079864501953;-14.453473091125488;4.9297943115234375;-9.297683715820312;-4.850372314453125
1445426180212;143.0581512451172;-106.09711456298828;-15.023283958435059;5.5377960205078125;-13.808746337890625;-2.3594818115234375
1445426180245;141.86900329589844;-110.12133026123047;-16.96514129638672;3.8510589599609375;-7.434417724609375;-2.4183197021484375
1445426180278;142.45211791992188;-112.25144958496094;-16.68303680419922;-3.288177490234375;-7.7286224365234375;-2.9871063232421875
1445426180312;142.7791290283203;-113.19743347167969;-14.715729713439941;-1.5426025390625;-12.043548583984375;-3.889312744140625
1445426180345;142.1108856201172;-111.8890609741211;-12.636393547058105;-2.307525634765625;-12.788848876953125;-3.6147308349609375
1445426180377;141.37911987304688;-110.26192474365234;-11.756686210632324;-1.8367919921875;-14.044097900390625;-2.9282684326171875
1445426180410;139.04393005371094;-105.85621643066406;-9.855485916137695;-0.5619354248046875;-14.769790649414062;-1.6533966064453125
1445426180443;135.17791748046875;-100.64839172363281;-8.14184284210205;0.536407470703125;-14.554046630859375;-3.085174560546875
1445426180478;132.29248046875;-99.04228210449219;-8.160058975219727;1.1444244384765625;-14.142166137695312;-4.1246795654296875
1445426180510;127.07539367675781;-98.71086120605469;-8.662681579589844;0.8894500732421875;-9.45458984375;-2.575225830078125
1445426180543;123.93229675292969;-99.47404479980469;-8.097750663757324;-1.169952392578125;-4.610107421875;0.111785888671875
1445426180576;122.39822387695312;-99.62235260009766;-7.342037677764893;-1.2483978271484375;-2.707611083984375;1.2885894775390625
1445426180609;117.3197021484375;-98.52806854248047;-6.4435601234436035;-0.34619140625;-2.6683807373046875;2.4261627197265625
1445426180641;114.1180419921875;-97.82077026367188;-6.481464385986328;1.6935882568359375;-6.0811004638671875;0.2294769287109375
1445426180675;108.61117553710938;-98.50418853759766;-7.225131511688232;3.6549224853515625;-8.277786254882812;0.111785888671875
1445426180707;107.35606384277344;-101.0699234008789;-7.535801887512207;1.046356201171875;-9.06231689453125;2.5438385009765625
1445426180740;108.91888427734375;-101.88970947265625;-6.866904258728027;2.61541748046875;-22.811248779296875;-3.3793792724609375
1445426180773;108.1624755859375;-102.50078582763672;-6.382761001586914;0.3991241455078125;-20.026153564453125;-1.574951171875
1445426180807;106.58935546875;-102.88333129882812;-6.78841495513916;0.0853118896484375;-18.300186157226562;0.7786407470703125
1445426180839;105.50070190429688;-102.00604248046875;-7.04005241394043;-0.660003662109375;-17.9471435546875;1.4258880615234375
1445426180872;103.6409912109375;-98.31156158447266;-6.655238151550293;-0.7580718994140625;-15.142440795898438;-0.064727783203125
1445426180905;101.952392578125;-94.09957122802734;-6.13350248336792;1.0855865478515625;-9.219223022460938;-2.8498077392578125
1445426180938;100.706787109375;-92.90679931640625;-6.1638336181640625;1.2817230224609375;-6.179168701171875;-3.7324066162109375
1445426180971;99.92242431640625;-93.17826080322266;-6.302952289581299;-0.3854217529296875;-0.6482086181640625;-6.0075531005859375
1445426181004;100.73422241210938;-94.07888793945312;-5.990541458129883;-1.9936981201171875;1.2935028076171875;-0.2608642578125
1445426181037;102.83840942382812;-95.1739501953125;-4.3291425704956055;-2.2486724853515625;1.5484771728515625;3.8187103271484375
1445426181072;99.464599609375;-93.1951904296875;-3.711972713470459;0.1245269775390625;-3.13909912109375;-0.692352294921875
1445426181103;95.18032836914062;-93.22689819335938;-4.738166332244873;8.970123291015625;-24.301849365234375;-6.18408203125
1445426181138;92.31524658203125;-97.86924743652344;-7.942042350769043;6.518463134765625;-19.928085327148438;-3.28131103515625
1445426181169;93.40191650390625;-100.48048400878906;-8.215951919555664;-5.70062255859375;-12.161224365234375;1.818145751953125
1445426181203;92.45700073242188;-99.69695281982422;-7.406859874725342;-5.190673828125;-19.104324340820312;-0.77081298828125
1445426181235;89.52621459960938;-97.86070251464844;-6.8698344230651855;0.16375732421875;-20.202682495117188;-1.5553436279296875
1445426181268;88.30648803710938;-97.3096923828125;-7.172152042388916;4.4786834716796875;-14.161773681640625;0.052947998046875
1445426181303;87.1031494140625;-95.25532531738281;-8.158586502075195;4.1060333251953125;-11.572830200195312;-0.2020263671875
1445426181335;87.68283081054688;-93.35971069335938;-8.583486557006836;1.0071258544921875;-6.9048614501953125;-0.7904205322265625
1445426181367;88.09622192382812;-92.98472595214844;-8.597715377807617;0.477569580078125;-3.7471160888671875;-0.9669342041015625
1445426181400;89.43780517578125;-92.96179962158203;-8.59922981262207;0.10491943359375;-3.13909912109375;-0.7119598388671875
1445426181433;90.89865112304688;-93.79468536376953;-8.486526489257812;-0.208892822265625;-1.962310791015625;-0.123565673828125
1445426181466;91.45309448242188;-94.32403564453125;-8.361104965209961;-0.3854217529296875;-3.9432525634765625;0.6021270751953125
1445426181500;92.45840454101562;-94.67383575439453;-8.396727561950684;-0.718841552734375;-6.55181884765625;0.0333404541015625
1445426181532;91.98287963867188;-93.83179473876953;-9.927990913391113;1.53668212890625;-14.12255859375;1.9162139892578125
1445426181566;92.69711303710938;-93.1265869140625;-10.772017478942871;1.98779296875;-19.516204833984375;-1.378814697265625
1445426181598;94.828125;-92.50077056884766;-11.404918670654297;0.04608154296875;-20.477264404296875;-0.4766082763671875
1445426181631;96.14944458007812;-92.61048889160156;-11.462932586669922;3.439178466796875;-16.652664184570312;-0.4373779296875
1445426181668;97.51812744140625;-93.44264221191406;-11.736762046813965;2.929229736328125;-9.474197387695312;-1.3395843505859375
1445426181699;101.86712646484375;-96.99427032470703;-11.40919303894043;-0.150054931640625;-3.335235595703125;-1.75146484375
1445426181731;104.15335083007812;-98.67450714111328;-10.975817680358887;-0.228515625;-1.393524169921875;-0.88848876953125
1445426181763;107.80789184570312;-101.5173568725586;-10.070460319519043;0.242218017578125;-1.4327545166015625;-0.82965087890625
1445426181796;110.02688598632812;-104.07642364501953;-8.206274032592773;0.359893798828125;-5.4338531494140625;-3.34014892578125
1445426181832;109.99285888671875;-105.04286193847656;-6.444458484649658;1.53668212890625;-10.435256958007812;-1.143463134765625
1445426181863;111.4298095703125;-106.25538635253906;-1.7832456827163696;2.8507843017578125;-13.73028564453125;2.386932373046875
1445426181898;117.20033264160156;-105.68988800048828;1.7441072463989258;5.1651458740234375;-13.84796142578125;-2.5359954833984375
1445426181928;118.77435302734375;-105.9119644165039;1.7161041498184204;2.38006591796875;-16.848800659179688;-5.4583892822265625
1445426181961;122.27012634277344;-105.9329833984375;2.0381927490234375;1.791656494140625;-17.025314331054688;-4.6934661865234375
1445426181995;124.80181884765625;-104.31878662109375;2.4072961807250977;0.595245361328125;-15.534713745117188;-3.144012451171875
1445426182028;124.54922485351562;-103.8325424194336;2.120561122894287;0.10491943359375;-14.083328247070312;-3.22247314453125
1445426182060;123.17694091796875;-103.0950698852539;1.2201740741729736;-0.208892822265625;-9.572265625;-3.595123291015625
1445426182094;121.80856323242188;-102.7441635131836;-0.45801353454589844;-0.6992340087890625;-5.47308349609375;-2.6536865234375
1445426182126;120.80593872070312;-102.66266632080078;-1.573622226715088;-0.660003662109375;-3.7078857421875;-2.20257568359375
1445426182159;117.3026123046875;-102.80211639404297;-4.09735631942749;-0.954193115234375;-2.00152587890625;-2.006439208984375
1445426182192;115.14898681640625;-103.11532592773438;-5.4157795906066895;-0.954193115234375;-2.5703125;-2.2221832275390625
1445426182225;111.25039672851562;-103.92765045166016;-7.80268669128418;-0.7384490966796875;-3.7078857421875;-2.2221832275390625
1445426182259;107.3017578125;-104.39445495605469;-9.543760299682617;0.242218017578125;-9.415359497070312;-2.02606201171875
1445426182291;105.17312622070312;-104.27374267578125;-9.905207633972168;3.2234344482421875;-20.084991455078125;-1.261138916015625
1445426182326;100.4945068359375;-103.09432983398438;-10.378161430358887;5.027862548828125;-17.515655517578125;-1.8495330810546875
1445426182357;98.06640625;-101.7633285522461;-10.77802562713623;8.558242797851562;-16.593826293945312;-1.6141815185546875
1445426182390;98.35012817382812;-101.06915283203125;-10.930211067199707;8.970123291015625;-15.652389526367188;-1.143463134765625
1445426182423;98.85821533203125;-99.817626953125;-11.788262367248535;5.6358642578125;-11.749343872070312;-0.6138916015625
1445426182456;98.5302734375;-99.22391510009766;-12.412490844726562;2.4781341552734375;-7.7874603271484375;-0.3981475830078125
1445426182489;98.01510620117188;-98.54188537597656;-13.424198150634766;1.5170745849609375;-6.0222625732421875;-0.4766082763671875
1445426182522;99.02554321289062;-98.6923828125;-13.037413597106934;0.654083251953125;-3.335235595703125;-0.810028076171875
1445426182555;99.97494506835938;-98.88522338867188;-12.218676567077637;2.6546478271484375;-3.19793701171875;-0.77081298828125
1445426182590;101.63302612304688;-99.40475463867188;-10.686203002929688;3.6745452880859375;-3.7471160888671875;-0.515838623046875
1445426182626;104.22000122070312;-100.9603271484375;-10.230509757995605;5.5574188232421875;-6.5910491943359375;-2.457550048828125
1445426182655;106.69514465332031;-101.87774658203125;-10.445402145385742;5.596649169921875;-15.260116577148438;-0.4766082763671875
1445426182700;116.88870239257812;-104.82551574707031;-9.7411527633667;0.242218017578125;-10.9451904296875;2.1319580078125
1445426182722;119.67526245117188;-105.10197448730469;-8.702816009521484;-1.974090576171875;-14.299072265625;0.5236663818359375
1445426182753;121.5247802734375;-104.84809112548828;-7.568512439727783;-1.346466064453125;-16.711502075195312;0.2883148193359375
1445426182786;124.81045532226562;-103.93828582763672;-5.840945243835449;-0.091217041015625;-15.593551635742188;0.2686920166015625
1445426182820;127.78245544433594;-103.3260269165039;-5.187839031219482;-0.6207733154296875;-15.083602905273438;0.896331787109375
1445426182853;135.07566833496094;-101.41038513183594;-4.1697893142700195;-1.169952392578125;-14.514816284179688;0.5432891845703125
1445426182885;141.37991333007812;-99.16336822509766;-3.4079136848449707;-0.718841552734375;-10.31756591796875;-0.2216339111328125
1445426182918;144.6398162841797;-98.45724487304688;-3.3061177730560303;-0.6992340087890625;-6.5910491943359375;-1.6337890625
1445426182951;151.31671142578125;-98.26378631591797;-3.3871374130249023;-0.836517333984375;-5.669219970703125;-2.339874267578125
1445426182984;158.05606079101562;-99.23721313476562;-3.3875467777252197;-2.366363525390625;-5.3358001708984375;-1.712249755859375
1445426183017;160.4029541015625;-100.03791046142578;-3.4209063053131104;-2.150604248046875;-4.6689453125;-1.6533966064453125
1445426183050;163.26727294921875;-101.9300308227539;-3.1615827083587646;-3.4450836181640625;-4.5120391845703125;-0.94732666015625
1445426183083;166.24118041992188;-102.70160675048828;-1.7494564056396484;-3.8373565673828125;-6.473358154296875;0.24908447265625
1445426183118;166.75372314453125;-103.17704010009766;-1.1982449293136597;-2.974365234375;-7.826690673828125;-0.8492584228515625
1445426183149;167.2318878173828;-103.88263702392578;0.6683093905448914;-3.562774658203125;-11.78857421875;-1.084625244140625
1445426183182;162.27394104003906;-103.72298431396484;0.7287172079086304;-3.9746551513671875;-20.2811279296875;-5.987945556640625
1445426183215;159.88880920410156;-104.83845520019531;-0.33701029419898987;-1.3856964111328125;-16.103500366210938;-2.6144561767578125
1445426183248;157.33021545410156;-105.47967529296875;-1.1097564697265625;-0.8757476806640625;-12.47503662109375;-1.75146484375
1445426183281;156.3018035888672;-104.47246551513672;-1.5163004398345947;-3.3470306396484375;-10.807907104492188;-1.457275390625
1445426183314;152.84671020507812;-102.11727905273438;-3.5787453651428223;-3.42547607421875;-10.7098388671875;-1.712249755859375
1445426183347;146.38417053222656;-100.85753631591797;-5.232057094573975;-0.6207733154296875;-9.631103515625;-1.1042327880859375
1445426183380;142.69969177246094;-100.71712493896484;-5.9711103439331055;0.8502197265625;-6.66949462890625;-0.9277191162109375
1445426183412;136.85203552246094;-100.95779418945312;-6.880108833312988;0.928680419921875;-5.6888275146484375;-0.3197021484375
1445426183446;132.23648071289062;-101.60428619384766;-7.540374755859375;1.438629150390625;-5.1200408935546875;-0.0451202392578125
1445426183479;129.8960418701172;-101.83792114257812;-8.127458572387695;1.0071258544921875;-6.7675628662109375;-0.1039581298828125
1445426183512;125.67117309570312;-102.49600982666016;-9.461309432983398;1.222869873046875;-9.807632446289062;-0.182403564453125
1445426183545;122.36599731445312;-102.08470153808594;-11.066828727722168;0.04608154296875;-11.827789306640625;0.504058837890625
1445426183578;120.55599975585938;-101.33008575439453;-12.084056854248047;-0.267730712890625;-15.142440795898438;-3.0459442138671875
1445426183612;116.90997314453125;-101.55583190917969;-13.707618713378906;0.1245269775390625;-15.10321044921875;-1.3395843505859375
1445426183644;114.69879150390625;-102.05842590332031;-14.317919731140137;1.9485626220703125;-14.69134521484375;-2.5556182861328125
1445426183677;114.36538696289062;-102.28575134277344;-14.122636795043945;1.811279296875;-13.55377197265625;-1.96722412109375
1445426183710;114.14401245117188;-101.91606903076172;-12.769753456115723;1.850494384765625;-8.709274291992188;-0.4569854736328125
1445426183744;113.68418884277344;-101.43455505371094;-11.828795433044434;2.8311614990234375;-6.1007080078125;-0.88848876953125
1445426183776;111.23359680175781;-100.90357208251953;-9.299098014831543;2.38006591796875;-6.2772369384765625;-1.9083709716796875
1445426183810;108.78887939453125;-101.13573455810547;-5.217546463012695;2.10546875;-7.1598358154296875;-0.6531219482421875
1445426183841;108.78227233886719;-101.51409912109375;-3.18874192237854;5.5574188232421875;-7.7286224365234375;-0.3589324951171875
1445426183875;110.09616088867188;-102.20976257324219;-0.039222363382577896;6.1850433349609375;-9.140777587890625;-0.3981475830078125
1445426183908;110.63420104980469;-102.52664184570312;1.0969645977020264;6.008514404296875;-12.749618530273438;-0.241241455078125
1445426183942;111.71263122558594;-103.36824035644531;2.2930729389190674;4.89056396484375;-13.0438232421875;-0.8492584228515625
1445426183974;113.5191650390625;-103.6407470703125;2.3003852367401123;2.55657958984375;-13.259567260742188;-1.2807464599609375
1445426184007;114.21263122558594;-103.26448059082031;2.0874533653259277;2.125091552734375;-15.417037963867188;-2.4771575927734375
1445426184040;115.6490478515625;-102.02790069580078;2.028426170349121;1.7132110595703125;-14.377532958984375;-2.281036376953125
1445426184074;117.67704772949219;-100.31978607177734;2.3940048217773438;0.9678955078125;-10.8275146484375;-1.5357208251953125
1445426184106;118.83123779296875;-99.5418930053711;2.3764328956604004;1.12481689453125;-8.964248657226562;-2.1829681396484375
1445426184139;120.69351196289062;-98.60609436035156;1.802920937538147;0.8109893798828125;-7.7678375244140625;-2.37908935546875
1445426184172;122.34222412109375;-98.28201293945312;0.9945135712623596;0.7521514892578125;-4.590484619140625;-1.5553436279296875
1445426184206;123.03848266601562;-98.39896392822266;0.47902724146842957;1.53668212890625;-4.296295166015625;-0.9080963134765625
1445426184239;123.68745422363281;-98.85660552978516;-0.9345256090164185;1.5759124755859375;-4.727783203125;-1.143463134765625
1445426184271;123.49861145019531;-99.214599609375;-1.8002508878707886;1.7132110595703125;-7.944366455078125;-1.6141815185546875
1445426184308;123.10871887207031;-100.56444549560547;-3.3009064197540283;1.811279296875;-12.9849853515625;-1.810302734375
1445426184338;123.43463134765625;-103.0823745727539;-5.00147819519043;2.2819976806640625;-14.240234375;-2.2221832275390625
1445426184370;123.47621154785156;-104.46589660644531;-6.459884166717529;1.7720489501953125;-16.280014038085938;-4.340423583984375
1445426184406;123.3016357421875;-106.82128143310547;-9.03115177154541;2.5173492431640625;-15.456253051757812;-4.3796539306640625
1445426184438;123.24365234375;-107.89917755126953;-10.056190490722656;3.1842041015625;-14.063705444335938;-3.712799072265625
1445426184468;123.12893676757812;-107.71569061279297;-10.40071964263916;2.55657958984375;-11.357070922851562;-2.908660888671875
1445426184502;122.49154663085938;-106.92678833007812;-11.0825834274292;1.732818603515625;-9.866470336914062;-2.4967803955078125
1445426184536;121.86875915527344;-105.96694946289062;-11.698590278625488;0.9482879638671875;-6.3949127197265625;-1.5553436279296875
1445426184568;121.648681640625;-105.6142578125;-12.076258659362793;0.5560302734375;-3.4136962890625;-1.3592071533203125
1445426184601;121.15939331054688;-105.34465789794922;-12.7789888381958;0.5167999267578125;-2.6683807373046875;-1.261138916015625
1445426184635;119.76821899414062;-105.35102081298828;-13.530313491821289;0.16375732421875;-1.8054046630859375;-2.457550048828125
1445426184668;118.88134765625;-105.47935485839844;-13.816444396972656;0.6933135986328125;-2.0995941162109375;-3.3597564697265625
1445426184701;117.24539184570312;-105.3043441772461;-13.459829330444336;3.4587860107421875;-7.4148101806640625;-2.2221832275390625
1445426184733;117.67568969726562;-104.80193328857422;-12.835737228393555;5.596649169921875;-14.181396484375;-1.8691558837890625
1445426184766;118.15167236328125;-104.655029296875;-12.271015167236328;6.3615570068359375;-15.5543212890625;-2.908660888671875
1445426184800;119.0709228515625;-103.08685302734375;-11.749883651733398;8.165985107421875;-14.181396484375;-1.712249755859375
1445426184832;119.49520874023438;-102.06000518798828;-11.923851013183594;5.06707763671875;-14.907089233398438;-2.1241302490234375
1445426184865;121.55561828613281;-100.54031372070312;-12.018742561340332;3.0861358642578125;-12.396575927734375;-0.2804718017578125
1445426184898;124.78666687011719;-99.90567779541016;-12.282906532287598;1.3209381103515625;-6.0026397705078125;-0.7119598388671875
1445426184932;126.82475280761719;-99.64088439941406;-12.028515815734863;-1.974090576171875;-6.689117431640625;-1.947601318359375
1445426184965;131.96957397460938;-99.64463806152344;-10.16104507446289;-3.1312713623046875;-8.807342529296875;-1.574951171875
1445426184997;136.65179443359375;-100.10271453857422;-7.591142654418945;0.0853118896484375;-11.21978759765625;-4.0070037841796875
1445426185030;136.6358184814453;-100.88333892822266;-7.419273376464844;1.0267486572265625;-7.35595703125;1.0924530029296875
1445426185063;141.31137084960938;-103.41422271728516;-7.141239643096924;-1.346466064453125;-7.297119140625;0.955169677734375
1445426185096;144.3179168701172;-103.36215209960938;-5.887943744659424;-2.5624847412109375;-14.652114868164062;-0.868865966796875
1445426185129;144.2023162841797;-102.96761322021484;-5.305983543395996;-2.150604248046875;-14.612884521484375;-1.12384033203125
1445426185162;143.9014892578125;-101.27293395996094;-4.438072681427002;-1.3268585205078125;-13.2203369140625;-0.77081298828125
1445426185196;143.93673706054688;-98.74053955078125;-4.108577728271484;-0.3657989501953125;-12.043548583984375;-1.06500244140625
1445426185229;143.5736846923828;-97.54650115966797;-4.015501499176025;0.0068511962890625;-11.45513916015625;-1.3984375
1445426185261;142.5689697265625;-95.6381607055664;-3.9961705207824707;0.418731689453125;-8.905410766601562;-2.20257568359375
1445426185294;142.10552978515625;-94.99417877197266;-4.212470054626465;-1.2483978271484375;-6.473358154296875;-2.8105926513671875
1445426185327;141.21661376953125;-95.01115417480469;-4.517347812652588;-1.9544830322265625;-6.296844482421875;-1.96722412109375
1445426185360;138.74192810058594;-96.62741088867188;-3.713585138320923;-2.1309967041015625;-4.8062286376953125;-0.88848876953125
1445426185393;136.63328552246094;-97.41659545898438;-2.987274646759033;-1.9348602294921875;-4.5120391845703125;2.896881103515625
1445426185426;134.9220733642578;-98.13884735107422;-1.3828668594360352;-0.601165771484375;-6.0222625732421875;2.9164886474609375
1445426185460;129.2335205078125;-98.87553405761719;-2.0417330265045166;4.576751708984375;-15.966201782226562;-6.497894287109375
1445426185493;126.86517333984375;-100.5501937866211;-2.595811605453491;1.0071258544921875;-18.770904541015625;-0.9669342041015625
1445426185525;124.97674560546875;-103.47134399414062;-3.2466320991516113;0.8306121826171875;-11.45513916015625;0.935546875
1445426185557;125.24185180664062;-103.0339584350586;-3.2665328979492188;-0.34619140625;-17.14300537109375;-0.868865966796875
1445426185591;124.37208557128906;-101.26720428466797;-4.090583801269531;-0.3069610595703125;-15.809295654296875;-0.1431732177734375
1445426185624;123.74264526367188;-98.8096923828125;-3.9671289920806885;-0.58154296875;-13.573379516601562;0.680572509765625
1445426185658;123.023681640625;-97.1791000366211;-3.7049996852874756;1.5759124755859375;-9.395751953125;-0.574676513671875
1445426185690;120.5235595703125;-94.47529602050781;-4.070892333984375;2.164306640625;-7.7678375244140625;-1.3592071533203125
1445426185724;118.70692443847656;-94.05084991455078;-5.063741683959961;1.673980712890625;-4.5120391845703125;-2.37908935546875
1445426185757;118.7979736328125;-94.76720428466797;-5.55351448059082;-0.0716094970703125;-1.8446197509765625;-2.6536865234375
1445426185789;120.36903381347656;-97.21981048583984;-5.88014030456543;-0.1892852783203125;-1.88385009765625;-2.8302001953125
1445426185822;118.89961242675781;-100.82179260253906;-7.3834357261657715;1.0071258544921875;-10.14105224609375;-9.969436645507812
1445426185857;118.88192749023438;-103.96237182617188;-7.6932373046875;0.3991241455078125;-10.356796264648438;-3.536285400390625
1445426185888;115.68710327148438;-110.22452545166016;-10.12968635559082;0.595245361328125;-9.042709350585938;0.30792236328125
1445426185923;114.964599609375;-112.93572235107422;-11.842134475708008;2.4585113525390625;-15.417037963867188;-2.3006439208984375
1445426185954;114.84832763671875;-113.67296600341797;-12.318998336791992;2.811553955078125;-15.04437255859375;-2.4771575927734375
1445426185990;113.5615234375;-112.41338348388672;-13.276395797729492;2.2231597900390625;-17.417587280273438;-2.6144561767578125
1445426186021;112.06906127929688;-108.99569702148438;-13.193105697631836;2.183929443359375;-13.828353881835938;-0.9277191162109375
1445426186053;111.6474609375;-106.80943298339844;-12.65369987487793;2.5369720458984375;-11.259017944335938;-1.202301025390625
1445426186086;110.44737243652344;-102.51753997802734;-11.550098419189453;1.6347503662109375;-6.924468994140625;-2.6732940673828125
1445426186119;110.66323852539062;-101.2848129272461;-11.182844161987305;2.7134857177734375;-3.668670654296875;-4.4384918212890625
1445426186152;113.06784057617188;-102.09359741210938;-11.531620979309082;3.2038116455078125;-3.7078857421875;-3.85009765625
1445426186185;114.68768310546875;-106.52268981933594;-11.852338790893555;0.9090576171875;-1.7269439697265625;-3.9677734375
1445426186218;116.38006591796875;-109.25867462158203;-10.436301231384277;0.3206634521484375;-1.6092681884765625;-2.006439208984375
1445426186251;120.7232666015625;-112.62771606445312;-5.189201831817627;1.0855865478515625;-3.5509796142578125;1.818145751953125
1445426186284;122.10345458984375;-112.26237487792969;-3.3407981395721436;5.204376220703125;-12.180831909179688;-3.22247314453125
1445426186318;121.38870239257812;-111.49236297607422;-3.937080144882202;6.6949920654296875;-15.828903198242188;-2.8105926513671875
1445426186350;124.41452026367188;-110.65370178222656;-5.1328444480896;5.12591552734375;-17.751007080078125;-7.0078277587890625
1445426186383;125.26919555664062;-109.96195983886719;-5.760132312774658;4.125640869140625;-20.300735473632812;-8.263092041015625
1445426186417;125.8253173828125;-109.49283599853516;-7.210341453552246;3.380340576171875;-17.221450805664062;-6.615570068359375
1445426186449;125.227783203125;-109.04600524902344;-9.135059356689453;2.635040283203125;-11.945480346679688;-4.5169525146484375
1445426186482;125.189453125;-108.66360473632812;-9.724573135375977;1.12481689453125;-9.886077880859375;-3.6147308349609375
1445426186516;125.05995178222656;-107.66860961914062;-9.68921184539795;-0.032379150390625;-8.160110473632812;-2.8105926513671875
1445426186548;122.48751831054688;-106.74720001220703;-9.025569915771484;-1.5818328857421875;-3.6098175048828125;-1.888763427734375
1445426186581;122.2799072265625;-107.00950622558594;-8.41533374786377;-0.4442596435546875;1.2542724609375;-0.751190185546875
1445426186614;124.64950561523438;-107.9194107055664;-6.844886779785156;0.7521514892578125;2.0976409912109375;-0.3589324951171875
1445426186647;127.52944946289062;-108.43940734863281;-5.38291072845459;2.0270233154296875;-1.0208740234375;-0.94732666015625
1445426186680;128.79202270507812;-108.70689392089844;-4.4951276779174805;2.046630859375;-3.9432525634765625;-2.281036376953125
1445426186714;131.4685821533203;-108.69523620605469;-2.073134660720825;3.0272979736328125;-15.3189697265625;-4.0070037841796875
1445426186746;132.82008361816406;-108.4417495727539;-1.0967168807983398;0.4971771240234375;-17.613723754882812;-4.5757904052734375
1445426186780;133.9414520263672;-108.6554946899414;-1.580948829650879;0.477569580078125;-17.8883056640625;-6.3998260498046875
1445426186812;131.99330139160156;-109.64691162109375;-3.8659250736236572;-0.3069610595703125;-17.8883056640625;-7.0274505615234375
1445426186846;130.99691772460938;-109.56515502929688;-4.464737892150879;1.7720489501953125;-15.417037963867188;-5.0465087890625
1445426186878;128.3882598876953;-108.42304229736328;-5.319701194763184;2.125091552734375;-13.259567260742188;-4.1246795654296875
1445426186912;126.11344909667969;-106.86640167236328;-5.803685188293457;0.6933135986328125;-8.297409057617188;-1.6533966064453125
1445426186945;125.35371398925781;-106.18473052978516;-5.97320032119751;0.242218017578125;-5.6299896240234375;-0.4177703857421875
1445426186978;124.72784423828125;-105.61005401611328;-6.034268379211426;0.242218017578125;-1.275848388671875;-0.005889892578125
1445426187010;125.07000732421875;-106.40831756591797;-5.219547271728516;0.418731689453125;-0.138275146484375;-1.6337890625
1445426187043;125.78237915039062;-107.14696502685547;-4.236324310302734;0.4971771240234375;-0.765899658203125;-2.575225830078125
1445426187076;128.54727172851562;-108.58757019042969;-1.6805528402328491;3.0272979736328125;-7.5128631591796875;-2.7517547607421875
1445426187109;131.08383178710938;-109.71929931640625;0.21672584116458893;1.6543731689453125;-18.476699829101562;-3.28131103515625
1445426187142;132.0206756591797;-110.29876708984375;0.241948202252388;-0.405029296875;-17.49603271484375;-5.1837921142578125
1445426187176;132.31723022460938;-111.86849212646484;-1.544576644897461;0.477569580078125;-17.162612915039062;-6.7724761962890625
1445426187208;131.4613037109375;-112.38834381103516;-2.8331048488616943;2.5958099365234375;-16.025039672851562;-5.7133636474609375
1445426187241;129.8799591064453;-112.15460968017578;-5.0587687492370605;3.2430419921875;-14.259841918945312;-5.4976043701171875
1445426187275;130.13265991210938;-111.18041229248047;-6.583060264587402;2.929229736328125;-10.670608520507812;-4.0070037841796875
1445426187307;130.73846435546875;-110.52983856201172;-7.219691276550293;1.0855865478515625;-6.5910491943359375;-1.6337890625
1445426187340;131.29061889648438;-109.77505493164062;-8.889723777770996;0.34027099609375;-4.1197662353515625;-1.1042327880859375
1445426187373;132.02255249023438;-110.84291076660156;-10.400736808776855;-1.0522613525390625;-0.707061767578125;-1.378814697265625
1445426187410;132.55274963378906;-111.79727935791016;-10.914875984191895;-0.208892822265625;-2.1192169189453125;-2.8890380859375
1445426187440;133.58973693847656;-114.19440460205078;-11.214818954467773;0.9678955078125;-3.4921417236328125;-3.9677734375
1445426187472;133.9287567138672;-116.62825012207031;-10.737116813659668;2.360443115234375;-7.885528564453125;-5.67413330078125
1445426187505;133.76486206054688;-117.73963165283203;-11.149799346923828;2.67425537109375;-10.297958374023438;-5.654510498046875
1445426187542;133.36573791503906;-119.49970245361328;-13.336798667907715;4.0275726318359375;-12.59271240234375;-6.733245849609375
1445426187571;132.4109344482422;-119.97637939453125;-14.962152481079102;4.7336578369140625;-12.200454711914062;-6.8901519775390625
1445426187605;129.50904846191406;-119.60547637939453;-16.88960838317871;5.4985809326171875;-11.651275634765625;-6.478271484375
1445426187638;126.88522338867188;-116.69921875;-16.890405654907227;5.0474700927734375;-9.042709350585938;-4.9288177490234375
1445426187671;126.06256103515625;-114.48112487792969;-16.536941528320312;3.4784088134765625;-6.5125885009765625;-2.9871063232421875
1445426187703;124.98175048828125;-109.3523941040039;-15.710163116455078;2.9684600830078125;-5.551544189453125;-2.457550048828125
1445426187736;122.76473999023438;-104.58113098144531;-15.325468063354492;2.7723236083984375;-5.100433349609375;-2.9478759765625
1445426187769;121.47569274902344;-103.28779602050781;-15.294685363769531;3.1253662109375;-5.492706298828125;-4.59539794921875
1445426187803;123.84144592285156;-105.00454711914062;-14.775862693786621;3.7922210693359375;-5.4338531494140625;-1.888763427734375
1445426187836;128.1512908935547;-108.1390380859375;-15.151313781738281;9.028976440429688;-8.042434692382812;-3.791259765625
1445426187868;130.34120178222656;-110.08818817138672;-14.707850456237793;1.850494384765625;-13.691055297851562;-7.0862884521484375
1445426187901;134.80557250976562;-113.57412719726562;-11.486555099487305;-1.0130462646484375;-10.5921630859375;-4.2031402587890625
1445426187934;137.31051635742188;-114.08181762695312;-8.669022560119629;-1.3268585205078125;-14.554046630859375;-2.4771575927734375
1445426187967;137.51107788085938;-113.37353515625;-7.775792598724365;-2.17022705078125;-16.652664184570312;-1.4768829345703125
1445426188001;137.6259765625;-111.38368225097656;-6.214317798614502;-0.6207733154296875;-14.848251342773438;-1.2219085693359375
1445426188034;137.82569885253906;-109.8744125366211;-5.460054874420166;-0.326568603515625;-14.12255859375;-1.2415313720703125
1445426188066;138.35472106933594;-105.59044647216797;-4.218843936920166;-0.601165771484375;-13.357635498046875;-1.143463134765625
1445426188099;139.44288635253906;-100.84761047363281;-3.4651939868927;-0.34619140625;-11.651275634765625;-1.00616455078125
1445426188135;139.7009735107422;-98.966552734375;-3.424462080001831;0.16375732421875;-6.5125885009765625;-2.967498779296875
1445426188166;139.8169403076172;-96.55608367919922;-3.5339088439941406;0.1245269775390625;-5.0612030029296875;-3.1832427978515625
1445426188198;141.1243133544922;-95.83120727539062;-3.3384740352630615;-0.5030975341796875;-3.786346435546875;-2.692901611328125
1445426188232;142.0753173828125;-95.84934997558594;-2.9029574394226074;-1.15032958984375;-3.6098175048828125;-2.08489990234375
1445426188264;142.3661346435547;-96.5904541015625;-1.654998779296875;-0.9345855712890625;-6.5322113037109375;-3.16363525390625
1445426188297;141.0281982421875;-97.05794525146484;-1.3688454627990723;-2.1898345947265625;-15.162063598632812;-3.2420806884765625
1445426188334;136.3887481689453;-99.55868530273438;-1.343319058418274;-0.895355224609375;-9.925308227539062;-0.5942840576171875
1445426188363;133.57330322265625;-104.91419982910156;-1.8837740421295166;0.654083251953125;-6.6498870849609375;-0.6138916015625
1445426188396;133.3759307861328;-106.3725814819336;-1.751787781715393;1.3797760009765625;-16.770355224609375;-0.9865570068359375
1445426188429;133.12527465820312;-108.28632354736328;-1.2595609426498413;1.2621002197265625;-14.377532958984375;-1.6533966064453125
1445426188463;133.8287811279297;-108.97620391845703;-1.027691125869751;0.28143310546875;-14.495208740234375;-2.9478759765625
1445426188497;134.06558227539062;-108.62094116210938;-1.0606608390808105;-0.287353515625;-14.573654174804688;-3.144012451171875
1445426188528;134.61993408203125;-106.6072769165039;-1.3429862260818481;-0.032379150390625;-12.808456420898438;-2.32025146484375
1445426188561;135.25881958007812;-104.98502349853516;-1.5561546087265015;-0.326568603515625;-12.02392578125;-1.2219085693359375
1445426188594;136.63235473632812;-101.01933288574219;-1.7109642028808594;-0.7972869873046875;-11.16094970703125;-0.6531219482421875
1445426188633;136.76246643066406;-97.00418090820312;-1.5134044885635376;-0.01275634765625;-7.35595703125;-0.88848876953125
1445426188660;135.7152099609375;-93.60677337646484;-1.8960189819335938;0.4971771240234375;-5.159271240234375;-2.5556182861328125
1445426188694;135.5835418701172;-92.82351684570312;-2.2969744205474854;0.28143310546875;-5.492706298828125;-3.16363525390625
1445426188726;135.58279418945312;-93.26677703857422;-3.267054557800293;0.0853118896484375;-8.081649780273438;-5.85064697265625
1445426188759;135.80844116210938;-94.80986785888672;-3.47942852973938;-3.42547607421875;-9.238845825195312;-4.1246795654296875
1445426188793;136.28668212890625;-99.10123443603516;-2.9243156909942627;-2.7586212158203125;-8.1993408203125;-2.0456695556640625
1445426188825;132.86428833007812;-103.50896453857422;-3.6865649223327637;-0.6796112060546875;-6.5125885009765625;-1.712249755859375
1445426188858;131.267333984375;-105.49679565429688;-4.2958807945251465;1.673980712890625;-11.749343872070312;-1.18267822265625
1445426188891;128.67543029785156;-108.57799530029297;-6.108648300170898;3.3999481201171875;-12.749618530273438;-1.51611328125
1445426188924;127.27043151855469;-110.93852233886719;-7.533958435058594;2.5369720458984375;-13.357635498046875;-2.065277099609375
1445426188958;126.58065795898438;-111.27662658691406;-8.003107070922852;0.6344757080078125;-14.671722412109375;-2.7125244140625
1445426188990;124.05001831054688;-110.42404174804688;-8.837735176086426;0.0656890869140625;-14.612884521484375;-2.8694305419921875
1445426189023;121.38983154296875;-107.9894790649414;-8.536526679992676;-1.0130462646484375;-13.298797607421875;-2.32025146484375
1445426189057;120.44781494140625;-106.1072998046875;-7.800743103027344;-1.1307220458984375;-12.141616821289062;-1.51611328125
1445426189089;118.40036010742188;-101.14879608154297;-6.3799662590026855;-0.0519866943359375;-9.042709350585938;-1.3592071533203125
1445426189121;115.8944091796875;-95.9853286743164;-5.720625400543213;1.222869873046875;-5.8065185546875;-1.378814697265625
1445426189155;114.34330749511719;-93.78299713134766;-5.841238498687744;1.497467041015625;-5.1200408935546875;-1.8691558837890625
1445426189188;110.47471618652344;-90.85293579101562;-7.111833095550537;1.6543731689453125;-6.3949127197265625;-3.771636962890625
1445426189222;107.94577026367188;-90.28707885742188;-8.9317045211792;-0.34619140625;-11.768951416015625;-5.6349029541015625
1445426189254;107.79208374023438;-91.72966766357422;-9.863276481628418;-1.9348602294921875;-10.984420776367188;-4.08544921875
1445426189289;108.63014221191406;-97.31250762939453;-10.639473915100098;-0.150054931640625;-7.57171630859375;0.5432891845703125
1445426189320;107.94808959960938;-99.6737289428711;-10.775921821594238;2.635040283203125;-7.9835968017578125;0.19024658203125
1445426189356;107.36309814453125;-101.35357666015625;-11.981629371643066;1.222869873046875;-9.96453857421875;-1.6337890625
1445426189387;106.67448425292969;-103.37115478515625;-12.764312744140625;2.38006591796875;-12.435806274414062;-1.0257720947265625
1445426189420;106.42213439941406;-104.40604400634766;-12.415011405944824;4.380615234375;-14.044097900390625;-1.3003692626953125
1445426189455;105.49404907226562;-105.20804595947266;-11.51930046081543;6.5576934814453125;-14.12255859375;-1.084625244140625
1445426189485;105.18751525878906;-105.0219955444336;-11.262474060058594;6.02813720703125;-14.063705444335938;-1.6730194091796875
1445426189518;104.86639404296875;-104.78565979003906;-11.366127014160156;5.714324951171875;-13.377243041992188;-2.6536865234375
1445426189551;104.14024353027344;-104.37311553955078;-11.319151878356934;3.81182861328125;-10.121444702148438;-2.967498779296875
1445426189584;103.630126953125;-104.20885467529297;-11.004563331604004;1.164031982421875;-6.944091796875;-0.77081298828125
1445426189617;101.68563842773438;-103.74856567382812;-10.382170677185059;0.9090576171875;-5.276947021484375;-0.123565673828125
1445426189650;101.73434448242188;-104.09840393066406;-9.787870407104492;0.6344757080078125;-3.158721923828125;-1.06500244140625
1445426189683;102.0977783203125;-104.4903335571289;-9.268051147460938;0.22259521484375;-5.23773193359375;-0.7904205322265625
1445426189716;102.70706176757812;-105.76139068603516;-7.409797191619873;0.4579620361328125;-6.5910491943359375;-0.3589324951171875
1445426189749;105.69404602050781;-107.05740356445312;-3.9350430965423584;1.24249267578125;-7.179443359375;-0.810028076171875
1445426189784;108.03738403320312;-107.55184173583984;-2.0691468715667725;2.43890380859375;-6.4537506103515625;-2.065277099609375
1445426189815;112.92613220214844;-108.31302642822266;0.3311413526535034;4.2041015625;-8.748504638671875;-3.6343536376953125
1445426189848;115.81141662597656;-108.2662124633789;1.1546857357025146;1.24249267578125;-13.965652465820312;-4.0070037841796875
1445426189881;116.26290893554688;-108.06726837158203;0.7057608962059021;-0.0519866943359375;-15.005157470703125;-4.2423553466796875
1445426189914;116.35809326171875;-108.27537536621094;-1.3665260076522827;0.7913818359375;-15.966201782226562;-5.2622528076171875
1445426189947;116.52864074707031;-108.25682067871094;-2.3879172801971436;2.2623748779296875;-15.926971435546875;-5.1445770263671875
1445426189980;117.1343994140625;-107.72596740722656;-4.1721673011779785;2.67425537109375;-14.632492065429688;-4.105072021484375
1445426190013;116.94967651367188;-106.79528045654297;-6.124965190887451;1.47784423828125;-11.474761962890625;-3.1047821044921875
1445426190046;116.71975708007812;-106.2020034790039;-6.939400672912598;0.595245361328125;-8.062042236328125;-1.829925537109375
1445426190080;116.17123413085938;-105.29515075683594;-8.555038452148438;0.7521514892578125;-6.061492919921875;-0.94732666015625
1445426190111;115.81959533691406;-105.1400375366211;-10.492817878723145;1.222869873046875;-3.3548583984375;-0.3981475830078125
1445426190146;115.90330505371094;-105.25993347167969;-11.33797550201416;0.8894500732421875;-3.1783294677734375;-0.9080963134765625
1445426190179;117.60479736328125;-105.91007995605469;-11.846952438354492;1.046356201171875;-5.41424560546875;-1.947601318359375
1445426190211;120.69444274902344;-107.54786682128906;-10.764775276184082;2.2035369873046875;-8.964248657226562;-3.3009185791015625
1445426190247;122.1661376953125;-108.76546478271484;-10.159567832946777;1.556304931640625;-8.787734985351562;-4.1246795654296875
1445426190277;125.23506164550781;-111.0385971069336;-9.28719425201416;1.6543731689453125;-7.552093505859375;-4.5169525146484375
1445426190310;126.80856323242188;-112.54545593261719;-9.922342300415039;2.1446990966796875;-11.062881469726562;-4.968048095703125
1445426190343;126.58169555664062;-113.23963928222656;-10.862214088439941;1.811279296875;-11.965087890625;-4.909210205078125
1445426190377;125.50645446777344;-113.90864562988281;-12.59307861328125;2.2231597900390625;-13.181106567382812;-5.085723876953125
1445426190409;124.22398376464844;-113.5743408203125;-13.235474586486816;2.4585113525390625;-12.41619873046875;-5.419158935546875
1445426190442;121.58908081054688;-111.84797668457031;-13.737947463989258;2.7134857177734375;-11.533599853515625;-4.8307647705078125
1445426190475;120.22100830078125;-109.27661895751953;-13.14300537109375;3.046905517578125;-9.474197387695312;-3.0067291259765625
1445426190510;119.83148193359375;-107.70524597167969;-12.768592834472656;2.988067626953125;-6.72833251953125;-1.0453948974609375
1445426190542;118.37501525878906;-104.51966857910156;-12.699419021606445;2.55657958984375;-5.6496124267578125;-0.5550537109375
1445426190574;116.78842163085938;-102.11215209960938;-13.038020133972168;1.928955078125;-4.1197662353515625;-0.3981475830078125
1445426190607;116.27059936523438;-101.10850524902344;-13.100995063781738;2.046630859375;-4.3159027099609375;-0.7119598388671875
1445426190640;116.099365234375;-99.78929138183594;-12.609468460083008;3.0861358642578125;-6.924468994140625;-1.829925537109375
1445426190673;117.6083984375;-99.81475067138672;-11.19758415222168;3.3999481201171875;-9.258453369140625;-3.1047821044921875
1445426190707;118.89591979980469;-100.28424072265625;-10.601471900939941;3.3411102294921875;-9.297683715820312;-3.9873809814453125
1445426190740;123.16461181640625;-102.82225036621094;-9.717572212219238;4.83172607421875;-8.866195678710938;-2.7909698486328125
1445426190772;122.51516723632812;-103.62718963623047;-10.330896377563477;1.5955352783203125;-16.789962768554688;-2.065277099609375
1445426190805;124.70240783691406;-106.9040298461914;-10.18893814086914;2.1446990966796875;-10.670608520507812;1.1120758056640625
1445426190839;128.5583953857422;-107.55150604248047;-8.630741119384766;-0.4246368408203125;-13.2791748046875;-1.084625244140625
1445426190872;129.66970825195312;-106.64030456542969;-7.661098957061768;-3.5235443115234375;-13.55377197265625;-1.0257720947265625
1445426190905;129.7936553955078;-104.79518127441406;-6.109279632568359;-3.0724334716796875;-12.455429077148438;-1.0257720947265625
1445426190939;128.08114624023438;-101.78020477294922;-4.753969669342041;-1.9544830322265625;-11.298233032226562;-1.3395843505859375
1445426190971;128.0822296142578;-99.96246337890625;-4.168577671051025;0.0068511962890625;-10.062606811523438;-1.3003692626953125
1445426191003;128.94540405273438;-95.92388916015625;-3.5977258682250977;0.0853118896484375;-9.101547241210938;-1.00616455078125
1445426191037;128.8116912841797;-92.1912612915039;-3.538933515548706;0.026458740234375;-7.061767578125;-1.2807464599609375
1445426191070;129.01344299316406;-90.93948364257812;-3.6999709606170654;0.0853118896484375;-6.7871856689453125;-1.771087646484375
1445426191103;129.7686004638672;-90.69329833984375;-4.206321716308594;0.3795013427734375;-8.94464111328125;-4.340423583984375
1445426191137;130.87547302246094;-91.43914794921875;-4.132362365722656;-1.9544830322265625;-10.807907104492188;-3.39898681640625
1445426191168;131.6371307373047;-94.61418914794922;-2.4274275302886963;-3.856964111328125;-9.670333862304688;-1.8495330810546875
1445426191202;126.83676147460938;-99.19772338867188;-1.5008563995361328;-1.6210479736328125;-6.924468994140625;1.131683349609375
1445426191235;124.488037109375;-101.06220245361328;-1.7268016338348389;-0.326568603515625;-9.356521606445312;1.249359130859375
1445426191267;120.90933227539062;-103.74343872070312;-2.6216652393341064;0.242218017578125;-12.141616821289062;-1.7318572998046875
1445426191300;118.90423583984375;-105.6268081665039;-3.54467511177063;-0.8757476806640625;-13.0438232421875;-1.7906951904296875
1445426191333;117.630126953125;-105.84746551513672;-4.097236633300781;-1.5033721923828125;-13.455703735351562;-1.7318572998046875
1445426191367;115.6031494140625;-105.19880676269531;-5.406267166137695;-0.091217041015625;-13.141891479492188;-1.3592071533203125
1445426191399;114.07809448242188;-103.03199768066406;-6.4789347648620605;-0.4442596435546875;-12.318130493164062;-0.123565673828125
1445426191432;113.26626586914062;-101.59222412109375;-6.41032600402832;-0.895355224609375;-11.10211181640625;-0.182403564453125
1445426191465;111.44064331054688;-98.28466033935547;-5.68233585357666;1.105194091796875;-7.1598358154296875;-1.2807464599609375
1445426191499;109.84457397460938;-96.6801986694336;-5.674790382385254;1.7720489501953125;-5.6888275146484375;-2.339874267578125
1445426191565;104.17697143554688;-95.8802719116211;-8.457794189453125;2.9096221923828125;-9.3369140625;-9.577178955078125
1445426191567;104.17697143554688;-95.8802719116211;-8.457794189453125;2.9096221923828125;-9.3369140625;-9.577178955078125
1445426191598;103.86959838867188;-98.5553207397461;-9.820945739746094;1.30133056640625;-7.1990509033203125;-1.3395843505859375
1445426191650;99.5604248046875;-103.70758819580078;-13.57459831237793;-3.288177490234375;-10.905975341796875;-2.3594818115234375
1445426191699;96.82327270507812;-105.53031158447266;-15.078640937805176;-0.58154296875;-12.65155029296875;-1.96722412109375
1445426191725;95.92633056640625;-105.79033660888672;-15.907679557800293;0.5167999267578125;-14.083328247070312;-0.82965087890625
1445426191751;94.8572998046875;-104.83031463623047;-15.673530578613281;1.0659637451171875;-13.749893188476562;-0.5354461669921875
1445426191800;93.84548950195312;-99.23676300048828;-14.54123592376709;2.8507843017578125;-8.473922729492188;-2.2221832275390625
1445426191822;94.31463623046875;-97.43452453613281;-14.51219367980957;1.98779296875;-7.669769287109375;-2.7517547607421875
1445426191849;94.44451904296875;-96.05944061279297;-14.3414945602417;1.6935882568359375;-7.4736480712890625;-3.202850341796875
1445426191920;93.97787475585938;-93.68863677978516;-13.118069648742676;2.635040283203125;-11.10211181640625;-3.1832427978515625
1445426191922;93.97787475585938;-93.68863677978516;-13.118069648742676;2.635040283203125;-11.10211181640625;-3.1832427978515625
1445426191955;91.97967529296875;-94.30012512207031;-12.057866096496582;4.6551971435546875;-12.004318237304688;-2.908660888671875
1445426191988;87.544921875;-96.77098083496094;-10.242598533630371;5.5574188232421875;-11.51397705078125;-2.8302001953125
1445426192020;85.73709106445312;-98.4009017944336;-8.882264137268066;3.5960845947265625;-10.19989013671875;-0.868865966796875
1445426192052;86.67919921875;-100.78154754638672;-4.449943542480469;1.7720489501953125;-10.356796264648438;1.0532379150390625
1445426192085;85.07150268554688;-99.65936279296875;0.7626985907554626;-0.601165771484375;-9.886077880859375;0.4648284912109375
1445426192120;82.58770751953125;-99.42330932617188;2.7070987224578857;-0.9345855712890625;-9.160385131835938;-1.06500244140625
1445426192151;78.47076416015625;-101.1598129272461;4.643013954162598;0.8894500732421875;-6.66949462890625;-0.241241455078125
1445426192185;78.5284423828125;-102.95991516113281;6.265660762786865;2.2231597900390625;-6.865631103515625;-0.574676513671875
1445426192217;79.17105102539062;-103.84332275390625;7.023141860961914;2.7723236083984375;-7.68939208984375;-1.2219085693359375
1445426192251;80.26345825195312;-105.2386245727539;8.154057502746582;3.3411102294921875;-9.748779296875;-1.3395843505859375
1445426192284;80.14215087890625;-105.740234375;8.373647689819336;2.43890380859375;-14.044097900390625;-0.4766082763671875
1445426192317;78.1998291015625;-107.08240509033203;7.152579307556152;1.9485626220703125;-14.161773681640625;-0.82965087890625
1445426192350;78.1239013671875;-107.99308013916016;5.187185764312744;1.7132110595703125;-14.063705444335938;-2.8302001953125
1445426192383;78.58770751953125;-107.89445495605469;4.457090854644775;2.73309326171875;-14.240234375;-2.457550048828125
1445426192416;79.767822265625;-106.65771484375;3.399709701538086;2.2231597900390625;-13.239959716796875;-1.8691558837890625
1445426192448;81.163330078125;-105.03755950927734;2.267929792404175;0.8894500732421875;-9.12115478515625;-0.868865966796875
1445426192483;81.72412109375;-104.28713989257812;1.4894802570343018;1.046356201171875;-7.4148101806640625;-0.182403564453125
1445426192514;82.96136474609375;-103.38450622558594;-0.5928864479064941;1.0659637451171875;-6.5714263916015625;-0.064727783203125
1445426192548;85.794189453125;-103.52155303955078;-2.750446319580078;1.6543731689453125;-6.1987762451171875;-0.0843353271484375
1445426192580;87.578369140625;-103.8187484741211;-3.7390639781951904;1.811279296875;-6.49298095703125;-0.241241455078125
1445426192616;91.74822998046875;-104.94879913330078;-5.754408359527588;1.928955078125;-7.1990509033203125;-1.0257720947265625
1445426192647;94.13885498046875;-106.03578186035156;-7.096292495727539;3.2430419921875;-10.31756591796875;-2.0456695556640625
1445426192684;98.91314697265625;-108.7405014038086;-10.252131462097168;3.046905517578125;-13.122268676757812;-3.3597564697265625
1445426192713;104.06748962402344;-111.71963500976562;-13.446271896362305;1.6347503662109375;-13.259567260742188;-4.3011932373046875
1445426192745;106.631591796875;-113.05767822265625;-14.895875930786133;1.4582366943359375;-13.0438232421875;-5.595672607421875
1445426192779;110.14523315429688;-113.81609344482422;-16.749347686767578;2.43890380859375;-12.9261474609375;-5.595672607421875
1445426192812;112.53616333007812;-112.3466567993164;-16.780773162841797;2.8311614990234375;-10.572540283203125;-4.6934661865234375
1445426192846;114.02861022949219;-111.06218719482422;-16.04298210144043;1.5759124755859375;-7.7874603271484375;-3.6931915283203125
1445426192877;117.87387084960938;-108.21208190917969;-13.769935607910156;1.3993988037109375;-6.49298095703125;-3.16363525390625
1445426192911;122.35369873046875;-105.9393539428711;-11.191784858703613;0.536407470703125;-4.6297149658203125;-2.4379425048828125
1445426192945;123.75698852539062;-104.96759796142578;-9.88245964050293;0.1833648681640625;-4.3747406005859375;-2.14373779296875
1445426192978;127.09902954101562;-103.9009017944336;-7.742320537567139;1.615142822265625;-5.3358001708984375;-2.26141357421875
1445426193010;131.3600616455078;-104.81254577636719;-8.75607681274414;6.89111328125;-11.631668090820312;-5.73297119140625
1445426193042;132.50241088867188;-106.37804412841797;-10.024057388305664;4.753265380859375;-15.005157470703125;-4.163909912109375
1445426193075;139.74588012695312;-110.81333923339844;-9.059917449951172;0.16375732421875;-6.5910491943359375;-0.123565673828125
1445426193110;144.08531188964844;-111.4459457397461;-7.223814487457275;-3.856964111328125;-13.475311279296875;-3.202850341796875
1445426193142;148.32518005371094;-110.62723541259766;-3.4331963062286377;-4.3276824951171875;-13.828353881835938;-2.065277099609375
1445426193175;149.45843505859375;-108.98941802978516;-0.6982888579368591;-1.915252685546875;-13.808746337890625;-1.692626953125
1445426193207;149.83042907714844;-107.80546569824219;0.24695223569869995;-0.895355224609375;-12.769241333007812;-1.3003692626953125
1445426193240;153.0554962158203;-104.36080932617188;1.8030619621276855;-0.267730712890625;-12.082763671875;-1.0453948974609375
1445426193274;159.76190185546875;-100.08504486083984;2.744431495666504;-0.01275634765625;-10.807907104492188;-0.005889892578125
1445426193307;162.88861083984375;-98.0763931274414;2.829528570175171;-0.150054931640625;-10.7098388671875;-0.3589324951171875
1445426193339;167.9261474609375;-95.79188537597656;2.341737747192383;0.3795013427734375;-9.317291259765625;-0.868865966796875
1445426193373;173.2096405029297;-95.77347564697266;1.4057260751724243;0.8306121826171875;-7.5913238525390625;-1.8691558837890625
1445426193406;176.07284545898438;-96.60063934326172;1.281388282775879;-0.7384490966796875;-6.944091796875;-2.281036376953125
1445426193440;180.13812255859375;-99.4224624633789;1.231920838356018;-3.0920562744140625;-5.9045867919921875;-2.14373779296875
1445426193472;181.10894775390625;-101.29721069335938;0.9667673707008362;-1.9544830322265625;-4.6885528564453125;-2.1241302490234375
1445426193505;183.2958984375;-104.14881896972656;1.6068713665008545;-3.033203125;-7.4148101806640625;-2.3594818115234375
1445426193538;182.15557861328125;-105.75540161132812;1.2001699209213257;-0.287353515625;-12.180831909179688;-1.261138916015625
1445426193571;182.39727783203125;-107.03738403320312;0.9634591341018677;0.3795013427734375;-14.828628540039062;-2.3594818115234375
1445426193604;184.1236572265625;-108.1159439086914;0.6123243570327759;0.2618255615234375;-13.73028564453125;-1.6730194091796875
1445426193636;187.0126953125;-107.50489807128906;0.6572834253311157;-1.287628173828125;-13.769515991210938;-1.4180450439453125
1445426193670;188.31201171875;-106.64640808105469;0.77690190076828;-2.150604248046875;-13.710678100585938;-1.496490478515625
1445426193705;189.75665283203125;-104.46920776367188;0.7773796916007996;-1.15032958984375;-12.141616821289062;-1.3592071533203125
1445426193735;190.94012451171875;-102.52181243896484;0.4914376437664032;-0.208892822265625;-9.415359497070312;-1.3395843505859375
1445426193769;191.27178955078125;-101.76689147949219;0.37394317984580994;-0.1696624755859375;-8.297409057617188;-1.6141815185546875
1445426193806;191.3720703125;-101.00067901611328;0.32993027567863464;-1.09149169921875;-6.4537506103515625;-2.006439208984375
1445426193835;191.238525390625;-100.94635009765625;0.51921546459198;-1.9936981201171875;-6.061492919921875;-2.7125244140625
1445426193867;189.76617431640625;-101.89173126220703;1.0717865228652954;-2.2682952880859375;-6.37530517578125;-1.9279937744140625
1445426193901;186.265380859375;-104.86473846435547;1.106480598449707;-1.3268585205078125;-6.2772369384765625;-2.20257568359375
1445426193934;184.2781982421875;-106.91265869140625;0.44593489170074463;-0.4246368408203125;-9.238845825195312;-1.6533966064453125
1445426193967;180.73175048828125;-110.96227264404297;-1.7133644819259644;-0.1892852783203125;-10.7098388671875;-0.633514404296875
1445426194000;178.27333068847656;-113.69314575195312;-4.15973424911499;0.1245269775390625;-11.729736328125;-1.1630706787109375
1445426194035;177.56883239746094;-114.7827377319336;-5.023688316345215;0.301055908203125;-15.88775634765625;-2.6536865234375
1445426194079;176.5512237548828;-116.43517303466797;-5.353543281555176;3.57647705078125;-14.397140502929688;-0.9277191162109375
1445426194098;177.26100158691406;-115.5103530883789;-4.909294605255127;4.3413848876953125;-13.534149169921875;-0.9669342041015625
1445426194132;178.47943115234375;-114.12188720703125;-4.452896595001221;4.3021697998046875;-11.886642456054688;-2.1045074462890625
1445426194165;180.7760009765625;-110.41503143310547;-4.522401809692383;1.47784423828125;-8.670059204101562;-5.4387664794921875
1445426194198;181.2774658203125;-108.6360092163086;-5.142546653747559;-0.3657989501953125;-7.9835968017578125;-7.8315887451171875
1445426194231;181.887939453125;-107.27592468261719;-6.1865739822387695;-0.4442596435546875;-8.94464111328125;-7.8904266357421875
1445426194263;182.24664306640625;-109.13410949707031;-6.412214279174805;-0.6796112060546875;-5.7476806640625;-5.5172271728515625
1445426194297;183.176513671875;-110.38562774658203;-5.951005935668945;-0.34619140625;-1.9230804443359375;-0.5550537109375
1445426194330;185.6383056640625;-110.4884262084961;-4.818316459655762;0.10491943359375;-2.276123046875;0.4059906005859375
1445426194363;187.357177734375;-108.61851501464844;-4.213825702667236;1.222869873046875;-4.355133056640625;-0.692352294921875
1445426194399;188.31158447265625;-108.00604248046875;-3.9873600006103516;1.615142822265625;-5.5123138427734375;-1.947601318359375
1445426194429;191.941162109375;-107.26702880859375;-3.367164134979248;3.81182861328125;-8.120880126953125;-2.0456695556640625
1445426194462;196.8885498046875;-105.44815063476562;-3.1776294708251953;2.0270233154296875;-11.710113525390625;-1.9279937744140625
1445426194495;199.764892578125;-104.46158599853516;-3.6286652088165283;0.0656890869140625;-12.847686767578125;-2.4183197021484375
1445426194528;204.13409423828125;-102.54361724853516;-4.8125901222229;-0.267730712890625;-17.515655517578125;-2.8302001953125
1445426194560;205.34454345703125;-101.4350814819336;-5.091756343841553;-0.0716094970703125;-17.397979736328125;-2.5948486328125
1445426194594;207.26611328125;-98.39585876464844;-4.969879627227783;-0.267730712890625;-16.593826293945312;-2.1241302490234375
1445426194627;208.91488647460938;-94.93099212646484;-4.706442832946777;1.3797760009765625;-12.29852294921875;-0.4373779296875
1445426194659;208.92330932617188;-93.32804870605469;-4.679383277893066;0.10491943359375;-8.983871459960938;0.562896728515625
1445426194692;209.61666870117188;-90.7484359741211;-4.421454906463623;-0.4246368408203125;-7.35595703125;0.7001953125
1445426194726;210.3525390625;-88.64456939697266;-4.156155109405518;0.4383392333984375;-4.7081756591796875;-0.064727783203125
1445426194758;210.299560546875;-87.79441833496094;-4.051736831665039;1.046356201171875;-3.0410308837890625;-0.4766082763671875
1445426194791;210.12286376953125;-86.64260864257812;-3.8188283443450928;0.22259521484375;-2.766448974609375;-0.0451202392578125
1445426194825;211.18585205078125;-86.06244659423828;-3.1834893226623535;0.0656890869140625;-4.8258514404296875;-0.4569854736328125
1445426194858;211.36294555664062;-86.02546691894531;-2.6953437328338623;0.04608154296875;-7.7678375244140625;-2.4183197021484375
1445426194891;212.29824829101562;-87.26901245117188;-1.4573744535446167;-0.9934234619140625;-11.827789306640625;-3.889312744140625
1445426194923;212.67974853515625;-88.59615325927734;-0.9039994478225708;-1.405303955078125;-14.299072265625;-1.3984375
1445426194957;213.423095703125;-90.96614074707031;-0.2828529477119446;-2.11138916015625;-13.632217407226562;-1.3003692626953125
1445426194990;210.6224365234375;-92.39798736572266;0.03177575021982193;-1.2680206298828125;-16.00543212890625;-1.6337890625
1445426195023;209.68353271484375;-92.57403564453125;0.197215273976326;-0.2481231689453125;-16.456527709960938;-2.32025146484375
1445426195055;209.55459594726562;-92.14044952392578;0.12570546567440033;-1.4445343017578125;-15.926971435546875;-1.6730194091796875
1445426195089;208.51202392578125;-90.98950958251953;-0.023988479748368263;-1.2680206298828125;-13.632217407226562;-0.3393096923828125
1445426195122;207.820068359375;-90.20692443847656;-0.1159621849656105;-0.150054931640625;-10.984420776367188;-0.7315826416015625
1445426195155;206.153564453125;-88.3223876953125;-0.4635084867477417;0.0656890869140625;-10.042984008789062;-1.2807464599609375
1445426195187;204.9815673828125;-86.98506164550781;-0.8093711137771606;-0.032379150390625;-7.7678375244140625;-1.3592071533203125
1445426195221;204.54571533203125;-86.61682891845703;-0.8324006795883179;-0.2481231689453125;-6.5125885009765625;-1.51611328125
1445426195254;204.5606689453125;-86.32243347167969;-0.6194761395454407;-0.7384490966796875;-4.923919677734375;-0.9669342041015625
1445426195287;204.4686279296875;-86.3849868774414;-0.4878821074962616;-0.7580718994140625;-3.7471160888671875;0.4648284912109375
1445426195320;203.184814453125;-86.77371215820312;-0.23091396689414978;-0.4834747314453125;-3.7078857421875;0.680572509765625
1445426195355;201.49072265625;-86.83099365234375;-0.3422013521194458;-0.032379150390625;-7.86590576171875;-0.1431732177734375
1445426195385;201.0496826171875;-86.52318572998047;-0.6861507892608643;0.1441497802734375;-11.298233032226562;0.5236663818359375
1445426195418;198.85198974609375;-85.55583953857422;-1.334204912185669;-0.4442596435546875;-13.1026611328125;-0.5354461669921875
1445426195452;198.0833740234375;-85.08383178710938;-1.8451650142669678;-0.895355224609375;-18.123672485351562;-2.08489990234375
1445426195485;197.61761474609375;-85.45542907714844;-1.939833641052246;-1.1307220458984375;-19.006271362304688;-1.3592071533203125
1445426195517;195.8779296875;-86.73983001708984;-2.051678419113159;0.6148681640625;-17.221450805664062;-1.692626953125
1445426195551;195.5966796875;-87.90137481689453;-2.447643756866455;1.4582366943359375;-11.78857421875;-1.261138916015625
1445426195584;196.2657470703125;-90.98263549804688;-3.3061418533325195;0.3991241455078125;-7.3951873779296875;0.9159393310546875
1445426195616;195.1287841796875;-93.57855987548828;-3.4202775955200195;-0.228515625;-5.8653564453125;1.5435638427734375
1445426195650;193.634033203125;-94.59793090820312;-3.1158742904663086;-1.4837646484375;-5.0023651123046875;1.2297515869140625
1445426195684;189.7562255859375;-96.1214599609375;-1.8180097341537476;-0.7972869873046875;-5.29656982421875;0.19024658203125
1445426195715;186.208251953125;-97.7961654663086;-0.1973034292459488;-0.34619140625;-6.1399383544921875;-0.2216339111328125
1445426195749;184.4593505859375;-98.7424087524414;0.6617200374603271;1.0267486572265625;-8.571990966796875;-0.9865570068359375
1445426195782;180.244873046875;-100.96067810058594;1.772171974182129;1.732818603515625;-10.749069213867188;-1.712249755859375
1445426195814;175.43238830566406;-103.98892211914062;1.197094440460205;1.5955352783203125;-13.867584228515625;-3.0655670166015625
1445426195850;173.5499267578125;-105.77566528320312;0.35118934512138367;1.497467041015625;-14.75018310546875;-3.6735687255859375
1445426195881;169.82362365722656;-109.5290298461914;-1.936730146408081;2.2623748779296875;-15.3778076171875;-4.3796539306640625
1445426195914;165.79443359375;-112.37864685058594;-4.8377461433410645;2.9096221923828125;-14.593276977539062;-5.0465087890625
1445426195950;163.96084594726562;-113.37006378173828;-6.244289875030518;1.9093475341796875;-12.141616821289062;-4.399261474609375
1445426195979;160.42628479003906;-114.57161712646484;-8.67972469329834;1.2032623291015625;-10.866744995117188;-4.0462188720703125
1445426196012;156.95684814453125;-114.48246765136719;-10.592748641967773;0.536407470703125;-8.120880126953125;-3.28131103515625
1445426196046;155.2145538330078;-113.97814178466797;-11.405784606933594;0.6148681640625;-6.5714263916015625;-2.6144561767578125
1445426196079;151.8173065185547;-112.34521484375;-12.811826705932617;0.869842529296875;-3.98248291015625;-1.3592071533203125
1445426196112;150.26779174804688;-111.33860778808594;-13.354575157165527;1.222869873046875;-2.6095428466796875;-1.4180450439453125
1445426196145;147.91665649414062;-109.03742980957031;-13.89232063293457;1.1444244384765625;-2.45263671875;-1.712249755859375
1445426196177;145.58518981933594;-106.49885559082031;-13.81600570678711;1.2817230224609375;-3.6098175048828125;-1.143463134765625
1445426196211;143.95462036132812;-105.53411865234375;-13.753016471862793;2.43890380859375;-5.610382080078125;-2.20257568359375
1445426196244;141.19131469726562;-105.04837036132812;-13.364500045776367;3.3018798828125;-6.66949462890625;-3.1244049072265625
1445426196276;141.66851806640625;-106.88627624511719;-11.878612518310547;5.8123931884765625;-11.023651123046875;-0.515838623046875
1445426196311;141.5311279296875;-107.81017303466797;-11.586076736450195;6.14581298828125;-17.08416748046875;-7.8315887451171875
1445426196343;143.7279052734375;-109.04643249511719;-9.445588111877441;-0.091217041015625;-19.02587890625;-1.3003692626953125
1445426196376;144.08981323242188;-110.0234375;-9.840997695922852;4.517913818359375;-13.1614990234375;-1.574951171875
1445426196409;146.37966918945312;-109.92902374267578;-9.97629451751709;0.8306121826171875;-12.396575927734375;0.2294769287109375
1445426196441;149.36123657226562;-107.47177124023438;-9.356773376464844;-3.562774658203125;-14.98553466796875;-1.5945587158203125
1445426196475;150.02830505371094;-104.39616394042969;-8.132655143737793;-3.4647064208984375;-13.083053588867188;-1.692626953125
1445426196509;149.58412170410156;-102.80999755859375;-7.723100185394287;-2.484039306640625;-12.121994018554688;-1.1630706787109375
1445426196540;148.07382202148438;-99.7773666381836;-7.001927852630615;-1.169952392578125;-10.180282592773438;-1.6533966064453125
1445426196574;147.73651123046875;-98.59051513671875;-6.6744489669799805;0.1833648681640625;-7.179443359375;-2.1633453369140625
1445426196608;147.9133758544922;-97.33354949951172;-6.373011112213135;0.3991241455078125;-6.0026397705078125;-2.26141357421875
1445426196639;147.5375213623047;-97.09819030761719;-6.223121643066406;-0.2481231689453125;-5.5123138427734375;-2.5948486328125
1445426196672;147.42225646972656;-97.37002563476562;-6.045003414154053;-1.3072357177734375;-5.669219970703125;-1.75146484375
1445426196707;146.24514770507812;-98.25791931152344;-5.760167598724365;-1.3856964111328125;-5.4338531494140625;-1.810302734375
1445426196739;143.88058471679688;-99.61483001708984;-5.482710838317871;-0.777679443359375;-6.3164520263671875;-1.4180450439453125
1445426196772;142.09457397460938;-100.59634399414062;-5.194885730743408;-0.58154296875;-7.6501617431640625;-0.6531219482421875
1445426196805;138.4775390625;-102.12894439697266;-4.51850700378418;0.928680419921875;-11.043258666992188;0.2098541259765625
1445426196839;136.1412353515625;-102.02484893798828;-4.284049987792969;1.3993988037109375;-16.554595947265625;-1.4180450439453125
1445426196871;135.17601013183594;-101.94815826416016;-4.390660762786865;0.7717742919921875;-17.339126586914062;-2.7909698486328125
1445426196906;133.8511505126953;-102.71993255615234;-4.244792461395264;-0.5030975341796875;-16.18194580078125;-1.1042327880859375
1445426196938;132.40484619140625;-102.05012512207031;-3.5610218048095703;-1.346466064453125;-14.397140502929688;0.504058837890625
1445426196970;132.1105499267578;-100.8890380859375;-2.9727187156677246;-1.15032958984375;-14.12255859375;0.1706390380859375
1445426197005;131.10769653320312;-97.98440551757812;-2.0339932441711426;0.2029876708984375;-12.612335205078125;-1.084625244140625
1445426197037;130.03384399414062;-96.72423553466797;-1.8631532192230225;1.2817230224609375;-8.94464111328125;-1.202301025390625
1445426197069;127.12579345703125;-94.87996673583984;-2.002581834793091;0.9482879638671875;-7.0813751220703125;-1.51611328125
1445426197101;124.35574340820312;-93.92704010009766;-1.9989358186721802;-0.5619354248046875;-4.7473907470703125;-2.1045074462890625
1445426197136;123.35256958007812;-93.80284118652344;-1.8201861381530762;-1.20916748046875;-4.021697998046875;-1.6141815185546875
1445426197168;121.21377563476562;-94.1261978149414;-1.481554627418518;-0.9345855712890625;-3.4921417236328125;-0.5550537109375
1445426197200;118.15316772460938;-95.33792877197266;-1.741614580154419;0.5756378173828125;-4.296295166015625;-0.868865966796875
1445426197237;116.22770690917969;-96.14311218261719;-2.162625312805176;1.105194091796875;-6.806793212890625;-1.3395843505859375
1445426197267;113.81634521484375;-98.25956726074219;-3.5009329319000244;2.43890380859375;-11.45513916015625;-0.0843353271484375
1445426197299;113.04013061523438;-99.4842758178711;-4.261950969696045;1.3993988037109375;-13.004592895507812;-1.4180450439453125
1445426197333;112.77694702148438;-101.51038360595703;-4.857290744781494;-0.405029296875;-14.632492065429688;-1.2807464599609375
1445426197366;112.4749755859375;-101.89998626708984;-4.610072135925293;-0.3069610595703125;-17.6529541015625;-1.2219085693359375
1445426197400;112.15412902832031;-101.59968566894531;-4.705530166625977;-0.1304473876953125;-16.515380859375;-0.4766082763671875
1445426197432;112.24749755859375;-100.12541961669922;-4.918285846710205;0.2029876708984375;-16.06427001953125;-0.4962158203125
1445426197464;112.77755737304688;-97.94803619384766;-4.708984851837158;0.34027099609375;-14.083328247070312;-0.692352294921875
1445426197499;112.95887756347656;-96.63523864746094;-4.608554363250732;0.595245361328125;-9.788009643554688;-1.7318572998046875
1445426197531;112.306396484375;-94.3087387084961;-4.8072509765625;0.22259521484375;-7.552093505859375;-2.26141357421875
1445426197564;111.97036743164062;-93.73502349853516;-5.0306477546691895;-0.0716094970703125;-4.413970947265625;-2.8498077392578125
1445426197597;112.61114501953125;-93.8242416381836;-5.720981121063232;0.04608154296875;-3.668670654296875;-3.3793792724609375
1445426197630;113.9224853515625;-95.46749877929688;-6.394959449768066;-0.228515625;-3.2567901611328125;-2.2221832275390625
1445426197662;113.54327392578125;-96.8106689453125;-6.711892604827881;-0.601165771484375;-3.2371673583984375;-2.575225830078125
1445426197695;111.04281616210938;-100.22453308105469;-7.668936729431152;-0.4638671875;-3.9236297607421875;-2.7125244140625
1445426197729;109.57037353515625;-104.75064086914062;-7.9250168800354;-0.660003662109375;-7.9835968017578125;-1.9868316650390625
1445426197761;108.86041259765625;-107.151611328125;-7.6439290046691895;1.98779296875;-14.514816284179688;-1.437652587890625
1445426197795;108.53390502929688;-110.99334716796875;-6.478200912475586;3.7333831787109375;-16.495758056640625;-2.3594818115234375
1445426197828;107.91156005859375;-112.87763977050781;-5.236510753631592;4.6551971435546875;-15.828903198242188;-4.222747802734375
1445426197861;107.14599609375;-113.10881042480469;-4.918325424194336;4.184478759765625;-15.240509033203125;-3.791259765625
1445426197895;106.31060791015625;-111.88939666748047;-4.1488752365112305;3.5372467041015625;-14.965927124023438;-3.22247314453125
1445426197927;105.7974853515625;-110.92255401611328;-3.8434255123138428;2.301605224609375;-12.220062255859375;-2.5948486328125
1445426197960;104.53018188476562;-109.29183197021484;-3.5541651248931885;1.75244140625;-10.219512939453125;-2.1829681396484375
1445426197992;105.41917419433594;-108.12298583984375;-3.2688612937927246;0.536407470703125;-6.72833251953125;-1.9868316650390625
1445426198026;106.78115844726562;-107.71614837646484;-3.076016902923584;-0.3854217529296875;-4.8846893310546875;-1.143463134765625
1445426198059;107.02719116210938;-107.77494812011719;-2.9344425201416016;-0.4442596435546875;-4.10015869140625;-0.4766082763671875
1445426198092;107.8629150390625;-107.75907897949219;-2.024170160293579;-0.0716094970703125;-3.6294403076171875;0.24908447265625
1445426198124;108.93467712402344;-107.55667877197266;-1.0391420125961304;0.8306121826171875;-5.23773193359375;-0.77081298828125
1445426198158;112.2239990234375;-106.99105834960938;1.7626118659973145;1.12481689453125;-6.0418701171875;-1.4768829345703125
1445426198191;115.08755493164062;-106.31393432617188;4.186824798583984;0.2618255615234375;-6.924468994140625;-2.398712158203125
1445426198224;116.16644287109375;-106.0231704711914;4.932586669921875;-0.0519866943359375;-10.396026611328125;-3.712799072265625
1445426198257;118.8316650390625;-106.10466766357422;5.486304759979248;1.2621002197265625;-13.239959716796875;-4.6346282958984375
1445426198289;121.77970886230469;-107.22846221923828;5.617027759552002;1.9485626220703125;-15.94659423828125;-6.3017578125
1445426198322;122.678466796875;-107.64591979980469;5.095804214477539;0.2618255615234375;-16.613449096679688;-6.3017578125
1445426198357;122.54885864257812;-108.95159912109375;2.5548744201660156;-1.3072357177734375;-17.31951904296875;-5.96832275390625
1445426198389;121.04676818847656;-110.43755340576172;-0.5567426085472107;0.5560302734375;-15.6719970703125;-5.419158935546875
1445426198422;120.29283142089844;-111.01155853271484;-1.951581358909607;1.3993988037109375;-14.240234375;-4.8699798583984375
1445426198455;119.36175537109375;-111.84959411621094;-4.569059371948242;1.1444244384765625;-9.827239990234375;-3.85009765625
1445426198489;118.29177856445312;-112.30531311035156;-7.765365123748779;0.0853118896484375;-5.4534759521484375;-2.1829681396484375
1445426198522;117.92292785644531;-112.62409973144531;-9.547504425048828;-0.1108245849609375;-3.335235595703125;-1.5945587158203125
1445426198554;117.37858581542969;-113.19361114501953;-13.273526191711426;-0.1304473876953125;-2.021148681640625;-1.12384033203125
1445426198587;117.30970764160156;-113.42235565185547;-14.858591079711914;0.16375732421875;-3.1194915771484375;-1.5553436279296875
1445426198620;118.19827270507812;-113.79135131835938;-16.456161499023438;0.7129364013671875;-4.1982269287109375;-1.947601318359375
1445426198653;121.30917358398438;-113.87003326416016;-15.322890281677246;2.360443115234375;-6.6498870849609375;-2.26141357421875
1445426198688;122.84356689453125;-113.54159545898438;-14.523798942565918;2.5761871337890625;-7.3363494873046875;-2.908660888671875
1445426198718;124.54324340820312;-112.05802917480469;-13.372588157653809;3.046905517578125;-7.92474365234375;-2.9282684326171875
1445426198752;124.0064697265625;-108.53530883789062;-12.527057647705078;3.8510589599609375;-10.278350830078125;-3.3009185791015625
1445426198785;122.63172912597656;-106.24663543701172;-12.076776504516602;3.9098968505859375;-12.02392578125;-3.4970550537109375
1445426198818;120.02786254882812;-102.50634765625;-11.225046157836914;5.4005126953125;-15.3778076171875;-5.419158935546875
1445426198851;119.63873291015625;-101.56995391845703;-10.82266616821289;6.32232666015625;-15.162063598632812;-4.4973297119140625
1445426198884;119.92025756835938;-101.18083953857422;-10.560650825500488;6.3615570068359375;-13.691055297851562;-4.144287109375
1445426198917;120.4815673828125;-101.43440246582031;-11.361074447631836;3.046905517578125;-7.2775115966796875;-0.300079345703125
1445426198950;119.99630737304688;-101.31794738769531;-11.985032081604004;0.4579620361328125;-5.9045867919921875;-0.4766082763671875
