sep=;
timestamp;gyro-alpha;gyro-beta;gyro-gamma;accel-x;accel-y;accel-z
1445509608876;73.23492073388101;-81.56643143254685;130.5260715051273;2.4735095901489257;16.723049683380125;-5.064933831256255
1445509608912;57.22332897428578;-74.08431483822416;112.82572406974658;1.6174327129088342;14.099303939056396;2.141463747406006
1445509608945;58.21389150826323;-67.22854983232124;116.96382818353192;0.323666136932373;10.044573863043263;3.8251860649108886
1445509608981;58.21389150826323;-67.22854983232124;116.96382818353192;0.323666136932373;10.044573863043263;3.8251860649108886
1445509609014;60.18002645730226;-59.79280486149487;124.09695960363483;2.837428096362203;8.478765830028959;2.5263315546782685
1445509609050;63.62853915639053;-52.5612144382643;133.7873831878707;0.2166752502441406;6.332065132959187;0.620547142791748
1445509609084;65.77557713885005;-45.82715469892577;145.36227348261835;1.7206826595030724;3.6674680305480956;0.3838204536437988
1445509609117;65.77557713885005;-45.82715469892577;145.36227348261835;1.7206826595030724;3.6674680305480956;0.3838204536437988
1445509609152;66.78838843505227;-40.28087780700715;152.7450553989281;1.7925087093077599;3.5295021598815914;2.800168479156494
1445509609186;65.70866226144288;-37.39015240058449;154.12605159916015;1.146373536273092;3.7789481914795933;4.121618450219929
1445509609221;65.70866226144288;-37.39015240058449;154.12605159916015;1.146373536273092;3.7789481914795933;4.121618450219929
1445509609255;62.57155999705194;-38.3513453405402;152.86260587964145;4.616918553338572;4.2549449706479905;6.1037175650998945
1445509609288;58.55576937972082;-42.44011916305287;147.75417091895804;4.821174101666361;10.307337422180176;12.020837622833252
1445509609326;58.55576937972082;-42.44011916305287;147.75417091895804;4.821174101666361;10.307337422180176;12.020837622833252
1445509609362;56.6840915622154;-47.52145969864001;146.24071136561813;0.8777741836547851;12.2192570854187;7.89727417602539
1445509609396;57.28468667343442;-53.63633933046557;143.6654647543983;-0.14829086532592772;7.0940195921082045;3.061585226794332
1445509609431;57.28468667343442;-53.63633933046557;143.6654647543983;-0.14829086532592772;7.0940195921082045;3.061585226794332
1445509609465;60.63837173844599;-60.177257761637684;141.21396245428446;2.0235493887085467;10.817003246716409;0.7122749938964843
1445509609502;64.44784639289932;-66.64049322018525;139.5366263026343;6.104914958190918;14.542680158996582;1.3159130874633789
1445509609535;65.14728929659526;-72.13466635836349;135.42058114342746;4.812644612121582;9.776423277105764;2.169296275489952
1445509609571;65.14728929659526;-72.13466635836349;135.42058114342746;4.812644612121582;9.776423277105764;2.169296275489952
1445509609608;63.83005558622228;-80.13871543134364;133.1633431430389;0.12943652725219726;5.470151950781047;1.400757590528857
1445509609642;51.40974474181886;-82.81556787009261;118.25425205089869;0.7650970680236816;5.496787444250285;0.8848071692978031
1445509609678;51.40974474181886;-82.81556787009261;118.25425205089869;0.7650970680236816;5.496787444250285;0.8848071692978031
1445509609714;36.96694392390585;-84.84131046885413;101.3017375932619;2.0771195777893063;7.563283190564066;-0.8108861747741699
1445509609748;16.171110939541876;-86.23690435259006;76.98557635137998;1.5518915885925293;10.119990886544622;0.8075941200919915
1445509609783;327.6079220542052;-87.6707643085061;26.94286275669039;2.887407202148437;13.669843724004924;1.028459214108251
1445509609817;327.6079220542052;-87.6707643085061;26.94286275669039;2.887407202148437;13.669843724004924;1.028459214108251
1445509609855;276.65520376823554;-86.9740585432214;-25.15022697009585;2.2870610080000944;15.57218687286377;1.3452420212676748
1445509609889;257.4906531060601;-87.71216233153575;-45.2903887140569;1.841889282945264;14.01610572362691;2.516306054422073
1445509609923;257.4906531060601;-87.71216233153575;-45.2903887140569;1.841889282945264;14.01610572362691;2.516306054422073
1445509609959;84.76153627911903;-87.9993632569486;141.31201950425105;1.7509095650603994;10.742483427783101;2.64888488002168
1445509609993;72.17383430268512;-81.81865721205251;126.02636975579257;0.989254189322656;14.100949952697754;-0.1637035385131836
1445509610030;72.17383430268512;-81.81865721205251;126.02636975579257;0.989254189322656;14.100949952697754;-0.1637035385131836
1445509610064;65.69975717371263;-75.78579864625868;120.7602288843096;5.197811804199218;12.485761365453898;-0.16639701538085935
1445509610098;62.843860630525455;-69.22563818427184;116.78997701613388;-0.7885901718139648;11.210849565942585;3.320458427429199
1445509610132;63.31654774153091;-62.273256216879865;118.46530777832184;3.424905328723043;10.472686828204244;3.3180642257690427
1445509610167;63.31654774153091;-62.273256216879865;118.46530777832184;3.424905328723043;10.472686828204244;3.3180642257690427
1445509610201;64.57973995053922;-54.515272734801435;127.0408440241112;2.188001042175293;8.424147959667817;-0.9304466201782225
1445509610235;66.68661569890759;-47.431149632032934;139.53585525828743;0.7426514274597168;2.3861212295532224;0.17372925796508787
1445509610272;66.68661569890759;-47.431149632032934;139.53585525828743;0.7426514274597168;2.3861212295532224;0.17372925796508787
1445509610308;68.3706733901273;-42.17338241842661;149.74926566254814;2.9445686206541954;3.131166566412151;1.248875440979004
1445509610342;68.09400160097942;-40.270235556279225;156.07673862636378;1.9874865800719708;1.2642881141662596;2.0911858048036693
1445509610379;68.09400160097942;-40.270235556279225;156.07673862636378;1.9874865800719708;1.2642881141662596;2.0911858048036693
1445509610415;64.91034361983557;-43.83527831668984;155.64615045774744;1.3060368594847618;1.1746551895141601;4.202721593066305
1445509610448;61.893695180443615;-49.29403265188381;151.40808804343135;3.689614468969777;15.23206059951782;2.2692545532777904
1445509610481;59.274439802026265;-54.244580175116496;146.1790549338304;2.0989667410034687;9.569175268963724;2.9324479747496546
1445509610518;59.274439802026265;-54.244580175116496;146.1790549338304;2.0989667410034687;9.569175268963724;2.9324479747496546
1445509610553;58.37597033339119;-59.53255666002352;141.54874810382861;0.4966472068786621;9.881319310406594;2.871695326818898
1445509610587;61.28211945726135;-65.27681966206592;139.74090832228327;2.537554566756496;14.273931022644042;1.7621324218749999
1445509610623;61.28211945726135;-65.27681966206592;139.74090832228327;2.537554566756496;14.273931022644042;1.7621324218749999
1445509610657;63.20898150243428;-70.54834707093752;137.85246018104573;4.0906431739807125;10.588656117248535;1.6935984724182636
1445509610693;67.09205987654676;-75.34297639737817;140.50292640348354;4.192546528271586;9.561543719205934;0.6691793640136718
1445509610728;67.09205987654676;-75.34297639737817;140.50292640348354;4.192546528271586;9.561543719205934;0.6691793640136718
1445509610764;63.34884160297192;-79.56413029929004;137.44555952259927;-0.17941548690795897;6.149357618768513;0.12030863342285156
1445509610799;47.69295712254439;-83.48740920319483;118.00924251861785;1.6032172866821288;6.655730977630615;1.0805331367492674
1445509610833;15.231098559186567;-85.32582669334667;83.98555506301925;0.5781996643951163;8.442853025463968;1.3287819396530278
1445509610866;15.231098559186567;-85.32582669334667;83.98555506301925;0.5781996643951163;8.442853025463968;1.3287819396530278
1445509610899;340.179277217699;-85.89371457470415;46.89753579715333;1.9747674568176268;9.909900083591555;0.16220716247558592
1445509610932;312.13859784623696;-85.69905632848545;16.623255686415654;2.1660043326889165;12.501473898370563;0.7906851713318377
1445509610970;312.13859784623696;-85.69905632848545;16.623255686415654;2.1660043326889165;12.501473898370563;0.7906851713318377
1445509611006;280.2954117025063;-84.71484826846972;-17.485243306519962;0.8575731254135258;15.378705451202391;0.903511924566701
1445509611040;258.98581383476585;-83.8160298481945;-41.08205754394401;2.6385599401611834;14.31687730718404;0.7121253562927246
1445509611078;258.98581383476585;-83.8160298481945;-41.08205754394401;2.6385599401611834;14.31687730718404;0.7121253562927246
1445509611113;240.64666161602392;-86.06613766487858;-60.958846378284285;4.45231737186592;11.288959956713764;5.110274061728083
1445509611148;100.50048932270875;-87.09668885789783;154.7037948832248;3.854215760040283;11.723208282824604;-6.195894840472564
1445509611183;70.39117103093113;-82.28556097643843;123.32303316450027;1.7937059562683104;10.886734150872751;-2.3216273492675272
1445509611218;70.39117103093113;-82.28556097643843;123.32303316450027;1.7937059562683104;10.886734150872751;-2.3216273492675272
1445509611253;56.65078511247869;-78.38552398407408;110.4621946265832;0.6373064813476056;10.492738559368997;7.456142300945893
1445509611287;58.292219440187516;-73.18242589476078;115.39276720585258;1.6512508844237774;8.944288562597706;-4.575618793896585
1445509611325;58.292219440187516;-73.18242589476078;115.39276720585258;1.6512508844237774;8.944288562597706;-4.575618793896585
1445509611361;62.85083032417424;-67.2693286127703;121.55805406037663;-0.2819172454833984;7.097461330059915;2.7705401605468243
1445509611395;63.86819300492979;-57.217738350338315;133.82329739243653;0.309001651763916;4.08301136392802;-0.6821978355407714
1445509611428;63.86819300492979;-57.217738350338315;133.82329739243653;0.309001651763916;4.08301136392802;-0.6821978355407714
1445509611462;63.86819300492979;-57.217738350338315;133.82329739243653;0.309001651763916;4.08301136392802;-0.6821978355407714
1445509611497;58.604995611064;-55.22979638454459;134.32822816156911;1.8101660926818846;2.940079638671875;1.1620856307983398
1445509611532;58.604995611064;-55.22979638454459;134.32822816156911;1.8101660926818846;2.940079638671875;1.1620856307983398
1445509611566;58.604995611064;-55.22979638454459;134.32822816156911;1.8101660926818846;2.940079638671875;1.1620856307983398
1445509611601;48.648808557444724;-60.616796303887504;130.8246730162329;10.394127524621783;12.44341421585083;11.403582507324218
1445509611634;51.73379107211789;-57.167816774346804;137.01259549256542;22.542007473047075;36.00116145095825;5.262006336212158
1445509611670;51.73379107211789;-57.167816774346804;137.01259549256542;22.542007473047075;36.00116145095825;5.262006336212158
1445509611706;54.62755179148209;-56.33984022642741;138.1927087187391;-11.64764114679545;1.6744447860717773;4.998195167718455
1445509611740;52.939858661212114;-63.01314203324213;128.63603469435412;0.2232593048095703;17.551742733001706;-8.303690200097858
1445509611774;52.939858661212114;-63.01314203324213;128.63603469435412;0.2232593048095703;17.551742733001706;-8.303690200097858
1445509611810;51.344178573580585;-68.60014784652255;121.68192059499516;4.548085328674316;11.544989896746724;0.3687070556640625
1445509611843;56.002531354586935;-74.15554453651269;125.61815241892506;1.1249755781311541;8.701576369299367;-0.6388029304504395
1445509611878;56.002531354586935;-74.15554453651269;125.61815241892506;1.1249755781311541;8.701576369299367;-0.6388029304504395
1445509611913;57.45967162660428;-78.49939533151925;128.599870184718;2.643198705877736;12.645424980926514;1.1363479994842782
1445509611949;51.20874722636033;-81.7487977970971;118.19097060111682;0.15113405286259948;8.118289209039508;2.760215312017873
1445509611982;37.91453672415753;-84.78055152847368;101.56498536280709;2.471564301300049;8.82906775383316;-0.5545569230010733
1445509612015;37.91453672415753;-84.78055152847368;101.56498536280709;2.471564301300049;8.82906775383316;-0.5545569230010733
1445509612051;1.4817845619014278;-86.71830338425323;62.71004200027665;1.4930839737823232;10.445901843261717;-0.18285715179443357
1445509612085;318.11092573761175;-87.09186660591251;15.774981358602114;0.9439140410492196;9.58354049719097;-2.0834043936798348
1445509612120;318.11092573761175;-87.09186660591251;15.774981358602114;0.9439140410492196;9.58354049719097;-2.0834043936798348
1445509612154;281.44858349360504;-87.13178804505027;-23.767406164194945;2.6728270244874057;10.92504159663096;3.0342016549041495
1445509612188;258.99419286047265;-86.10612065831126;-47.849979656457826;3.2392051355224103;17.108216875457764;1.3268365960052235
1445509612223;258.99419286047265;-86.10612065831126;-47.849979656457826;3.2392051355224103;17.108216875457764;1.3268365960052235
1445509612257;231.12669915166333;-88.45719364417468;-76.79400809126176;0.8728361427307129;9.152284685693308;1.913416021009814
1445509612291;86.3218924187704;-85.66149275530599;134.8126107747329;3.134758234228566;12.318317179107666;2.830245674044825
1445509612325;86.3218924187704;-85.66149275530599;134.8126107747329;3.134758234228566;12.318317179107666;2.830245674044825
1445509612361;73.91013410624257;-78.75038244259609;119.19367710633772;-0.8728361427307129;15.830910289764404;-3.64786543139033
1445509612394;67.2908520956443;-72.96427964634702;114.54699907032678;3.6297594274658707;12.613701516668497;2.817676151861623
1445509612428;67.2908520956443;-72.96427964634702;114.54699907032678;3.6297594274658707;12.613701516668497;2.817676151861623
1445509612462;69.05142044084376;-65.3876693079464;116.27479818777023;0.8243535591125488;11.795333753967284;-0.6253355461120605
1445509612497;70.84810671956897;-57.82923264849506;121.32645724177823;1.8541595481872557;9.6396544342041;2.0548235748291015
1445509612530;72.5126680273525;-49.85822454269944;130.70443311051827;1.521365517425537;8.62885249387212;-0.3133411422729492
1445509612564;72.5126680273525;-49.85822454269944;130.70443311051827;1.521365517425537;8.62885249387212;-0.3133411422729492
1445509612598;73.5207850613248;-43.0323472656942;140.53796830749164;0.6625953094482422;2.2034137153625486;0.40222587890625
1445509612631;73.24958385507037;-39.03405137892093;145.40605482685956;1.468992356109619;1.93451494140625;1.1459247695922852
1445509612666;73.24958385507037;-39.03405137892093;145.40605482685956;1.468992356109619;1.93451494140625;1.1459247695922852
1445509612703;71.53872224368648;-39.81213318589969;147.11250183235316;2.1333833168029783;1.3883376876831053;1.0223241088867188
1445509612737;68.2636765208322;-45.37089226339005;144.01165642053593;3.7575499045440925;3.710563952691853;2.7365724975585937
1445509612772;68.2636765208322;-45.37089226339005;144.01165642053593;3.7575499045440925;3.710563952691853;2.7365724975585937
1445509612805;65.44986652617725;-50.68897288459227;139.47916071959497;5.823147350311279;21.158458480945228;1.6852186935424804
1445509612839;61.62022592710529;-55.20281345214354;133.50080642480913;-0.07197568740844726;5.468206954193115;3.8985083857218967
1445509612875;61.62022592710529;-55.20281345214354;133.50080642480913;-0.07197568740844726;5.468206954193115;3.8985083857218967
1445509612910;60.30063274905102;-61.06014213518216;128.6926590352623;0.18240823898315428;11.349563040105998;1.4667477920532226
1445509612945;61.761260499492636;-66.9777242012527;125.96720782638695;2.557157120248489;14.82384921646118;1.550993836035207
1445509612979;61.761260499492636;-66.9777242012527;125.96720782638695;2.557157120248489;14.82384921646118;1.550993836035207
1445509613014;64.7106183791687;-72.11297588800811;125.37115686314158;3.532794260229543;10.796951515551656;1.1974001783508808
1445509613049;70.88242474997071;-75.90058926296199;131.02087214159022;3.8539164848327636;10.446500174481049;0.48228192385248836
1445509613084;63.12838892351424;-82.0979918382789;122.0459291723741;1.7871219017028808;6.726958184759319;-0.0962169792175293
1445509613120;63.12838892351424;-82.0979918382789;122.0459291723741;1.7871219017028808;6.726958184759319;-0.0962169792175293
1445509613156;42.0624808713361;-84.67554287571896;99.79034758194982;-0.6229414175171405;8.536076960345357;0.6959644950866699
1445509613189;8.319394390708897;-86.64115106597187;64.72042109213739;1.4850035797119139;10.513388694818318;1.0676643393585459
1445509613225;8.319394390708897;-86.64115106597187;64.72042109213739;1.4850035797119139;10.513388694818318;1.0676643393585459
1445509613260;312.7398054240457;-86.9870612752489;7.754065333162005;0.592415255018603;12.11286489527598;0.766294241918996
1445509613295;267.2080831804403;-85.22000233912208;-39.24565123268671;0.8943840307373553;14.44122586364746;1.2551602934021502
1445509613331;267.2080831804403;-85.22000233912208;-39.24565123268671;0.8943840307373553;14.44122586364746;1.2551602934021502
1445509613364;248.89767074388814;-85.44817235556943;-58.53975604376051;1.935712042236328;12.807632143402099;0.14185644836425781
1445509613399;170.71782104969236;-88.70705972260802;-136.7931573237689;2.910152072254149;12.283900237981975;5.004480056674219
1445509613433;89.31365748492597;-82.6547542130739;135.64486867514435;0.29358901510927826;13.527688584955035;-6.150853483349457
1445509613470;89.31365748492597;-82.6547542130739;135.64486867514435;0.29358901510927826;13.527688584955035;-6.150853483349457
1445509613505;69.81527785874958;-77.13449062713296;119.07180959707415;1.9457377183057483;11.580603938702493;1.8189947113037108
1445509613538;74.59152260605006;-69.82766065841041;119.35896216984364;1.531989641162008;10.884938572692871;1.0149917932372539
1445509613572;74.59152260605006;-69.82766065841041;119.35896216984364;1.531989641162008;10.884938572692871;1.0149917932372539
1445509613605;75.25363598079146;-62.02017339214603;125.1157432166045;1.566705711364746;10.313921622876077;1.4475940326415002
1445509613639;76.50513460110791;-54.15244646363136;132.94312400657896;0.48108489608764643;6.900238822174072;0.14469956283569335
1445509613676;76.50513460110791;-54.15244646363136;132.94312400657896;0.48108489608764643;6.900238822174072;0.14469956283569335
1445509613711;77.60975962519909;-47.08460325813518;142.47909349876582;0.4333505004882812;3.0096611244201656;1.4119807213380933
1445509613744;78.2533428728181;-42.218375436778366;148.24585913510668;1.8402432510375974;3.806930277252197;1.1845312713623046
1445509613781;78.2533428728181;-42.218375436778366;148.24585913510668;1.8402432510375974;3.806930277252197;1.1845312713623046
1445509613815;77.53567381098318;-40.6460094878533;150.66618156820843;3.0424318692414087;2.6957211394712326;2.352602406311035
1445509613851;75.17306830862469;-43.67943990471352;149.11988546679115;2.6719289066039025;1.7580922065734863;3.16019655380249
1445509613885;72.33479513616247;-48.3940771494991;146.10312542386427;2.07637153590098;14.515745390319823;5.522375794153613
1445509613921;72.33479513616247;-48.3940771494991;146.10312542386427;2.07637153590098;14.515745390319823;5.522375794153613
1445509613957;69.28674377332995;-52.84875451651181;142.55197238280954;2.347364944048971;9.113528619384764;4.708945853180764
1445509613992;68.17635753871821;-57.56782024926708;139.53729190711383;-1.1080664558410644;8.69065289729014;3.3339259578980505
1445509614025;68.17635753871821;-57.56782024926708;139.53729190711383;-1.1080664558410644;8.69065289729014;3.3339259578980505
1445509614061;70.49865675326629;-62.981818047414976;137.43991249760558;0.9340380687989294;14.374038579559326;1.5376760162353516
1445509614094;72.15944050559384;-68.19369894843808;134.8802708869591;3.843142723492533;11.104756212615966;1.3964180452208965
1445509614130;72.15944050559384;-68.19369894843808;134.8802708869591;3.843142723492533;11.104756212615966;1.3964180452208965
1445509614163;75.48493976609656;-73.09192131491682;136.41875047076982;3.784035723876953;10.014945325237884;1.3084312803406268
1445509614198;78.74856025611132;-77.01197703269365;141.21853472437957;1.8272247064452618;8.65653559669815;-1.61683445475474
1445509614234;72.06471973590249;-81.00444393399884;132.9776663658531;-0.9690531219482421;7.20160895614624;0.03531447448730469
1445509614268;72.06471973590249;-81.00444393399884;132.9776663658531;-0.9690531219482421;7.20160895614624;0.03531447448730469
1445509614303;56.555560333475874;-84.14690697511804;115.1228012188568;1.7151462142944336;7.859116440936178;0.9548375495910644
1445509614338;35.059693685624396;-85.84370210779342;91.15402668788623;0.6569090531059075;8.852560784558205;0.26141690175982074
1445509614375;35.059693685624396;-85.84370210779342;91.15402668788623;0.6569090531059075;8.852560784558205;0.26141690175982074
1445509614410;4.28819811840104;-86.47039071253285;58.46146401949773;2.07083472536616;9.954043295431696;0.2747346405029297
1445509614444;321.06103092593577;-86.3525881396831;13.710468531799446;-1.4513350732001942;13.592182392175495;0.711975791754201
1445509614479;321.06103092593577;-86.3525881396831;13.710468531799446;-1.4513350732001942;13.592182392175495;0.711975791754201
1445509614512;280.8613718331153;-85.02746684932237;-28.59380342068381;-1.3492823096344246;16.008081212615966;0.41270051116943357
1445509614548;260.1986509246054;-85.6873604950509;-50.41109562626184;2.0180127608368172;11.095478388921915;2.074725229998678
1445509614581;141.59711109482316;-87.88741715735317;-169.75193388951456;5.809231244957866;12.747926739501953;3.5568858048370107
1445509614615;141.59711109482316;-87.88741715735317;-169.75193388951456;5.809231244957866;12.747926739501953;3.5568858048370107
1445509614651;65.63375793614877;-75.3863062979134;112.51286404655546;1.520766967010498;13.018920732171832;5.6091655769348145
1445509614684;65.63375793614877;-75.3863062979134;112.51286404655546;1.520766967010498;13.018920732171832;5.6091655769348145
1445509614718;65.63375793614877;-75.3863062979134;112.51286404655546;1.520766967010498;13.018920732171832;5.6091655769348145
1445509614755;69.59881039229376;-62.73130435287414;118.61348875577906;2.213738856152445;9.897330241747945;2.4952069696288555
1445509614790;69.59881039229376;-62.73130435287414;118.61348875577906;2.213738856152445;9.897330241747945;2.4952069696288555
1445509614823;69.59881039229376;-62.73130435287414;118.61348875577906;2.213738856152445;9.897330241747945;2.4952069696288555
1445509614858;72.04671054819123;-55.35865643617061;125.89628395586611;2.2884078742980956;8.74571960853897;0.3553893089294433
1445509614892;75.66814373250233;-42.05732729362164;144.04460727101866;0.741903239440918;3.6387376106262206;1.0595838722229003
1445509614927;75.66814373250233;-42.05732729362164;144.04460727101866;0.741903239440918;3.6387376106262206;1.0595838722229003
1445509614960;75.66814373250233;-42.05732729362164;144.04460727101866;0.741903239440918;3.6387376106262206;1.0595838722229003
1445509614994;74.36769424787326;-36.95474882062111;149.69421208423694;4.447079800006002;3.092709702245891;3.04841755605489
1445509615029;74.36769424787326;-36.95474882062111;149.69421208423694;4.447079800006002;3.092709702245891;3.04841755605489
1445509615064;74.36769424787326;-36.95474882062111;149.69421208423694;4.447079800006002;3.092709702245891;3.04841755605489
1445509615098;70.1186931101261;-43.91329069225545;148.0744826067498;-0.7631517791748046;14.390797991180419;11.660659910583496
1445509615134;66.77009119298276;-47.349362879807;145.77695404640448;0.5481225425720214;5.673060979870707;4.038719071606546
1445509615169;66.77009119298276;-47.349362879807;145.77695404640448;0.5481225425720214;5.673060979870707;4.038719071606546
1445509615203;65.69047872128445;-52.30212610630491;143.460557392535;-1.2045827102661133;7.67401497168052;3.3801638313293454
1445509615237;67.94965842448006;-58.246417392228565;142.04047132084304;-0.03037643356323242;11.120318523406981;2.261921872302145
1445509615270;67.94965842448006;-58.246417392228565;142.04047132084304;-0.03037643356323242;11.120318523406981;2.261921872302145
1445509615305;71.54036413697332;-63.8329550054351;141.3371462685122;2.9343933914626947;12.704381904546915;1.5973815662659703
1445509615338;74.61389011566307;-69.33676683098109;140.87169094217293;2.4163480072463863;9.239673219818947;0.39429493977651
1445509615373;74.61389011566307;-69.33676683098109;140.87169094217293;2.4163480072463863;9.239673219818947;0.39429493977651
1445509615407;79.13005336329078;-74.58549359312377;143.51980759721727;3.975272581481933;9.725396598495356;-0.08439560852050781
1445509615442;77.95115560745069;-78.86798185477515;141.42836590881709;1.3467384155715816;6.369623586980998;-1.0535983680725096
1445509615476;77.95115560745069;-78.86798185477515;141.42836590881709;1.3467384155715816;6.369623586980998;-1.0535983680725096
1445509615511;66.37172283132007;-83.05523309059544;126.08254421910732;1.8224363761901854;6.389974301092327;0.9015665443862788
1445509615545;33.733589715987236;-86.04796562893664;91.94547873175314;-0.6066308456420898;8.441356211034954;0.030226795959472655
1445509615579;33.733589715987236;-86.04796562893664;91.94547873175314;-0.6066308456420898;8.441356211034954;0.030226795959472655
1445509615614;324.1048442262956;-86.93143578060672;20.32449417162806;-0.9552864806686527;11.791443322400003;0.6661865754058585
1445509615648;284.044055109484;-85.50791925687585;-21.64896828077131;2.3892635644332505;12.993182772064209;-0.6579565117656486
1445509615684;267.7825855027335;-84.58711489630349;-41.520422637600014;1.467795328344777;14.027029268701373;0.5877765075683593
1445509615719;267.7825855027335;-84.58711489630349;-41.520422637600014;1.467795328344777;14.027029268701373;0.5877765075683593
1445509615755;257.03713047466056;-84.4559829041221;-54.24949480859983;-0.4043208053588867;17.810915062713622;-0.41599254758530296
1445509615790;231.32860465935462;-87.16760917134586;-80.76612334742761;-1.0767921966552734;9.677362927688472;2.819770913917478
1445509615828;231.32860465935462;-87.16760917134586;-80.76612334742761;-1.0767921966552734;9.677362927688472;2.819770913917478
1445509615864;107.80062808779371;-85.96955711633261;153.05119463410978;5.081244074337743;12.025326604815572;3.071760583849996
1445509615897;87.16112433473465;-78.86533110988069;125.68697520853145;2.7480945930480956;13.337648828180134;-5.647922008569538
1445509615931;73.96724224700802;-72.78553471533601;113.61477421574304;-0.7420528770446777;10.877007487432659;3.2698809173583983
1445509615965;73.96724224700802;-72.78553471533601;113.61477421574304;-0.7420528770446777;10.877007487432659;3.2698809173583983
1445509616000;77.67938009808243;-66.51554097686767;117.73497425789564;1.2098201725281774;10.051606757354735;1.35990654296875
1445509616034;79.41460123776893;-59.54917231796728;122.54306113997092;3.4748845075745134;10.148721562194824;3.021631986590475
1445509616069;79.41460123776893;-59.54917231796728;122.54306113997092;3.4748845075745134;10.148721562194824;3.021631986590475
1445509616104;81.76976180876419;-51.32598152685624;129.54070919127645;0.40671500701904295;8.873958888830616;1.5074493664063513
1445509616137;83.92055288427164;-43.20060535831168;138.92229672229303;2.377142973327637;5.854720957769826;1.8754080879211426
1445509616174;83.92055288427164;-43.20060535831168;138.92229672229303;2.377142973327637;5.854720957769826;1.8754080879211426
1445509616209;86.38901358290249;-37.001608442289665;146.59146127597734;2.4287679466247556;2.426523382568359;1.589001714324951
1445509616244;87.70679151963454;-34.13465998660678;151.38394872753088;3.5850176195449195;1.938255881500244;2.6783634696960448
1445509616279;87.70679151963454;-34.13465998660678;151.38394872753088;3.5850176195449195;1.938255881500244;2.6783634696960448
1445509616313;86.77692806393196;-36.09474432412958;152.55855874159482;2.9667152052063495;1.0856208152770996;3.349787690027058
1445509616348;83.50488484513272;-41.738625973519945;148.4420082075255;5.7629931797303255;11.308114008386433;12.160150231933594
1445509616383;79.40644567728634;-46.31969275411589;143.81406526456584;3.2564135330200195;21.205593157085776;10.442011265563965
1445509616418;79.40644567728634;-46.31969275411589;143.81406526456584;3.2564135330200195;21.205593157085776;10.442011265563965
1445509616454;77.23049250928152;-50.470007177865014;140.42163592255696;-1.7087117973327637;5.368248888751119;3.3725323135375973
1445509616488;82.64546557362343;-62.42793809865483;136.8683627900061;4.022109297589212;13.173944997406005;0.8937855533875525
1445509616524;82.64546557362343;-62.42793809865483;136.8683627900061;4.022109297589212;13.173944997406005;0.8937855533875525
1445509616557;82.64546557362343;-62.42793809865483;136.8683627900061;4.022109297589212;13.173944997406005;0.8937855533875525
1445509616591;83.36431535319204;-72.5395551112824;130.1429309435661;3.960757733917236;9.454851774365082;0.9431658164978027
1445509616625;83.36431535319204;-72.5395551112824;130.1429309435661;3.960757733917236;9.454851774365082;0.9431658164978027
1445509616662;83.36431535319204;-72.5395551112824;130.1429309435661;3.960757733917236;9.454851774365082;0.9431658164978027
1445509616698;70.6926218518071;-79.20480361134287;112.16479384392551;-0.42272623062133785;8.729708238806202;1.5282488471984863
1445509616731;70.6926218518071;-79.20480361134287;112.16479384392551;-0.42272623062133785;8.729708238806202;1.5282488471984863
1445509616764;70.6926218518071;-79.20480361134287;112.16479384392551;-0.42272623062133785;8.729708238806202;1.5282488471984863
1445509616799;48.51544682564711;-83.15088654487737;83.60461704654166;1.2508207389610353;9.45964046994634;-0.41464580001831053
1445509616833;40.149829600793446;-84.1131903290707;71.43294446096579;1.2639888754913582;10.323199227374419;-1.3564648780822752
1445509616867;40.149829600793446;-84.1131903290707;71.43294446096579;1.2639888754913582;10.323199227374419;-1.3564648780822752
1445509616904;33.71389010060476;-85.47954733081698;59.00357087178424;0.6739677958750923;9.328856838934122;-0.052073886108398436
1445509616939;15.809903526459523;-86.85849593188681;36.437499337045104;-0.492307752902247;13.099874383544922;-0.3369838928001467
1445509616975;15.809903526459523;-86.85849593188681;36.437499337045104;-0.492307752902247;13.099874383544922;-0.3369838928001467
1445509617011;31.977237470666186;-87.21009404132897;49.61930410131489;1.0527005789825692;12.642431936590373;1.801038198852539
1445509617044;74.92818872803913;-85.75038333117676;86.94695550540389;-0.7448960645813495;9.4960022797958;0.24899697265624998
1445509617081;74.92818872803913;-85.75038333117676;86.94695550540389;-0.7448960645813495;9.4960022797958;0.24899697265624998
1445509617114;99.20116488995212;-82.5660196108852;103.78801886165523;-0.9581295768737792;10.398317158331349;0.10579378585815429
1445509617148;107.95472981977065;-80.38657304825175;108.03518646332802;-2.9010240779601038;10.390386073071136;1.9155110022613777
1445509617181;120.33569502856626;-79.42238002401979;116.59990048530359;-1.9390042156495153;9.478045876942481;1.4429554130554199
1445509617217;120.33569502856626;-79.42238002401979;116.59990048530359;-1.9390042156495153;9.478045876942481;1.4429554130554199
1445509617252;134.84183288712939;-78.30422821266664;126.41641060626169;-0.303913973236084;8.925284733050688;0.5744587608337401
1445509617286;143.5352844695389;-76.92256196437727;128.42059946450254;0.14544775085449219;9.043498038162104;1.7744027053833007
1445509617322;143.5352844695389;-76.92256196437727;128.42059946450254;0.14544775085449219;9.043498038162104;1.7744027053833007
1445509617357;147.83665891630739;-75.40926321547488;126.11671943090913;0.5002385093688965;7.781454524584859;1.1246762663910164
1445509617392;150.77128912269123;-74.70513520690496;122.67048051349008;1.7465701476166025;7.1838022274293;2.26267013338618
1445509617427;150.77128912269123;-74.70513520690496;122.67048051349008;1.7465701476166025;7.1838022274293;2.26267013338618
1445509617461;155.19354965619178;-74.2584232442835;121.37749811463804;2.6013001402923837;6.581660656030476;2.393603182806447
1445509617494;159.4479329266217;-73.73721511129682;121.32682549212497;2.067393115278613;6.353163742828369;2.59202257232666
1445509617531;159.4479329266217;-73.73721511129682;121.32682549212497;2.067393115278613;6.353163742828369;2.59202257232666
1445509617566;163.47917459359368;-73.20786085544421;123.14819083027102;2.056319914334081;5.132120896148681;1.854608442732226
1445509617601;165.43023533234134;-73.07399880814218;125.02398612291505;1.4939819090027362;5.19077883682251;1.8335096136673352
1445509617634;166.6315877292659;-74.16296635467859;128.05962256772838;0.3941454483032226;7.052569902801514;3.190124074554443
1445509617671;166.6315877292659;-74.16296635467859;128.05962256772838;0.3941454483032226;7.052569902801514;3.190124074554443
1445509617707;170.60352774030858;-76.63832451360133;131.6319417094082;-0.7745240909300745;8.616881339440868;4.952106712695211
1445509617742;163.2630374115353;-79.05640383484308;124.11046972136603;3.2501287536621093;15.8967508354187;4.137330252484232
1445509617778;163.2630374115353;-79.05640383484308;124.11046972136603;3.2501287536621093;15.8967508354187;4.137330252484232
1445509617814;157.41521936611755;-77.98463925918941;110.9133658322371;-1.3645453086853025;14.467412444305419;-3.757549794946238
1445509617848;151.5061708401391;-77.0822707807587;97.47063788702297;-5.844994294329732;20.234744383892416;5.761496474899165
1445509617884;160.01197613378184;-77.10241102904209;95.46838511929066;0.5684732566833496;8.896703877667337;-5.325153459797706
1445509617916;160.01197613378184;-77.10241102904209;95.46838511929066;0.5684732566833496;8.896703877667337;-5.325153459797706
1445509617952;149.03138123466408;-77.66266715137826;78.18104879161781;1.0242693246703594;10.983549461309611;-2.703203384985402
1445509617985;137.5819492978212;-78.2931179157419;59.69464432795723;5.0288709495544435;11.584045603588967;0.8765770097594707
1445509618020;137.5819492978212;-78.2931179157419;59.69464432795723;5.0288709495544435;11.584045603588967;0.8765770097594707
1445509618056;135.43310541895337;-78.4259613962822;49.37064405985416;2.0956746041228995;9.280374291848577;-0.9270049918243661
1445509618090;132.07887244030948;-78.51513561979957;37.39960661406751;3.093757457733154;9.00414327530805;0.020949264526367185
1445509618124;132.07887244030948;-78.51513561979957;37.39960661406751;3.093757457733154;9.00414327530805;0.020949264526367185
1445509618158;133.0165904643673;-79.03887563198293;30.21455055500126;4.198980652972311;8.788515963214262;1.5716438984192906
1445509618191;139.99799144765163;-80.14024710227653;32.87428023695459;3.277063522338867;8.267178332519531;1.4757260482788086
1445509618227;139.99799144765163;-80.14024710227653;32.87428023695459;3.277063522338867;8.267178332519531;1.4757260482788086
1445509618261;146.0984339614171;-81.06014144671046;35.28391319875015;-1.618929162011668;7.240065528051555;-0.07646474245600401
1445509618297;141.99340538401233;-81.97661635182327;27.606739554513698;-1.0465654006958007;7.5351511749267575;-0.31498715591430665
1445509618332;139.22159648751327;-82.04478778950299;18.728947111311836;4.584447412518411;8.819191233593598;3.071760729980469
1445509618365;139.22159648751327;-82.04478778950299;18.728947111311836;4.584447412518411;8.819191233593598;3.071760729980469
1445509618402;139.22159648751327;-82.04478778950299;18.728947111311836;4.584447412518411;8.819191233593598;3.071760729980469
1445509618435;181.89741833665985;-85.0092762077908;61.41505095315804;0.5576993309463374;7.866149408312887;0.0805050308227539
1445509618471;181.89741833665985;-85.0092762077908;61.41505095315804;0.5576993309463374;7.866149408312887;0.0805050308227539
1445509618506;208.66583340103355;-85.2183272196797;89.28527931790039;0.578349320265185;6.3715691680908195;0.873434664604644
1445509618540;236.40833063775838;-82.8918273221443;115.80704426941874;5.746383113452047;14.130877181188762;2.3520037828307596
1445509618574;236.40833063775838;-82.8918273221443;115.80704426941874;5.746383113452047;14.130877181188762;2.3520037828307596
1445509618610;244.47088431804687;-75.30177695417635;122.32282934899561;3.5562872909545895;15.255553703308104;3.6330513816833494
1445509618644;241.71459118611014;-66.62562278093503;123.61457396362717;5.433490883990377;21.888390127563476;-1.412279704284668
1445509618678;241.71459118611014;-66.62562278093503;123.61457396362717;5.433490883990377;21.888390127563476;-1.412279704284668
1445509618714;239.8117331782626;-61.53354853568244;123.81623189999641;1.7307083789549766;10.298358873693644;4.943278240203857
1445509618750;239.8648161778439;-58.51994334988836;126.92165240284342;2.282422370147705;7.644835757678374;2.06604646817632
1445509618783;240.29782512333514;-57.74513104128129;130.37148153911986;-0.2561795776367187;4.807108313043416;2.4404396797180175
1445509618818;240.29782512333514;-57.74513104128129;130.37148153911986;-0.2561795776367187;4.807108313043416;2.4404396797180175
1445509618855;241.28427186825118;-59.55693305594261;134.73838497060186;-0.2677016731262207;1.831713907623291;-0.22565350646972654
1445509618889;242.44011219343025;-64.29275185558878;135.63292183339138;-1.2587515228271484;2.9426234779357907;1.1979986557006834
1445509618926;242.44011219343025;-64.29275185558878;135.63292183339138;-1.2587515228271484;2.9426234779357907;1.1979986557006834
1445509618961;244.29137828794066;-70.5322125278384;133.99413251865533;2.7361236212799325;7.987954563903808;3.610905016326904
1445509618994;249.32127451219404;-75.91713648559885;135.7850958710626;5.721393779754639;10.481964505767822;2.6464905870299784
1445509619031;249.32127451219404;-75.91713648559885;135.7850958710626;5.721393779754639;10.481964505767822;2.6464905870299784
1445509619064;250.7860327695258;-79.390517001452;134.44799462850827;2.9779379524230953;5.389048954065144;2.394949921240285
1445509619098;249.21200172207455;-81.79100833060717;131.74998416627557;3.0337528516907244;5.8469397293090815;2.9427731155395507
1445509619133;245.81423811424315;-83.5497981108897;129.21953354763147;3.0728082662720233;14.027627526855468;4.022109224523976
1445509619170;245.81423811424315;-83.5497981108897;129.21953354763147;3.0728082662720233;14.027627526855468;4.022109224523976
1445509619205;246.30277986456645;-83.59406948847605;128.00859685913827;-5.8164135850768535;8.792555740124358;-12.409745828070118
1445509619239;212.51759441141823;-85.59178153812468;88.09854363661027;4.769997895050048;38.48409879466593;10.419416341305977
1445509619277;212.51759441141823;-85.59178153812468;88.09854363661027;4.769997895050048;38.48409879466593;10.419416341305977
1445509619313;230.2914933978082;-84.30505527349263;101.29241172180149;-1.1531073745727538;7.910891051837057;-5.959317587998974
1445509619347;211.2063768824878;-85.24633901965025;83.86349877789196;-2.4329579456605015;12.857012552642821;0.24361000065458938
1445509619382;165.1509932022408;-85.18871991965429;35.24563002956526;1.2012906829833985;10.587907783099263;0.4783914192199707
1445509619417;165.1509932022408;-85.18871991965429;35.24563002956526;1.2012906829833985;10.587907783099263;0.4783914192199707
1445509619450;144.31621392023231;-84.2298912444899;11.468358988097066;-0.14050969166411087;7.418284352520853;2.152237654876709
1445509619483;129.67814277881698;-84.72256910552454;-4.214575737230042;4.014627353469143;5.299714720098674;0.7552209131103008
1445509619520;129.67814277881698;-84.72256910552454;-4.214575737230042;4.014627353469143;5.299714720098674;0.7552209131103008
1445509619556;135.91421340917904;-85.218321236193;1.2704920392315475;6.189759453264886;5.163993705749512;0.32501287536621093
1445509619590;172.89258764217186;-86.62226155504418;34.84162145266871;3.0048726480346173;5.212326944024861;3.998765575674362
1445509619626;172.89258764217186;-86.62226155504418;34.84162145266871;3.0048726480346173;5.212326944024861;3.998765575674362
1445509619661;237.31237957214353;-85.247913777607;100.43346696202201;2.1945850236754865;6.4475850708007805;0.7682394759689457
1445509619698;263.00008496829406;-79.04704610287376;125.71314179410284;5.162946242523193;17.68357346191406;6.285228051525727
1445509619733;262.2562858122979;-69.20858773242514;127.29137352417047;3.4036568620543926;20.619761938366292;1.0262146865844726
1445509619767;262.2562858122979;-69.20858773242514;127.29137352417047;3.4036568620543926;20.619761938366292;1.0262146865844726
1445509619802;257.89338035056875;-60.586514667237815;124.70745879361175;2.1972785736083984;16.907403211212156;7.892486064966023
1445509619835;256.1472642984389;-56.87661840378767;125.64396525532383;2.0272901096068323;7.469610050610452;1.823334201812744
1445509619873;256.1472642984389;-56.87661840378767;125.64396525532383;2.0272901096068323;7.469610050610452;1.823334201812744
1445509619906;255.57630554394171;-56.37469840606873;127.15874411411339;0.8904933799743652;6.329371217700094;1.815104133605957
1445509619940;255.34704247194674;-58.57191370678867;128.8621679274844;-1.6431702346250414;3.39003991317749;0.6637924102783203
1445509619975;255.34704247194674;-58.57191370678867;128.8621679274844;-1.6431702346250414;3.39003991317749;0.6637924102783203
1445509620009;255.89921059987032;-63.90739946741114;128.8298345981127;-0.5556044227600098;2.2719477378845214;0.14170681076049804
1445509620047;258.0714559580676;-70.58707944268365;129.58733671707537;2.0518306766234335;6.561758562469482;2.4366987761566414
1445509620081;268.0265210990834;-80.32811886021504;139.39212637671056;6.220585118158161;7.005882678167522;2.485480598449707
1445509620117;268.0265210990834;-80.32811886021504;139.39212637671056;6.220585118158161;7.005882678167522;2.485480598449707
1445509620153;259.9947229936081;-81.92727578243402;130.35200564665595;1.8254291282653807;4.6173675392150875;3.18817871264033
1445509620186;257.6584762311349;-82.36745134936358;126.44791781675667;2.3470657419066874;10.61693762435913;2.5836428665161133
1445509620220;257.6584762311349;-82.36745134936358;126.44791781675667;2.3470657419066874;10.61693762435913;2.5836428665161133
1445509620254;269.927894482212;-82.32358948847465;140.8577493787683;-2.042852493463084;8.427739335223286;-13.584101961572468
1445509620288;263.42797487349975;-83.95583576947611;133.14735061368654;1.7143980262756346;17.292121490478515;-0.5852325952392071
1445509620322;263.42797487349975;-83.95583576947611;133.14735061368654;1.7143980262756346;17.292121490478515;-0.5852325952392071
1445509620358;236.30934026218844;-85.21033789940174;98.75390058860879;6.863577755383401;10.768221241760253;5.434687866089446
1445509620393;243.2832467706952;-84.48400998857944;107.12123094817979;-3.1450830827575174;9.264962093585357;-3.12533088252861
1445509620428;243.2832467706952;-84.48400998857944;107.12123094817979;-3.1450830827575174;9.264962093585357;-3.12533088252861
1445509620464;215.6783418927522;-86.81556341055087;78.49982178889857;-0.92446115256045;10.41492678621821;-1.0167875175476073
1445509620498;159.3655296989987;-86.8989638268687;21.69296593010058;2.0150199722290036;7.434893980407715;1.0934020072052255
1445509620532;128.8190562269883;-86.90025259479334;-9.91238820843811;1.1876737067070324;5.549759155981242;1.7745523429870604
1445509620566;128.8190562269883;-86.90025259479334;-9.91238820843811;1.1876737067070324;5.549759155981242;1.7745523429870604
1445509620599;115.18855310381902;-87.65049236590951;-23.357280566894726;6.3741127333601;6.439055727386474;0.7181108239104971
1445509620632;244.29561104080673;-88.70349641361823;104.3490523772101;3.5423709938049313;6.327575712585449;1.397465508447215
1445509620666;244.29561104080673;-88.70349641361823;104.3490523772101;3.5423709938049313;6.327575712585449;1.397465508447215
1445509620699;274.8046257430782;-85.18583774947314;134.79535207846166;1.0830769760131835;7.194276421301066;2.1933879959106446
1445509620735;283.1324168343482;-80.18977018312586;143.1820525875751;6.107309013720601;8.232612046051026;3.9638999774657186
1445509620766;283.1324168343482;-80.18977018312586;143.1820525875751;6.107309013720601;8.232612046051026;3.9638999774657186
1445509620802;275.46183643583504;-70.02238188452144;139.26194708143677;5.619340787860006;21.58657108078003;2.5884312150374984
1445509620835;266.19775246780983;-60.89858341855371;133.48848729163214;4.412364022064208;20.938939531707764;2.0049942527770996
1445509620872;266.19775246780983;-60.89858341855371;133.48848729163214;4.412364022064208;20.938939531707764;2.0049942527770996
1445509620907;259.3824606202228;-55.919532679009706;130.88484428699203;-1.306934538976848;9.0499327108521;1.2840404239930212
1445509620941;255.42528835393486;-54.252309325921196;127.68911145838143;5.090222476693802;8.304886972134373;3.032256292990036
1445509620977;255.42528835393486;-54.252309325921196;127.68911145838143;5.090222476693802;8.304886972134373;3.032256292990036
1445509621012;252.49574210636567;-54.50437755030661;128.408982832595;0.4025251541137695;5.911583028002828;2.23453833694458
1445509621048;250.19364517691872;-57.65601830795655;129.22359027224584;-1.3407529296874998;3.5932474868223068;1.4930838641844688
1445509621081;249.27488650563313;-63.68065906025305;128.58781752100938;-1.3916297149658203;2.3933038345336914;0.001945288848876953
1445509621116;249.27488650563313;-63.68065906025305;128.58781752100938;-1.3916297149658203;2.3933038345336914;0.001945288848876953
1445509621153;248.42492960092042;-71.33629057459186;125.40501853258323;1.8525135345458983;8.97466477696523;3.6734535346984862
1445509621186;247.2542614653922;-77.89144912846433;121.99579606329316;5.256020832061767;10.087819349725544;3.4626142240662126
1445509621221;247.2542614653922;-77.89144912846433;121.99579606329316;5.256020832061767;10.087819349725544;3.4626142240662126
1445509621257;241.07011287558814;-81.2646137653808;116.16407969706647;5.108328517150879;5.522974317169189;2.9894600479125977
1445509621292;233.7793983978818;-82.81999811478634;107.6754272235605;4.579509225463867;5.2106809303835036;1.2042834350585936
1445509621326;233.7793983978818;-82.81999811478634;107.6754272235605;4.579509225463867;5.2106809303835036;1.2042834350585936
1445509621362;229.15062429714123;-82.94610920694505;100.6951440804524;0.019303250885009764;20.67228590632975;8.401253899482917
1445509621397;216.94212140789497;-83.17697672029026;89.84258583747891;0.38666356811523434;12.849530672454833;-1.8115128633671744
1445509621432;189.1356766706211;-83.96776737972215;55.63961752448623;14.963161752496287;29.27240673817098;12.351088070059381
1445509621467;189.1356766706211;-83.96776737972215;55.63961752448623;14.963161752496287;29.27240673817098;12.351088070059381
1445509621500;219.45475389672558;-83.9003764722325;88.3352367475179;-2.125003464861959;5.625775350952148;-7.9280996936465495
1445509621533;185.44336091361995;-84.55559716418115;54.685671289333435;-2.175880396270752;14.64189018255025;-2.2916999015808104
1445509621571;185.44336091361995;-84.55559716418115;54.685671289333435;-2.175880396270752;14.64189018255025;-2.2916999015808104
1445509621606;154.97404835113477;-83.26968539886491;21.68747036399739;1.045069024658203;9.591471399788093;1.6674118186950682
1445509621639;133.83037375115435;-82.49545209874445;0.43308614056480765;1.568501384301105;7.921216338757425;0.9178770614624023
1445509621675;133.83037375115435;-82.49545209874445;0.43308614056480765;1.568501384301105;7.921216338757425;0.9178770614624023
1445509621710;124.36201635030088;-81.49539174560627;-9.066803099950006;3.6517559542891567;7.00693014139384;0.8370727554321289
1445509621744;122.83543535850572;-82.82033445262785;-11.938931678568819;3.9320274601258336;6.3898249557495115;2.620304152502492
1445509621780;122.83543535850572;-82.82033445262785;-11.938931678568819;3.9320274601258336;6.3898249557495115;2.620304152502492
1445509621814;185.9916722181134;-88.5235364460534;53.52389898578352;3.157503022135887;7.104045238494873;0.8426093193717766
1445509621850;185.9916722181134;-88.5235364460534;53.52389898578352;3.157503022135887;7.104045238494873;0.8426093193717766
1445509621884;268.0187068294299;-77.7176395147129;138.9735662954793;1.443853266077442;17.896657409667966;1.8920178619384764
1445509621919;268.0187068294299;-77.7176395147129;138.9735662954793;1.443853266077442;17.896657409667966;1.8920178619384764
1445509621955;260.11276874881054;-69.69749595959719;134.88797692226646;7.09132589604482;24.08192834559977;-2.06350270197764
1445509621988;250.29860808545158;-64.8748850182229;124.36890804853724;-0.2645592834472656;10.923844203539938;4.180126461029053
1445509622024;250.29860808545158;-64.8748850182229;124.36890804853724;-0.2645592834472656;10.923844203539938;4.180126461029053
1445509622058;246.89483215446532;-62.12242739669059;122.90658700016297;3.2110734121460465;7.871087741497903;3.2872390255250035
1445509622094;245.3563288312421;-61.24586768033888;125.13634519455343;0.9045593147277832;6.929717430114746;2.0949263065062462
1445509622128;245.3563288312421;-61.24586768033888;125.13634519455343;0.9045593147277832;6.929717430114746;2.0949263065062462
1445509622163;244.24004898648715;-62.424759292174976;127.17480860383021;-1.3292305419370531;3.8130651267454025;1.1225813034057617
1445509622197;243.5581434581965;-66.39274814374566;126.95313640338303;-1.1768997535705565;3.2713772933959957;-0.15233093449696897
1445509622231;244.45434629148716;-71.66353379705934;126.41457864293874;0.4236240562438965;6.2548515448972575;1.9000982742751948
1445509622266;244.45434629148716;-71.66353379705934;126.41457864293874;0.4236240562438965;6.2548515448972575;1.9000982742751948
1445509622301;246.95160875009833;-77.45926995962286;128.29949933275807;4.6200611622132355;7.974187612096965;4.882226244000345
1445509622334;249.5572142958083;-80.29655200590184;130.9692595205299;8.585607153320312;8.534880078710987;4.211400720214844
1445509622369;249.5572142958083;-80.29655200590184;130.9692595205299;8.585607153320312;8.534880078710987;4.211400720214844
1445509622403;239.0089582258755;-79.18217480196179;117.5663252230988;6.574328267315774;7.472453311212361;5.921459109850972
1445509622436;233.91009804028323;-78.2426470946389;110.38419815674926;3.152415398406982;8.973318330792337;5.9489925020080054
1445509622470;233.91009804028323;-78.2426470946389;110.38419815674926;3.152415398406982;8.973318330792337;5.9489925020080054
1445509622506;247.12204077626757;-78.0074490690188;126.37435828316359;-2.0600607448302206;10.392930131530761;-16.61456271291524
1445509622540;234.14050510919145;-81.31826953717822;110.84340140081132;-2.237231959942728;19.800945555114744;-3.658489664724655
1445509622577;234.14050510919145;-81.31826953717822;110.84340140081132;-2.237231959942728;19.800945555114744;-3.658489664724655
1445509622612;207.71376568821964;-84.01387006741146;78.596228895526;3.778199857330322;12.915670785577595;4.391863670349121
1445509622645;193.15149816611316;-86.00723076636267;66.2261282580192;-4.112639974798634;11.242123532867431;-5.070021327120997
1445509622681;193.15149816611316;-86.00723076636267;66.2261282580192;-4.112639974798634;11.242123532867431;-5.070021327120997
1445509622716;150.20676254590006;-85.47564347046678;18.234568261781867;-0.2784755805969238;10.308534303814545;1.4429554130554199
1445509622749;125.41978906177319;-85.17205169066865;-8.30787509960738;1.184232014421094;7.5789948466978965;-1.025316842695605
1445509622784;104.02338549586041;-83.95610859681275;-32.365540174925194;2.4812907820770516;7.130830077306926;-0.41674072647094723
1445509622819;104.02338549586041;-83.95610859681275;-32.365540174925194;2.4812907820770516;7.130830077306926;-0.41674072647094723
1445509622857;93.84066665417122;-81.64859741146563;-44.16315406435746;1.6662147909302263;8.407238837377726;0.8002619779724627
1445509622892;86.48700599241393;-79.37417908670673;-51.908915279353494;4.030339073535055;7.304260206194966;-0.8207622200896963
1445509622925;86.48700599241393;-79.37417908670673;-51.908915279353494;4.030339073535055;7.304260206194966;-0.8207622200896963
1445509622959;83.35568825775891;-77.45102442943394;-53.91364849435724;4.042011098889262;11.077073255920409;-0.9920972581283188
1445509622992;79.97738076778676;-77.32350868204804;-58.095763427424615;2.3734020332336425;12.055254563958941;0.7396586023192853
1445509623029;79.97738076778676;-77.32350868204804;-58.095763427424615;2.3734020332336425;12.055254563958941;0.7396586023192853
1445509623062;72.06384113131396;-81.72628472773778;-66.16295196849114;6.989721816961467;15.241936681365965;0.6961141326904297
1445509623098;335.2923066030938;-88.149230413312;-160.26385781717002;-5.336974611299019;13.436110079193114;1.2559084083557128
1445509623134;284.69136224590795;-80.93495940332865;149.1722022803263;-5.149778352588043;15.05384221343994;-0.7894879974365234
1445509623165;284.69136224590795;-80.93495940332865;149.1722022803263;-5.149778352588043;15.05384221343994;-0.7894879974365234
1445509623202;277.2764908270645;-74.59717405788936;141.17966713669225;5.4017677119933065;9.697564150326512;0.871339693627879
1445509623235;263.9371039964646;-68.53311099529667;129.93831824948398;1.2756604259215294;9.316885940231195;-0.9862613002501428
1445509623269;263.9371039964646;-68.53311099529667;129.93831824948398;1.2756604259215294;9.316885940231195;-0.9862613002501428
1445509623303;260.1825702591986;-64.28780049591754;131.3483863951438;-0.07676409072875977;5.872078554479778;-0.7624035911560059
1445509623337;256.25251229617675;-62.97204616651281;132.47780097102483;-0.22505495605468748;5.240159246063232;0.01780687484741211
1445509623371;256.25251229617675;-62.97204616651281;132.47780097102483;-0.22505495605468748;5.240159246063232;0.01780687484741211
1445509623405;250.7406231228113;-63.66637834536276;130.44277417059217;1.2572551467895507;5.850680669403076;1.5719428813658654
1445509623439;245.1406249121639;-65.97056590162516;128.6965375697224;0.9280524185180663;5.858910737609863;3.019088366522267
1445509623474;245.1406249121639;-65.97056590162516;128.6965375697224;0.9280524185180663;5.858910737609863;3.019088366522267
1445509623510;241.69752062934708;-69.3431689754617;126.66680713965704;1.9147627777099607;5.629815273992717;0.6798036338806152
1445509623544;235.915381623759;-73.24507860028838;118.74248412074328;1.9750666224272921;7.113621899005025;1.1037270018646492
1445509623581;235.915381623759;-73.24507860028838;118.74248412074328;1.9750666224272921;7.113621899005025;1.1037270018646492
1445509623614;235.915381623759;-73.24507860028838;118.74248412074328;1.9750666224272921;7.113621899005025;1.1037270018646492
1445509623648;233.81334726778576;-78.35485037166825;112.9399588438574;4.340089205578714;9.605237740922256;-0.48632221221923827
1445509623683;230.93342652696856;-79.59956072553867;111.81162735077375;1.4564228521927258;14.16679049835205;-4.827159167425334
1445509623717;230.93342652696856;-79.59956072553867;111.81162735077375;1.4564228521927258;14.16679049835205;-4.827159167425334
1445509623753;219.9318186546136;-80.84776757472171;99.42286511681881;-2.5062802253723144;14.48611714477539;-8.106916696354839
1445509623787;192.84599015876682;-83.3165362020463;66.0892958954272;4.590881610284373;14.039598827417194;2.4624364805359393
1445509623824;192.84599015876682;-83.3165362020463;66.0892958954272;4.590881610284373;14.039598827417194;2.4624364805359393
1445509623859;194.58958707247882;-84.08120932306451;69.73734728265643;1.041627350638574;6.963386183221638;-5.93702138410937
1445509623892;173.5955583117079;-83.77894518956617;43.58619009429265;-3.686771208367869;10.88239444116801;1.244386312866211
1445509623927;173.5955583117079;-83.77894518956617;43.58619009429265;-3.686771208367869;10.88239444116801;1.244386312866211
1445509623962;152.8196928290854;-83.75055508395454;20.221393860958205;0.7612064903259277;8.692747896808013;0.3543419187683612
1445509623998;140.49662882949215;-83.59213118803225;5.729909533856319;4.681861446900246;8.285434120178222;0.7897873457092791
1445509624031;145.73627770770827;-83.92377398350466;8.603500754375933;4.394706821353174;6.5571197967529296;0.7149685438293963
1445509624068;145.73627770770827;-83.92377398350466;8.603500754375933;4.394706821353174;6.5571197967529296;0.7149685438293963
1445509624104;170.06695853090406;-85.3732874102401;30.932473296813736;2.5716718216827137;4.605845443725586;-0.49844289465639735
1445509624137;209.36694087206953;-85.42776483855363;67.74845926800559;1.7348983779907226;7.217770109613239;0.5310638557434082
1445509624171;209.36694087206953;-85.42776483855363;67.74845926800559;1.7348983779907226;7.217770109613239;0.5310638557434082
1445509624205;240.63331326398534;-84.4145346619509;97.16886193082378;3.0021792442321775;7.586626656750589;3.207631610262254
1445509624239;268.85740905973057;-80.98335067178377;125.52612307527535;5.308992689923197;9.0960208736144;0.9063550002222298
1445509624275;268.85740905973057;-80.98335067178377;125.52612307527535;5.308992689923197;9.0960208736144;0.9063550002222298
1445509624310;272.29337708496115;-72.2709816566829;129.31447273076145;9.850045051220803;21.369596555328368;7.331195267132669
1445509624344;266.39619308099554;-60.3631555996405;129.30270202539032;3.6218284700698216;22.15354796142578;0.1945288848876953
1445509624377;266.39619308099554;-60.3631555996405;129.30270202539032;3.6218284700698216;22.15354796142578;0.1945288848876953
1445509624413;262.2946607632857;-53.38987957707563;130.61774254753658;-1.7506106186464427;8.528744790826364;1.553238327026367
1445509624447;260.5015998290618;-51.08639959247469;129.96791297719858;4.1006688934326165;7.196221892813034;1.9580078990660608
1445509624482;259.2022175160692;-51.09797490903841;131.74814088900132;0.9699509475708007;5.776011505126953;2.098966814068705
1445509624517;259.2022175160692;-51.09797490903841;131.74814088900132;0.9699509475708007;5.776011505126953;2.098966814068705
1445509624554;257.5828045980915;-54.483628311655195;132.65822487050463;-1.0892124100282787;3.9246947791501876;2.252644633129984
1445509624587;257.02269311153174;-60.32452958055121;132.73195534715558;0.5147533569335937;2.746298941802978;1.394323191833496
1445509624622;257.02269311153174;-60.32452958055121;132.73195534715558;0.5147533569335937;2.746298941802978;1.394323191833496
1445509624658;257.4673002116594;-67.40381103725582;132.58241485430915;2.3901613717895;8.535328881924412;2.993051350402832
1445509624692;257.6114563479283;-74.01211466315485;129.25672674686675;3.2811036645751446;9.451560235706134;2.1359271925995125
1445509624727;257.6114563479283;-74.01211466315485;129.25672674686675;3.2811036645751446;9.451560235706134;2.1359271925995125
1445509624764;255.8471793462881;-77.98399336473871;125.16290619712542;4.458751679229736;6.972962405340373;3.5480572227478024
1445509624797;250.2981881677075;-80.37416287375531;117.73905932342355;3.510797459411621;6.102820031738281;1.0438718872955068
1445509624833;245.1611330399672;-81.58828997822718;110.012558101088;3.370287749481201;8.404695144244283;3.334973165396042
1445509624869;245.1611330399672;-81.58828997822718;110.012558101088;3.370287749481201;8.404695144244283;3.334973165396042
1445509624903;246.43680528531428;-82.10638669539455;108.85848684099732;0.6367080039978027;15.447239473724364;6.870610868890583
1445509624936;240.51593974535433;-82.54322635528274;105.13566368199628;0.33369192944951354;14.48656605758667;-4.6671968247344715
1445509624970;240.51593974535433;-82.54322635528274;105.13566368199628;0.33369192944951354;14.48656605758667;-4.6671968247344715
1445509625006;210.4216434633972;-83.92738403354826;68.3632422730196;12.227038679205625;25.207203125873207;12.485462711300887
1445509625039;232.24929953708826;-83.01552113136745;91.41638443185192;0.016609774017333982;6.249464591161907;-6.914304916757694
1445509625075;232.24929953708826;-83.01552113136745;91.41638443185192;0.016609774017333982;6.249464591161907;-6.914304916757694
1445509625111;208.5843854491167;-83.08529125938908;66.13435605730146;-3.4142810588560994;12.68866995615214;1.3630489691803231
1445509625144;183.03616180670184;-83.29317775060714;39.4129045781963;0.5770026000976562;10.250624587692133;1.3313257606506348
1445509625181;183.03616180670184;-83.29317775060714;39.4129045781963;0.5770026000976562;10.250624587692133;1.3313257606506348
1445509625215;165.84626779912972;-84.25366132194365;21.170559652722265;3.022230537005514;7.2523361038208005;1.5680525959290563
1445509625251;174.97594288523285;-85.93760873761845;31.640974381977145;3.208978303030319;5.721094504547119;0.34281975021362304
1445509625285;174.97594288523285;-85.93760873761845;31.640974381977145;3.208978303030319;5.721094504547119;0.34281975021362304
1445509625319;174.97594288523285;-85.93760873761845;31.640974381977145;3.208978303030319;5.721094504547119;0.34281975021362304
1445509625355;208.2313502007399;-86.45862296168188;65.49597247585984;3.12488218891304;6.242731191253662;0.32456396255493164
1445509625388;268.90269904094555;-81.87071692980253;127.33845831506147;3.184737193884328;7.235875675146281;2.523488476739451
1445509625424;268.90269904094555;-81.87071692980253;127.33845831506147;3.184737193884328;7.235875675146281;2.523488476739451
1445509625460;276.85435204158466;-74.64675399476704;138.05444359212535;5.631461579895019;17.49951920928955;3.5513492500305173
1445509625494;268.7485983753472;-65.15908547242442;133.12763353807208;4.7213658199585975;19.193117608642577;-0.4128501487731933
1445509625528;268.7485983753472;-65.15908547242442;133.12763353807208;4.7213658199585975;19.193117608642577;-0.4128501487731933
1445509625561;262.08111462811195;-57.31936053370573;129.6449621447152;-0.24750059661865234;15.88403163909912;6.4469865203857415
1445509625597;257.8400261963532;-53.815928372176;126.24051703670283;5.906645133209228;10.212916386468708;2.9662661097319796
1445509625630;256.03634640271474;-51.995998278116524;128.02589620585073;1.8552070114135741;6.697629433618113;2.4848820480346676
1445509625665;256.03634640271474;-51.995998278116524;128.02589620585073;1.8552070114135741;6.697629433618113;2.4848820480346676
1445509625699;254.95339485364488;-52.72152875749774;130.83114780713262;-0.5231333550050854;5.68473285909444;1.8541594020567833
1445509625732;254.56591246428852;-56.46064761622918;132.2744056805979;-1.195903436987102;2.0048446151733397;-0.22685060729980466
1445509625768;254.56591246428852;-56.46064761622918;132.2744056805979;-1.195903436987102;2.0048446151733397;-0.22685060729980466
1445509625804;255.14563399424554;-62.716827384318776;131.56844925772978;-0.06958148574829101;4.241029258020222;1.618779451342672
1445509625839;255.9323038297384;-69.41019030479953;130.1903610129285;4.548983154296875;9.322273295825347;4.578162487030029
1445509625875;255.9323038297384;-69.41019030479953;130.1903610129285;4.548983154296875;9.322273295825347;4.578162487030029
1445509625911;254.7383915143499;-74.10497180543358;126.82730964119239;6.302885507965088;9.663895452018547;3.5633202583312986
1445509625945;250.63809240962757;-76.68990272312669;120.75855729982526;3.011606413269043;4.879532913263142;1.3052887810638174
1445509625979;250.63809240962757;-76.68990272312669;120.75855729982526;3.011606413269043;4.879532913263142;1.3052887810638174
1445509626014;249.0843273881066;-78.70215077121077;116.23352263874598;2.224961457238719;6.8713584723874925;2.1065981857299803
1445509626051;254.3380403894741;-80.18658430732918;119.23954901872487;4.764760578918457;19.273024089050292;14.11456660931371
1445509626084;255.842923032451;-80.2583460279626;124.81463955147935;0.35568851107172667;10.023624781179986;-3.420416419805959
1445509626120;255.842923032451;-80.2583460279626;124.81463955147935;0.35568851107172667;10.023624781179986;-3.420416419805959
1445509626156;231.42234789281324;-82.61588431184072;95.1570478355302;4.034379288836568;30.683639563751218;7.516596029862156
1445509626190;235.70038670036195;-82.03952760971157;96.54024787177967;0.1723825925964862;8.646509584985301;-3.8597524061783215
1445509626225;235.70038670036195;-82.03952760971157;96.54024787177967;0.1723825925964862;8.646509584985301;-3.8597524061783215
1445509626259;229.9266274715971;-82.63908621673733;90.56605329480301;-2.7638066875733434;12.448053273828327;1.6707038117284536
1445509626293;218.86784296160553;-83.93012870607517;77.79721910058018;0.9831190430019283;10.301052862017974;0.8553285430908203
1445509626328;218.86784296160553;-83.93012870607517;77.79721910058018;0.9831190430019283;10.301052862017974;0.8553285430908203
1445509626365;208.34581519434764;-85.44270136685677;66.28930909751435;0.698508370883204;6.398803504236042;0.5764040862152353
1445509626399;196.30488134674468;-86.71603095621523;54.33125233881289;4.070741482278518;6.46703795928955;-0.06823472904814407
1445509626432;188.22430950703995;-87.01021704003429;46.515540971539394;3.7186440179686993;6.609493250329792;0.1666962905883789
1445509626468;188.22430950703995;-87.01021704003429;46.515540971539394;3.7186440179686993;6.609493250329792;0.1666962905883789
1445509626503;191.29856073333602;-87.08799752330381;49.425682927444356;3.8579568097321313;7.138761162567138;0.19048866958618163
1445509626537;211.51502664427497;-86.70845980235002;70.00925268920314;3.964798058816604;7.145794422204792;0.13871405868530273
1445509626574;211.51502664427497;-86.70845980235002;70.00925268920314;3.964798058816604;7.145794422204792;0.13871405868530273
1445509626610;245.33637530137568;-85.51477707317164;104.07949758735974;3.290979819488525;7.7070844893857835;4.783914100868161
1445509626643;272.63830063379106;-80.33855136033355;133.48293540134898;5.368099470343068;12.687472855322062;5.096956132330373
1445509626677;272.63830063379106;-80.33855136033355;133.48293540134898;5.368099470343068;12.687472855322062;5.096956132330373
1445509626712;271.3197713376485;-69.5626560425633;136.95714483079004;5.144241688183695;19.04961456211507;0.20186127360239625
1445509626748;261.1305043691805;-58.98454144976089;131.80265699099556;4.593425595678761;23.45539452961385;0.3284545402526855
1445509626782;253.86156066361048;-53.03783289853856;127.36984986261704;1.9864391899108886;9.775675308282672;4.729894944177195
1445509626819;253.86156066361048;-53.03783289853856;127.36984986261704;1.9864391899108886;9.775675308282672;4.729894944177195
1445509626854;248.9553934166617;-50.987663709161815;124.83640698712428;4.717923899343796;7.309048719113133;2.4932617538452146
1445509626888;246.13588890069707;-51.61708364692053;126.73888586599342;-0.9371803123474121;5.048772750854492;1.5723919403076172
1445509626926;246.13588890069707;-51.61708364692053;126.73888586599342;-0.9371803123474121;5.048772750854492;1.5723919403076172
1445509626962;241.94369485014172;-61.54367875741977;126.31297890997331;-0.612915625;4.932205057525635;1.363647483062744
1445509626997;241.94369485014172;-61.54367875741977;126.31297890997331;-0.612915625;4.932205057525635;1.363647483062744
1445509627034;241.76800997567778;-73.68068660395456;125.8125769090971;5.33727405090332;8.162731577356158;2.287659759344533
1445509627069;241.76800997567778;-73.68068660395456;125.8125769090971;5.33727405090332;8.162731577356158;2.287659759344533
1445509627103;241.76800997567778;-73.68068660395456;125.8125769090971;5.33727405090332;8.162731577356158;2.287659759344533
1445509627137;237.206543747791;-78.75040428915786;119.03316437024937;2.587982357025146;7.507169235284626;1.1649287270034663
1445509627174;237.206543747791;-78.75040428915786;119.03316437024937;2.587982357025146;7.507169235284626;1.1649287270034663
1445509627210;236.66966188366226;-80.51904258433235;115.94594580832315;4.072686515399068;17.215806312561035;8.691251374639943
1445509627244;242.8337725111662;-80.29103416610631;126.46738591381158;-0.650624301147461;8.143577379553019;-6.986130733666941
1445509627280;242.8337725111662;-80.29103416610631;126.46738591381158;-0.650624301147461;8.143577379553019;-6.986130733666941
1445509627316;215.16048308886232;-82.56756892331356;92.92615798491501;-0.15532383270263672;20.342334405517576;0.9139865020309574
1445509627350;199.09369989119776;-83.46288933277712;71.51574159755937;5.788581209973246;10.126874472045898;1.8555062135558573
1445509627384;212.00719281838764;-83.36325256362261;84.77367809377972;-1.686266229834035;10.195408348437399;-4.355800980443553
1445509627418;212.00719281838764;-83.36325256362261;84.77367809377972;-1.686266229834035;10.195408348437399;-4.355800980443553
1445509627454;201.53755170294752;-84.11229239012468;71.40995713385742;0.481384171295166;10.19510943855606;-1.9219453826904296
1445509627488;183.3243953247921;-84.60286323636264;51.768775455958;1.1710638870239256;6.784419316864013;0.41150341033935545
1445509627525;183.3243953247921;-84.60286323636264;51.768775455958;1.1710638870239256;6.784419316864013;0.41150341033935545
1445509627558;164.4699585212524;-85.38548889200881;31.252129425437694;2.4081180303711442;5.960664308166503;0.8276455133300274
1445509627593;152.5924403553052;-85.8159996836341;18.81206333338609;3.274220517465286;4.8698061767578125;0.4364928901672363
1445509627627;152.5924403553052;-85.8159996836341;18.81206333338609;3.274220517465286;4.8698061767578125;0.4364928901672363
1445509627660;156.18331591542469;-86.10904664626857;22.462677750519813;4.589086141702346;7.098060026605427;-0.8771756515060551
1445509627694;180.3725418155059;-86.05479809116827;44.11650373010685;4.447678386953659;7.473649973651021;2.0014029502868653
1445509627732;180.3725418155059;-86.05479809116827;44.11650373010685;4.447678386953659;7.473649973651021;2.0014029502868653
1445509627767;228.52494979709581;-85.7019984887788;91.13313312874365;2.828599696936086;8.038531927844137;4.685302943965007
1445509627801;267.4939432991152;-79.91593382109112;131.85505391881006;4.834342064666748;16.367211461639403;6.65169098152481
1445509627835;269.53996270633314;-68.21213032049162;138.4284353292216;7.661894371441751;23.06633734436035;-2.798073844964802
1445509627873;269.53996270633314;-68.21213032049162;138.4284353292216;7.661894371441751;23.06633734436035;-2.798073844964802
1445509627907;261.0616848859557;-58.30915799024839;132.993947406059;1.7326538139343262;20.75608296443522;2.7521348814148454
1445509627941;254.9172235869921;-53.39269116966597;129.47708889780003;2.3322516921997067;8.743774027429149;2.0949263065062462
1445509627977;254.9172235869921;-53.39269116966597;129.47708889780003;2.3322516921997067;8.743774027429149;2.0949263065062462
1445509628010;251.84785920364905;-52.495708460649304;127.33468547865697;2.720112215014547;5.839607340594381;1.2286743644714355
1445509628044;249.77493068374102;-54.43230345257807;129.21696025782552;-2.395997603662312;3.5021184783935544;-0.14021043472290037
1445509628078;249.77493068374102;-54.43230345257807;129.21696025782552;-2.395997603662312;3.5021184783935544;-0.14021043472290037
1445509628111;247.92521951104098;-59.2382229827451;129.4151337046663;-3.690212654058635;2.140865196990967;-0.013168109130859374
1445509628145;246.90011986058968;-66.5502278548192;126.43157941015977;0.06150105514526367;4.5356656998232;1.485751840795949
1445509628180;246.90011986058968;-66.5502278548192;126.43157941015977;0.06150105514526367;4.5356656998232;1.485751840795949
1445509628214;250.73885068363356;-73.9343509134571;129.61757205583356;1.6168343816895037;12.528857287597656;7.007379200335592
1445509628247;255.60197695434232;-77.9748578350092;135.66056457545574;4.235492520550638;9.27603487440478;3.7934628929138183
1445509628280;251.7797190969903;-78.91628477827666;126.7357858728833;3.086724490356445;5.627570709936321;-0.6594528467040509
1445509628314;251.7797190969903;-78.91628477827666;126.7357858728833;3.086724490356445;5.627570709936321;-0.6594528467040509
1445509628347;247.50144594167767;-79.05147382254279;123.92408542950999;6.033836950274557;12.205490718133747;-6.686706034674122
1445509628382;231.4900586248807;-78.51158738753406;102.3303685050421;-4.6751278003968295;15.739481713867187;0.0020949264526367185
1445509628415;231.4900586248807;-78.51158738753406;102.3303685050421;-4.6751278003968295;15.739481713867187;0.0020949264526367185
1445509628452;228.51201298628325;-79.21600653925337;91.3798285190552;3.4097920768737793;10.326191760253906;3.9959225799339357
1445509628485;240.88979928337199;-79.25708365500535;102.80387712481763;-3.8540658301755784;9.972448282302729;-9.486724474368058
1445509628519;240.88979928337199;-79.25708365500535;102.80387712481763;-3.8540658301755784;9.972448282302729;-9.486724474368058
1445509628555;217.75796515238048;-81.70718620208038;72.5776033736388;-0.2576759536743164;13.700968930108845;-0.525676892874902
1445509628588;196.52852727705476;-81.95138798219814;43.42227457778528;0.3755903854370117;8.10048189580068;1.2997522262573242
1445509628625;196.52852727705476;-81.95138798219814;43.42227457778528;0.3755903854370117;8.10048189580068;1.2997522262573242
1445509628660;192.8056076596637;-83.16201888270521;32.93002173305262;1.0109516510009764;8.27151767689809;-1.1978489998306148
1445509628694;224.65636701249096;-81.26016251410529;43.925572408721344;3.288435907159373;7.87183578338623;8.33376699312739
1445509628731;224.65636701249096;-81.26016251410529;43.925572408721344;3.288435907159373;7.87183578338623;8.33376699312739
1445509628764;224.65636701249096;-81.26016251410529;43.925572408721344;3.288435907159373;7.87183578338623;8.33376699312739
1445509628798;288.82763436642597;-77.36687503162895;96.35566435869423;-0.26740239791870113;6.938396703393757;-0.29373859791411083
1445509628832;288.82763436642597;-77.36687503162895;96.35566435869423;-0.26740239791870113;6.938396703393757;-0.29373859791411083
1445509628869;288.82763436642597;-77.36687503162895;96.35566435869423;-0.26740239791870113;6.938396703393757;-0.29373859791411083
1445509628905;310.3108433225635;-71.2599472174445;108.44396217757738;5.950937863922118;8.163928166729583;3.1082723052978514
1445509628939;316.5951706402568;-63.14281193264581;111.63224851216057;10.703727142278849;22.32742627247274;8.374917407226562
1445509628974;316.5951706402568;-63.14281193264581;111.63224851216057;10.703727142278849;22.32742627247274;8.374917407226562
1445509629009;321.7847773784847;-53.98180847951998;119.50288937043123;-3.9923312683105467;18.25937837665975;8.04107562097758
1445509629044;326.458777464496;-50.09658415965234;119.94790277048732;5.113416159146093;12.71784958114624;5.676203223419189
1445509629079;326.458777464496;-50.09658415965234;119.94790277048732;5.113416159146093;12.71784958114624;5.676203223419189
1445509629112;335.861583088175;-47.63573776745276;127.15217739792779;3.488501164190471;8.579921070507913;6.752546507263183
1445509629148;345.70102566709926;-44.90705665691542;139.39333417483738;1.6742951484680175;7.395688709026947;3.2420486153200265
1445509629183;354.48675448645747;-41.81112726061871;148.33317128712693;3.1890764651976524;5.450998629760742;2.94307239074707
1445509629217;354.48675448645747;-41.81112726061871;148.33317128712693;3.1890764651976524;5.450998629760742;2.94307239074707
1445509629251;1.0418085219322761;-39.31797462243788;152.82212071601714;1.8525135345458983;4.018816978045553;3.151966485595703
1445509629286;6.852528785763884;-37.959030244535555;156.25796457801403;2.359485882214457;4.1041102660581465;2.647089210510254
1445509629319;6.852528785763884;-37.959030244535555;156.25796457801403;2.359485882214457;4.1041102660581465;2.647089210510254
1445509629354;12.354087920042168;-38.45756036317166;158.34827463246634;2.0543747350830586;2.990208235931396;3.108422235162556
1445509629388;16.741774133284306;-42.631727293165255;157.22987480379246;3.2386067677704617;2.058265239715576;3.691559684753418
1445509629422;16.741774133284306;-42.631727293165255;157.22987480379246;3.2386067677704617;2.058265239715576;3.691559684753418
1445509629458;19.337508105821943;-50.1460758771429;151.97359406875026;6.366032576751708;11.428123366601765;9.831938462774454
1445509629494;19.995950086673105;-55.067003684310414;148.06552164358607;2.374150148187205;17.559074975585936;15.19135887903422
1445509629528;19.995950086673105;-55.067003684310414;148.06552164358607;2.374150148187205;17.559074975585936;15.19135887903422
1445509629564;21.491068851527963;-58.99609603270775;145.6656424740662;-0.10369885940551757;4.107701860809326;2.4560021366395053
1445509629601;23.99936285411258;-64.00605784759239;141.4051700707159;3.1584007929595184;11.97370148538798;0.6055833824157715
1445509629634;24.225787546496456;-68.75511451521861;135.19100411265518;3.919607539013773;12.751817317199706;1.6927005006652325
1445509629671;24.225787546496456;-68.75511451521861;135.19100411265518;3.919607539013773;12.751817317199706;1.6927005006652325
1445509629706;22.89584217273723;-73.7819426008177;128.04668579198886;3.2436944097656757;8.880543089526519;1.0425252584595233
1445509629739;20.97641003868808;-78.95441693641384;121.97991869350862;3.5646669967651365;9.912443639727682;0.8557774741684087
1445509629775;20.97641003868808;-78.95441693641384;121.97991869350862;3.5646669967651365;9.912443639727682;0.8557774741684087
1445509629809;3.721682998683451;-82.94278715281075;98.69235013265968;-0.031872809600830075;8.875604683276265;2.967762668432668
1445509629845;345.5382936623796;-84.50230043453236;74.32798236186389;4.178330809783935;8.224531907708942;-0.23642740709056378
1445509629880;345.5382936623796;-84.50230043453236;74.32798236186389;4.178330809783935;8.224531907708942;-0.23642740709056378
1445509629915;330.8493888127005;-84.48563829931531;55.08821236608714;2.650231600189209;7.611166785375773;-0.246453151658643
1445509629950;324.4990814346433;-84.08928000850788;44.41235185519433;2.1348796197753397;7.6108678024291985;-0.08828618621826172
1445509629983;317.9030397435651;-84.28212278501431;33.40442592669348;1.3063362442901356;10.88179647527486;0.31184476623535157
1445509630019;317.9030397435651;-84.28212278501431;33.40442592669348;1.3063362442901356;10.88179647527486;0.31184476623535157
1445509630055;298.50354904317686;-85.00944424506024;9.575018876346206;1.1490671592712403;12.417526618139446;0.7019499261718243
1445509630089;273.82528974755047;-84.62703873846122;-19.263931118296128;3.5489551579682153;15.78781465988159;-0.381725490658544
1445509630125;273.82528974755047;-84.62703873846122;-19.263931118296128;3.5489551579682153;15.78781465988159;-0.381725490658544
1445509630159;268.2813419903914;-86.13154035776718;-28.48025764372965;3.2911295666901395;12.435333492986857;3.2626983854431657
1445509630193;30.21387005875311;-86.94588543285154;87.3965402545436;2.459892641272023;12.672808954675494;0.5590460739467525
1445509630228;30.21387005875311;-86.94588543285154;87.3965402545436;2.459892641272023;12.672808954675494;0.5590460739467525
1445509630264;51.06680524181537;-81.38302599459917;105.2832189608032;-0.5663783302307128;12.528557720129191;0.1758241844177246
1445509630299;55.32129593771381;-75.3806318609592;109.82759869828843;3.2282817365784195;14.65191560974121;3.447650463690236
1445509630333;63.09244212505106;-67.9050680615211;115.37400678898861;0.40566754379272457;11.288361406298726;-2.230049208831787
1445509630368;63.09244212505106;-67.9050680615211;115.37400678898861;0.40566754379272457;11.288361406298726;-2.230049208831787
1445509630402;68.87618814042811;-60.04062790838535;122.58068461504203;2.81558115234375;10.69325280227661;1.0387840991698205
1445509630435;77.51304774015549;-45.87523508056162;145.01176375150627;1.7485153999328613;3.375524773351848;0.1331774673461914
1445509630469;77.51304774015549;-45.87523508056162;145.01176375150627;1.7485153999328613;3.375524773351848;0.1331774673461914
1445509630506;79.82647638016692;-42.151422312201696;151.42704524678842;0.1967734489440918;1.693748036956787;0.8610147720336914
1445509630541;79.25232883323484;-43.28594508282823;152.48583470525824;3.027168669261131;0.852934341430664;1.3825018211364746
1445509630578;79.25232883323484;-43.28594508282823;152.48583470525824;3.027168669261131;0.852934341430664;1.3825018211364746
1445509630613;75.73546273434555;-48.67303482083454;146.85051016086635;7.595305491638183;9.152733671569823;11.3649760055542
1445509630646;71.60897216653196;-53.40062171637511;141.84255109083387;5.975328647204488;16.146495996093748;8.129511737060547
1445509630682;68.35584874095588;-57.86349477713628;137.87791591132282;0.0953191535949707;6.9038299785338335;3.6032736081330103
1445509630716;68.35584874095588;-57.86349477713628;137.87791591132282;0.0953191535949707;6.9038299785338335;3.6032736081330103
1445509630751;68.43404489466415;-63.373945027325284;135.46212308672213;-0.001945288848876953;11.604246533966064;1.6385317611694334
1445509630784;69.47189321276844;-69.35188790515542;132.1137877322872;3.2499791160583493;14.225598076629637;1.9205986077239736
1445509630822;69.47189321276844;-69.35188790515542;132.1137877322872;3.2499791160583493;14.225598076629637;1.9205986077239736
1445509630855;69.94941390627082;-74.34943096001405;129.7516071921431;4.358943397521973;10.998214238739013;1.5369278464828617
1445509630889;70.61434813763798;-78.19039142337317;130.37459435029228;2.8139351387023925;9.248950650787354;0.9992798996414057
1445509630924;70.61434813763798;-78.19039142337317;130.37459435029228;2.8139351387023925;9.248950650787354;0.9992798996414057
1445509630958;59.77248277952561;-81.88907930025741;118.0981449578819;-1.6606782726563512;6.270713423156738;0.2835632956573739
1445509630993;26.08681308227489;-84.7077105407793;81.81897989912045;0.8496422821819083;7.40107602808848;0.4447229583740234
1445509631027;26.08681308227489;-84.7077105407793;81.81897989912045;0.8496422821819083;7.40107602808848;0.4447229583740234
1445509631063;346.2517246825602;-85.22826194505863;40.10953642106544;0.14380173721313474;8.799887982708588;0.19033903198242186
1445509631099;315.496355586646;-84.57033888030887;6.706880378659086;1.604115084905224;8.994567016656696;0.12659341278076172
1445509631132;290.6116772330815;-83.22118702293608;-20.086442551055182;0.9021651130676269;11.784709337969868;1.22822537859492
1445509631170;290.6116772330815;-83.22118702293608;-20.086442551055182;0.9021651130676269;11.784709337969868;1.22822537859492
1445509631206;273.2327977012307;-81.21368276558923;-39.31986890830453;2.0278888061523435;15.83958927078247;0.8857050497192889
1445509631240;263.3659086046192;-82.52175304713364;-49.57735378274039;1.077540311608836;11.928511367443948;2.386570215429738
1445509631275;263.3659086046192;-82.52175304713364;-49.57735378274039;1.077540311608836;11.928511367443948;2.386570215429738
1445509631310;248.77974001957998;-88.09527009069178;-64.97300942725184;4.298340094934031;12.660837654113768;3.6779425806128883
1445509631345;81.46526037319344;-83.99312424272387;118.04503225439525;-0.6718727678161114;14.420575874328613;-5.950339386572316
1445509631380;81.46526037319344;-83.99312424272387;118.04503225439525;-0.6718727678161114;14.420575874328613;-5.950339386572316
1445509631414;72.0410968576774;-77.54201846353169;111.71859332601458;1.098639213738963;12.121693660028278;5.957372207818553
1445509631450;81.26711695771199;-69.63725624384269;118.78314612425108;0.3372831588745117;11.988067279870807;-2.6439468208312986
1445509631485;84.66660937766673;-61.07631916332946;125.01812272708455;1.1379939765930176;10.417171423339843;1.5845124400816857
1445509631520;84.66660937766673;-61.07631916332946;125.01812272708455;1.1379939765930176;10.417171423339843;1.5845124400816857
1445509631555;87.93275947285835;-52.636054015653635;137.12229899557573;2.0753240726746616;5.386355038806051;-0.3010708587646484
1445509631589;90.7333518531159;-45.93714206557568;146.97719511120414;0.8071452346801757;2.083703632354736;0.5397428367614746
1445509631624;90.7333518531159;-45.93714206557568;146.97719511120414;0.8071452346801757;2.083703632354736;0.5397428367614746
1445509631657;91.96849807171354;-41.798561935618935;152.927089055586;0.7305307815551757;1.718138674108684;1.7432783760622144
1445509631692;89.78892659330334;-42.15580323342806;153.76189557328735;3.782389673702977;1.5816694717407225;2.258330423681438
1445509631727;89.78892659330334;-42.15580323342806;153.76189557328735;3.782389673702977;1.5816694717407225;2.258330423681438
1445509631761;84.80223299305143;-47.452818191125935;148.64216504489247;0.013617021942138671;2.786850732421875;1.5251064575195312
1445509631794;80.2864290592448;-54.108494158967176;142.71854687990447;9.56678121343404;20.925921060180663;1.4264952766418457
1445509631830;80.2864290592448;-54.108494158967176;142.71854687990447;9.56678121343404;20.925921060180663;1.4264952766418457
1445509631863;75.84078425114892;-58.5339053579193;136.28183468494728;-0.03067570877075195;8.19370619600825;1.748365908459574
1445509631898;74.24285610514734;-64.05857488376952;132.6170256733821;-0.8646060745239257;10.276961134747415;1.3090297576904295
1445509631933;75.86462055193235;-70.1824573759066;131.7040948836131;2.6054900023308116;13.749002308654784;0.886153889465332
1445509631967;75.86462055193235;-70.1824573759066;131.7040948836131;2.6054900023308116;13.749002308654784;0.886153889465332
1445509632001;77.54731640338092;-80.96615558625076;129.39695289026972;3.3452981965880837;9.26645799469892;0.833182159468066
1445509632034;77.54731640338092;-80.96615558625076;129.39695289026972;3.3452981965880837;9.26645799469892;0.833182159468066
1445509632070;77.54731640338092;-80.96615558625076;129.39695289026972;3.3452981965880837;9.26645799469892;0.833182159468066
1445509632104;66.69018354433582;-84.71868437310528;117.85829001548395;0.6967126739723142;7.632266125897318;0.734870272064209
1445509632137;14.267522064623838;-86.99335911023708;65.218237715951;0.29119475865019484;7.833678486688434;0.6741174414703622
1445509632170;14.267522064623838;-86.99335911023708;65.218237715951;0.29119475865019484;7.833678486688434;0.6741174414703622
1445509632207;304.01722654804763;-85.19941187980163;-7.071921113479553;2.454954426818015;10.801441082055867;-1.1695675109863282
1445509632241;304.01722654804763;-85.19941187980163;-7.071921113479553;2.454954426818015;10.801441082055867;-1.1695675109863282
1445509632279;304.01722654804763;-85.19941187980163;-7.071921113479553;2.454954426818015;10.801441082055867;-1.1695675109863282
1445509632315;278.10509584805686;-84.10786310466129;-37.642771966197905;-1.202936733157374;14.049774184472858;1.4986205285888163
1445509632349;264.10289056375575;-84.39740679795277;-52.14873006518619;1.1475708562988787;16.24705246582031;1.8923171006133779
1445509632382;229.0675389694087;-87.38928430503223;-88.20889742960807;2.8950388295380396;10.068365931513812;3.342455178014771
1445509632416;229.0675389694087;-87.38928430503223;-88.20889742960807;2.8950388295380396;10.068365931513812;3.342455178014771
1445509632453;96.54306539783295;-85.40731067961255;135.96064337190313;3.267785881307907;14.880561868286131;-2.7858032326629383
1445509632487;79.51070947552219;-78.70974940042238;117.02563956302174;2.6841993362426755;11.302876399993895;-0.7589619993347674
1445509632525;79.51070947552219;-78.70974940042238;117.02563956302174;2.6841993362426755;11.302876399993895;-0.7589619993347674
1445509632560;78.92796236684505;-71.9980516750682;116.47568873196363;0.5380966769896447;10.819247518511862;5.380968231201171
1445509632594;80.47881134172138;-64.01722175718098;120.90979780093042;4.291157672616653;11.883619940185547;2.8784289459228516
1445509632630;80.47881134172138;-64.01722175718098;120.90979780093042;4.291157672616653;11.883619940185547;2.8784289459228516
1445509632664;82.12028047975463;-55.23788305885908;129.01134390283067;-1.0881646545410155;7.214926410619914;-0.5463268913269043
1445509632700;83.56839984394584;-47.1263246311667;139.55162549577767;1.4504372932434082;2.409614041082561;1.5058034988954663
1445509632734;85.35467519834177;-41.36757693272436;146.76068929151336;2.3515549430847167;1.6545432770326733;0.6675333503723144
1445509632772;85.35467519834177;-41.36757693272436;146.76068929151336;2.3515549430847167;1.6545432770326733;0.6675333503723144
1445509632807;85.76435612948949;-39.56233697723597;151.4793659967368;1.9792565849304198;1.9117700256347656;1.910273649597168
1445509632841;82.72029520160581;-43.117239711176005;150.63761836984673;2.158821855572611;0.48228199691772455;2.620304079437256
1445509632879;82.72029520160581;-43.117239711176005;150.63761836984673;2.158821855572611;0.48228199691772455;2.620304079437256
1445509632914;78.84617877856654;-48.989489555373304;145.73399487341106;2.9952959144592284;11.227907668249308;6.038475789056346
1445509632948;75.56152715748033;-54.81184376739058;140.24366442613513;5.033210293933004;13.216890989685059;4.639663542175293
1445509632982;73.12939360793109;-60.653748618847324;135.1367531178009;0.10953472595214843;9.053523940277099;2.1446061370849607
1445509633017;73.12939360793109;-60.653748618847324;135.1367531178009;0.10953472595214843;9.053523940277099;2.1446061370849607
1445509633052;73.87525427872788;-67.3067134732061;132.24144292735983;2.2839186365874484;14.547468562316894;1.1543043292723596
1445509633086;74.31569278048919;-72.7723779645255;130.80084339025603;4.403535403442382;12.74343761138916;1.8504186720253433
1445509633121;74.31569278048919;-72.7723779645255;130.80084339025603;4.403535403442382;12.74343761138916;1.8504186720253433
1445509633155;76.5542002460952;-76.8198460265035;132.69436502819258;2.2269067460875958;9.169044426107964;1.1041758781433104
1445509633190;75.33654204983168;-80.44282394272717;132.06332746308354;1.0712556418487802;6.78651424331665;-1.4398130233764648
1445509633224;75.33654204983168;-80.44282394272717;132.06332746308354;1.0712556418487802;6.78651424331665;-1.4398130233764648
1445509633261;57.94467920586863;-84.33606897685964;111.95618027633718;1.7628806098937988;5.724236894226074;1.1167454003265127
1445509633296;14.816257804274594;-86.16281935642183;67.56658235300795;0.7423521431190427;9.209596143661624;0.016759411621093748
1445509633330;14.816257804274594;-86.16281935642183;67.56658235300795;0.7423521431190427;9.209596143661624;0.016759411621093748
1445509633366;328.0836492115687;-85.88214465322878;18.704765649457112;-0.20949266352998092;8.957905584539844;0.25213936233520506
1445509633401;294.9074075958818;-84.27893195180656;-16.810093894561923;0.2090437141860835;11.467776747076213;0.4412812934875488
1445509633435;273.5760625967613;-81.43194270096683;-41.09304810248991;-0.4601356680938974;13.955052996771037;-0.10145429534912109
1445509633471;273.5760625967613;-81.43194270096683;-41.09304810248991;-0.4601356680938974;13.955052996771037;-0.10145429534912109
1445509633505;262.36804369506984;-80.12560234990583;-53.75512866553717;2.672976515960693;17.240646154785153;0.6835445739746093
1445509633540;251.12926651503915;-83.44173784701509;-64.79655313545085;1.4844051023621112;11.252747948864847;2.5056817480225115
1445509633575;251.12926651503915;-83.44173784701509;-64.79655313545085;1.4844051023621112;11.252747948864847;2.5056817480225115
1445509633612;118.80235477489994;-87.8706688306129;160.42289691115008;4.916792475669924;14.346953881017862;0.7769184387207031
1445509633647;81.69078673919387;-79.58724757984379;117.14988201351848;0.14454992523193358;13.989320592553913;-4.4201452505249526
1445509633681;81.11494066004639;-71.80299175316223;117.41563416750893;-1.1887211242675781;12.605322103118896;8.89819996144399
1445509633716;81.11494066004639;-71.80299175316223;117.41563416750893;-1.1887211242675781;12.605322103118896;8.89819996144399
1445509633752;83.41108229536326;-63.65991034784625;121.74075413917957;4.7138837205749;10.232818187768757;-0.026485855865478514
1445509633786;85.26661742356029;-55.11362383288826;129.7657724221549;-0.35224691925048823;7.620743738146871;-0.9491513206481933
1445509633823;85.26661742356029;-55.11362383288826;129.7657724221549;-0.35224691925048823;7.620743738146871;-0.9491513206481933
1445509633858;88.84593431089117;-41.415608709023395;148.47463617565805;1.4004583335876464;2.6372131286621094;1.1501146224975585
1445509633891;88.84593431089117;-41.415608709023395;148.47463617565805;1.4004583335876464;2.6372131286621094;1.1501146224975585
1445509633926;88.84593431089117;-41.415608709023395;148.47463617565805;1.4004583335876464;2.6372131286621094;1.1501146224975585
1445509633961;87.53285615464327;-41.402926778965906;153.83044822059964;2.9269114930083973;1.3262380821228026;3.062333853204548
1445509633994;84.60897722046953;-46.511861011325195;149.21741268964854;4.96213272440806;12.633304335021972;12.413636332702636
1445509634028;84.60897722046953;-46.511861011325195;149.21741268964854;4.96213272440806;12.633304335021972;12.413636332702636
1445509634063;82.86922221123538;-51.51831625751585;145.42337581950414;2.590077356543019;14.525022921752928;9.018359103393554
1445509634097;82.40991577761615;-56.60541609419661;142.40482657477946;0.5072714767456055;7.312340855993702;3.7565022586546837
1445509634132;85.71125004010771;-62.95685644372987;141.75232671902626;0.21143793411254883;11.612476309911907;1.2532147853575646
1445509634165;85.71125004010771;-62.95685644372987;141.75232671902626;0.21143793411254883;11.612476309911907;1.2532147853575646
1445509634201;91.25087549673313;-69.15294959064737;144.1903906769453;6.172252026013284;14.296227025604248;1.250671092224121
1445509634234;92.4785740933364;-74.26304623116562;143.52722526029365;3.312826909637451;8.996063136965967;1.185578734588623
1445509634271;92.4785740933364;-74.26304623116562;143.52722526029365;3.312826909637451;8.996063136965967;1.185578734588623
1445509634304;94.45459989350474;-78.888711839385;145.30923182591494;1.8715175102233885;8.74527033040151;0.5057750276427716
1445509634338;91.44396701780822;-83.24343869905421;141.6230203819437;-0.5336076950073242;6.822726543426513;0.5581482620239258
1445509634374;91.44396701780822;-83.24343869905421;141.6230203819437;-0.5336076950073242;6.822726543426513;0.5581482620239258
1445509634411;75.7283986381862;-87.10897614857117;125.11026380497356;0.5669768806457519;7.24635059967041;1.4712369566986336
1445509634445;21.52447981905656;-88.99873755467007;68.83581535825397;0.7846995575835928;9.446472105087153;0.633565637151734
1445509634478;21.52447981905656;-88.99873755467007;68.83581535825397;0.7846995575835928;9.446472105087153;0.633565637151734
1445509634514;292.3014356796715;-88.50910386324448;-23.21461801095402;1.1171943405372555;9.376740908669866;-0.970399842115771
1445509634549;264.94499138092385;-86.05947582107113;-52.42576542255579;0.6248866333007812;13.985728705541788;0.4933551795959472
1445509634583;257.54510446306745;-82.70534210259113;-60.50392394888807;0.45025954971313475;15.093346540832519;0.7248445526123046
1445509634617;257.54510446306745;-82.70534210259113;-60.50392394888807;0.45025954971313475;15.093346540832519;0.7248445526123046
1445509634651;249.56624910882334;-81.78334805911634;-69.52957699175758;1.455225842694193;10.133009358071721;1.8371009344238787
1445509634684;230.3639563001841;-83.92708581893062;-90.7614125203835;6.7185787712097165;9.548225620844866;2.5779567015053235
1445509634718;230.3639563001841;-83.92708581893062;-90.7614125203835;6.7185787712097165;9.548225620844866;2.5779567015053235
1445509634752;154.95536735193602;-87.77344613885104;-169.44765778783338;0.2117372047534911;11.484087830407917;-4.793191833230667
1445509634786;84.02310447569573;-84.19839885587038;122.4960499108291;1.0274118056808599;14.687379721832274;3.0246249213287606
1445509634820;84.02310447569573;-84.19839885587038;122.4960499108291;1.0274118056808599;14.687379721832274;3.0246249213287606
1445509634854;82.41070751593111;-79.63610524785813;119.16282954179539;-3.6412811576291917;11.005546335192768;1.7802385719299316
1445509634888;80.77962637391711;-73.40670307523784;122.88513651960572;1.0271125122070313;9.796923300027288;-1.087865379333496
1445509634921;80.77962637391711;-73.40670307523784;122.88513651960572;1.0271125122070313;9.796923300027288;-1.087865379333496
1445509634955;83.14213210895585;-67.12871256703767;126.18335722605681;2.890699229431152;8.996661554950265;0.7088333290100097
1445509634989;83.80263195154232;-61.14197553787697;134.0861445814052;1.8403928886413574;4.26137997213155;-1.2578536972045897
1445509635027;83.80263195154232;-61.14197553787697;134.0861445814052;1.8403928886413574;4.26137997213155;-1.2578536972045897
1445509635062;82.83060725830644;-58.546051227567304;138.17705019759657;0.38756139373779297;1.3925275405883788;-0.6869862388610839
1445509635096;79.63496954070949;-58.533121302558456;136.46460398254447;-0.35568858413696286;1.635539009094238;0.9308955329895019
1445509635130;74.95900964274382;-60.23632110520668;136.4071400089329;5.483320206042379;4.6633062835693355;5.084087371472269
1445509635163;74.95900964274382;-60.23632110520668;136.4071400089329;5.483320206042379;4.6633062835693355;5.084087371472269
1445509635197;70.53082880187806;-61.26134712321046;134.74563000397663;9.45156025853902;15.818789643859862;9.558401507623493
1445509635232;69.45522827732573;-59.6127916897644;136.15147297132336;7.181856792449951;24.554033816418052;12.386402288818358
1445509635267;69.45522827732573;-59.6127916897644;136.15147297132336;7.181856792449951;24.554033816418052;12.386402288818358
1445509635301;70.84089196553121;-55.5070199273954;136.27303699508056;-16.05821010213643;-9.542989126697183;0.732924983215332
1445509635335;70.05032493713121;-59.830548128531085;132.97127758885435;6.016479134368896;12.201450502832234;-11.56833350906372
1445509635368;70.05032493713121;-59.830548128531085;132.97127758885435;6.016479134368896;12.201450502832234;-11.56833350906372
1445509635402;63.759384452480504;-67.4183050186151;118.413187307234;1.8070237030029295;16.42736577835083;8.902838727160542
1445509635436;65.0393813189326;-73.18619839608625;117.72641054199657;-0.12913725204467771;9.613617235421575;-0.17462708358764648
1445509635469;65.0393813189326;-73.18619839608625;117.72641054199657;-0.12913725204467771;9.613617235421575;-0.17462708358764648
1445509635504;69.00656584719651;-78.05777057905475;123.02870404020634;2.2596773813109845;11.881824142809956;-0.7929297353882342
1445509635539;67.13373069854168;-81.31509717718401;118.96601581368455;-0.16130933685302734;8.140435574395955;-0.08499415893554688
1445509635577;67.13373069854168;-81.31509717718401;118.96601581368455;-0.16130933685302734;8.140435574395955;-0.08499415893554688
1445509635612;28.59790744965455;-86.98005598307701;70.89544387370742;0.5678747154014651;9.612121261242777;-0.9792285155365243
1445509635645;28.59790744965455;-86.98005598307701;70.89544387370742;0.5678747154014651;9.612121261242777;-0.9792285155365243
1445509635680;28.59790744965455;-86.98005598307701;70.89544387370742;0.5678747154014651;9.612121261242777;-0.9792285155365243
1445509635716;282.58338084794;-85.54692430961751;-39.39207063710058;3.041234549215622;11.512069770050049;2.8694507262298834
1445509635752;282.58338084794;-85.54692430961751;-39.39207063710058;3.041234549215622;11.512069770050049;2.8694507262298834
1445509635786;263.73311458336184;-83.9161131652602;-59.912396708163946;-0.12449848632812499;10.261548205831833;1.7340005523681639
1445509635819;263.73311458336184;-83.9161131652602;-59.912396708163946;-0.12449848632812499;10.261548205831833;1.7340005523681639
1445509635853;238.20700766889027;-88.48237970063094;-88.15814310064475;0.7933785751342773;13.156138122558593;1.4866495579622976
1445509635887;80.45890629352526;-84.15292774678393;110.6345254837614;-1.9800048460144548;16.91189233932495;-3.5842694497924295
1445509635920;80.45890629352526;-84.15292774678393;110.6345254837614;-1.9800048460144548;16.91189233932495;-3.5842694497924295
1445509635955;78.30480307441083;-78.16140728793833;111.80444280712548;3.279607361602783;14.49210264892578;3.8064812913756816
1445509635989;83.55449991288722;-70.18714110395435;116.35410727220868;-0.9072527915954589;12.126332133483887;0.07811082916259765
1445509636024;83.55449991288722;-70.18714110395435;116.35410727220868;-0.9072527915954589;12.126332133483887;0.07811082916259765
1445509636059;86.74445330124927;-61.91386163907997;121.51579932499611;0.18270751419067383;9.382127898937835;1.3157634498596191
1445509636092;89.68969770995895;-53.239223789264166;130.58688994478365;1.541716231536865;7.109881105041503;-0.5401917495727538
1445509636126;89.68969770995895;-53.239223789264166;130.58688994478365;1.541716231536865;7.109881105041503;-0.5401917495727538
1445509636160;92.2294322502257;-45.688851762569776;140.51387193133823;0.7172130348205566;2.313696337072551;0.32710780181884763
1445509636195;93.91738259314674;-40.897726888370606;147.58404364966387;1.7326538139343262;2.5309704299926756;0.5699696327209473
1445509636229;93.91738259314674;-40.897726888370606;147.58404364966387;1.7326538139343262;2.5309704299926756;0.5699696327209473
1445509636266;93.458194509296;-40.95566437352215;151.68581255504668;3.5948938109909183;1.2110171272277832;1.8900725730895995
1445509636302;91.08307950932384;-46.03154996512516;151.14118810337843;4.547486778259277;8.461258304595948;11.703007352447509
1445509636335;87.53727927450163;-51.6304123794494;148.3801637160387;0.9042601856507361;16.95618507003784;12.00258183517456
1445509636371;87.53727927450163;-51.6304123794494;148.3801637160387;0.9042601856507361;16.95618507003784;12.00258183517456
1445509636404;83.66339971990163;-56.18732522528905;143.51804353183633;0.3506009056091308;8.709207850558496;4.356100408631412
1445509636439;82.41285209217739;-61.97483404102362;139.4766065323328;-0.44966099929809566;11.91534281992167;1.2732663703918456
1445509636472;82.41285209217739;-61.97483404102362;139.4766065323328;-0.44966099929809566;11.91534281992167;1.2732663703918456
1445509636509;83.00658647100148;-67.88153943772868;136.6296299763175;1.7351977993287144;13.59562347254008;1.5188217512268571
1445509636544;85.1751680496805;-73.12304171419594;136.1559211714669;2.8728924276489765;10.959009040423481;1.4095862274169921
1445509636579;85.1751680496805;-73.12304171419594;136.1559211714669;2.8728924276489765;10.959009040423481;1.4095862274169921
1445509636614;90.5393150528836;-77.20159928241793;140.89596749266482;1.5586253355606459;8.82547615908198;0.5422866760253906
1445509636648;91.0742470203558;-81.26986582700938;139.5109949681279;-0.2437596565246582;6.526892708532512;0.8571242126022465
1445509636682;79.96708388288914;-85.78076188172781;124.66806934480766;2.6045922041077167;6.861781958007812;-0.3419219245910644
1445509636715;79.96708388288914;-85.78076188172781;124.66806934480766;2.6045922041077167;6.861781958007812;-0.3419219245910644
1445509636750;9.267582952384455;-88.05567342851604;51.97275387056464;-0.015412673187255858;9.165453014019876;0.18001405558930708
1445509636784;305.6963704900332;-86.50440749546613;-13.20400781816842;1.7260697228362782;10.963348750128224;2.0971710897583513
1445509636820;305.6963704900332;-86.50440749546613;-13.20400781816842;1.7260697228362782;10.963348750128224;2.0971710897583513
1445509636854;280.9720415954671;-85.13020898239897;-39.684923750874816;1.8267758666992187;11.905167462866007;3.0636802993774412
1445509636888;263.7433879432462;-85.20603988797792;-59.56748050080275;2.029235690716654;15.341146412658691;0.6425438705444335
1445509636923;263.7433879432462;-85.20603988797792;-59.56748050080275;2.029235690716654;15.341146412658691;0.6425438705444335
1445509636958;217.71310328714065;-87.61444293953542;-105.9962224222378;0.492307752902247;12.968642205047606;1.6587328194106927
1445509636993;121.66735828517349;-85.50181493950458;155.61821571453177;1.8691232720306141;13.71922442550659;-0.5410895021300762
1445509637028;121.66735828517349;-85.50181493950458;155.61821571453177;1.8691232720306141;13.71922442550659;-0.5410895021300762
1445509637065;87.6093226809277;-79.39418083099943;121.20743384383918;6.768707368469238;13.085060260772705;-3.8533180074829607
1445509637099;84.44745424892824;-72.01533094693441;114.5582956606055;0.24121581726074218;12.058546006719768;9.071929073278605
1445509637133;90.07640960643204;-54.644089681031694;129.95207350968374;3.3583166681151835;10.10712245448008;-1.1985972061157226
1445509637168;90.07640960643204;-54.644089681031694;129.95207350968374;3.3583166681151835;10.10712245448008;-1.1985972061157226
1445509637203;90.07640960643204;-54.644089681031694;129.95207350968374;3.3583166681151835;10.10712245448008;-1.1985972061157226
1445509637236;93.83736059804566;-41.06796834814689;148.88073387588778;2.416796792193502;3.3132758224487304;0.6724713912963867
1445509637269;93.83736059804566;-41.06796834814689;148.88073387588778;2.416796792193502;3.3132758224487304;0.6724713912963867
1445509637305;93.83736059804566;-41.06796834814689;148.88073387588778;2.416796792193502;3.3132758224487304;0.6724713912963867
1445509637339;90.32466568025963;-43.30849391662705;152.2301408123088;2.2179286359924824;0.16205752487182618;1.9425953720092772
1445509637376;90.32466568025963;-43.30849391662705;152.2301408123088;2.2179286359924824;0.16205752487182618;1.9425953720092772
1445509637410;90.32466568025963;-43.30849391662705;152.2301408123088;2.2179286359924824;0.16205752487182618;1.9425953720092772
1445509637443;84.97059508066103;-52.85016827045963;145.3117610063802;3.7113117023192346;11.930456510162353;3.8441901136536147
1445509637479;84.97059508066103;-52.85016827045963;145.3117610063802;3.7113117023192346;11.930456510162353;3.8441901136536147
1445509637513;85.7734526364063;-58.12612462961148;143.4879372452199;0.08708908538818359;9.209446104199067;2.862716851397604
1445509637549;88.00141030849869;-63.732510728945705;140.90789220755647;1.3727753768920898;13.150751168823241;2.2483050695557147
1445509637583;90.1671729843046;-69.06706513790685;139.22135532125856;4.567089304351806;11.523591719409078;1.4579191003661602
1445509637618;90.1671729843046;-69.06706513790685;139.22135532125856;4.567089304351806;11.523591719409078;1.4579191003661602
1445509637652;95.235290154528;-73.68374675441821;143.2623570817102;3.44750075302124;9.555557927361177;1.1321580369811504
1445509637686;100.48132950414781;-77.5007681467662;150.16380579610887;1.3403040351425297;7.996334415844827;-1.3533226345337928
1445509637722;100.48132950414781;-77.5007681467662;150.16380579610887;1.3403040351425297;7.996334415844827;-1.3533226345337928
1445509637756;101.33401882225277;-82.08057487112589;148.86932540863037;0.47061028209077194;6.978798271887004;1.1721113239924248
1445509637789;94.60126511374372;-86.35405445541694;140.75530741702855;0.44741645350800824;8.145373469189554;1.2255319747924804
1445509637824;94.60126511374372;-86.35405445541694;140.75530741702855;0.44741645350800824;8.145373469189554;1.2255319747924804
1445509637860;319.81422538719755;-89.84312391313036;4.577851614865584;0.4596867231738717;10.538677084527537;0.6054337539451662
1445509637895;263.3641578168775;-86.54053840243982;-52.67280467126176;2.4594436553955075;12.889484204919636;0.9832686577728018
1445509637930;263.3641578168775;-86.54053840243982;-52.67280467126176;2.4594436553955075;12.889484204919636;0.9832686577728018
1445509637964;253.62020443561704;-83.48386171012513;-63.6195376460591;1.533486163330078;16.47794328842163;0.6763619689941406
1445509638001;236.3536539697361;-83.87015603286478;-81.45603834531433;1.9021931459289043;13.088502217920123;2.4678232881408184
1445509638035;156.84259907471278;-86.15872347798029;-160.19339686819342;3.063381170300394;13.729249852697551;2.8802245241027324
1445509638070;156.84259907471278;-86.15872347798029;-160.19339686819342;3.063381170300394;13.729249852697551;2.8802245241027324
1445509638105;97.78059764181702;-81.23809106204325;134.26553718567658;-2.849997874273732;13.50614077001363;-7.102399297918751
1445509638138;81.29752323270692;-75.23612936542386;118.76780117502386;1.6552911362579092;12.32145956878662;8.622268293176218
1445509638172;81.29752323270692;-75.23612936542386;118.76780117502386;1.6552911362579092;12.32145956878662;8.622268293176218
1445509638206;84.50841254088552;-68.36862087892432;123.37433276447585;1.4730324252806604;11.264868302508443;-0.5942109245300292
1445509638240;86.37315070230099;-60.37046255445604;127.43731130195981;1.624166551208496;10.16233843800649;1.434575707244873
1445509638275;86.37315070230099;-60.37046255445604;127.43731130195981;1.624166551208496;10.16233843800649;1.434575707244873
1445509638313;87.81054097725456;-52.22189870749424;136.62665807160272;0.7855974197387695;5.638494839532673;-0.155772745513916
1445509638347;89.07389427354944;-45.38049476885043;144.8793167255656;0.4709095390319824;3.576937572534382;1.2886787513181566
1445509638380;90.07724910507847;-41.0643663076353;150.3566446779875;2.5547628089904784;3.6764465790346263;1.1637316444396972
1445509638416;90.07724910507847;-41.0643663076353;150.3566446779875;2.5547628089904784;3.6764465790346263;1.1637316444396972
1445509638451;89.8199854525011;-40.46699294479525;153.43296622867484;2.9830256309509275;2.4295161346435545;2.1601681556150316
1445509638485;87.12248261652772;-45.007413632715654;151.56809059888366;3.22828153564902;1.5523405014038085;3.282001563262939
1445509638520;87.12248261652772;-45.007413632715654;151.56809059888366;3.22828153564902;1.5523405014038085;3.282001563262939
1445509638556;84.99482368986486;-50.054282458717296;147.98171103717877;4.667795411682128;15.765967569732664;2.1709423553466793
1445509638590;82.72413151228784;-54.284816217935784;144.1995084720437;1.4049476078309118;9.109488550213724;3.7018846794128417
1445509638624;82.72413151228784;-54.284816217935784;144.1995084720437;1.4049476078309118;9.109488550213724;3.7018846794128417
1445509638660;83.05441261645954;-58.9927313809214;141.4488310794708;-0.3550900337219238;8.101679361956938;3.0009822164673357
1445509638695;86.02689925448126;-64.03106112082443;139.54523677989758;2.729838750590477;13.82247437210083;1.7628806098937988
1445509638730;86.02689925448126;-64.03106112082443;139.54523677989758;2.729838750590477;13.82247437210083;1.7628806098937988
1445509638765;87.94536589826394;-67.97726647076041;137.2108355383136;3.9347209369935094;10.985644680023192;1.501613426794484
1445509638798;89.55356558847618;-71.70376774400172;136.05710130498557;2.902370962524414;9.29114863314412;0.6428431457519531
1445509638833;90.64242999405403;-75.19729778001651;136.33155618468595;1.8127099958778823;8.949675625930912;-1.127669128064066
1445509638865;90.64242999405403;-75.19729778001651;136.33155618468595;1.8127099958778823;8.949675625930912;-1.127669128064066
1445509638901;88.77699075029606;-81.40101877238442;123.9234063789152;4.459350083514303;8.862586357879637;-0.25213936233520506
1445509638934;88.77699075029606;-81.40101877238442;123.9234063789152;4.459350083514303;8.862586357879637;-0.25213936233520506
1445509638970;88.77699075029606;-81.40101877238442;123.9234063789152;4.459350083514303;8.862586357879637;-0.25213936233520506
1445509639003;88.96529990813117;-83.68751748546666;116.63720518625195;0.6690297264099121;9.650727525550778;1.8110639548370613
1445509639037;88.96529990813117;-83.68751748546666;116.63720518625195;0.6690297264099121;9.650727525550778;1.8110639548370613
1445509639072;88.96529990813117;-83.68751748546666;116.63720518625195;0.6690297264099121;9.650727525550778;1.8110639548370613
1445509639108;127.07514312568371;-86.01117577612648;146.4995921169928;3.9460933583466336;14.890587587738036;3.6094086037566884
1445509639142;129.93204506465946;-82.83910202220093;145.19409614825508;1.5907973655700682;10.457573722485453;3.4093431640625
1445509639175;129.93204506465946;-82.83910202220093;145.19409614825508;1.5907973655700682;10.457573722485453;3.4093431640625
1445509639208;122.47499897600123;-77.27901552680626;129.80550804839416;2.099265906613134;10.07120939304512;1.2876316077522467
1445509639241;114.14295425568204;-71.191127819735;114.88460177547711;5.900659629058837;11.860725679071248;2.9230209518432617
1445509639276;114.14295425568204;-71.191127819735;114.88460177547711;5.900659629058837;11.860725679071248;2.9230209518432617
1445509639309;111.62568235956384;-64.6825812967364;108.81624196906535;2.9668649158753455;11.456105306243895;7.950994075775146
1445509639345;118.80073606986869;-57.56995104101102;115.21509678062424;1.1071686302185058;9.509469572802633;3.5474586723327635
1445509639378;118.80073606986869;-57.56995104101102;115.21509678062424;1.1071686302185058;9.509469572802633;3.5474586723327635
1445509639414;126.95786034450096;-50.43887852241434;128.57226514629403;4.914996753642859;9.172336343792825;3.0410850212097165
1445509639448;132.7131769760797;-43.752708712514696;140.3018041141485;0.4686649749755859;4.2402807777404785;0.8873509902954101
1445509639482;138.55904158797597;-39.24851177422698;148.16742862419474;2.103006883239746;3.1338600432798263;1.8691233085632324
1445509639516;138.55904158797597;-39.24851177422698;148.16742862419474;2.103006883239746;3.1338600432798263;1.8691233085632324
1445509639553;143.34968556016676;-36.61175615989311;152.53958894380372;2.3870190551757813;1.830367169189453;2.4649799544736744
1445509639586;146.24942234594968;-37.880730960555944;153.9529908330202;5.529109458923339;2.0878937775209545;2.6174606727048753
1445509639623;146.24942234594968;-37.880730960555944;153.9529908330202;5.529109458923339;2.0878937775209545;2.6174606727048753
1445509639660;146.9657661417437;-41.61832018778673;150.9392820484497;7.1586629638671875;10.552742800085246;10.9804073638916
1445509639695;145.13120583453195;-44.24331321175034;146.77426262238117;-2.0024504135131833;18.41934214412272;10.29865844116211
1445509639728;145.13120583453195;-44.24331321175034;146.77426262238117;-2.0024504135131833;18.41934214412272;10.29865844116211
1445509639764;147.88924089494103;-48.669797251306825;146.02462019461595;0.2480991470336914;8.764723365020751;4.083610498864949
1445509639799;150.9789393068071;-53.873851437967936;140.95382769799315;1.2029368427552283;8.660575592803955;1.4559738845825194
1445509639832;154.02663633298732;-58.59327035456826;135.4097802348291;4.187458667080663;11.537358232824504;1.04701431350708
1445509639867;154.02663633298732;-58.59327035456826;135.4097802348291;4.187458667080663;11.537358232824504;1.04701431350708
