sep=;
timestamp;gyro-alpha;gyro-beta;gyro-gamma;accel-x;accel-y;accel-z
1445509539135;22.260800851229938;-42.133787610019915;153.84311444782364;-1.96638775100708;13.613729914855956;11.938985853576659
1445509539173;22.260800851229938;-42.133787610019915;153.84311444782364;-1.96638775100708;13.613729914855956;11.938985853576659
1445509539210;15.80386287638475;-50.65195737151393;141.61113060927931;-0.13257891693115234;7.321768207693658;3.990535763195902
1445509539243;16.878652615762714;-56.686689101801875;136.81892783133324;2.044947492980957;10.561272289630026;1.9514238445006309
1445509539278;16.878652615762714;-56.686689101801875;136.81892783133324;2.044947492980957;10.561272289630026;1.9514238445006309
1445509539313;18.345480322300823;-63.27873746164697;134.36480379280644;6.932710182189941;14.118607189941406;1.236306028393656
1445509539348;15.143499997168076;-69.09285148561513;130.23865296336498;4.99909306640625;8.88173973369887;1.3192051147460937
1445509539382;9.352656040274576;-73.32290017010047;124.4325444116239;1.5551836158752441;8.248473924310504;0.797418790435791
1445509539418;9.352656040274576;-73.32290017010047;124.4325444116239;1.5551836158752441;8.248473924310504;0.797418790435791
1445509539451;354.8349869393993;-76.17714165981377;106.88550004659236;-2.05736756022349;7.10075335734263;2.9961936670165508
1445509539484;338.06606386939677;-78.42146446034984;88.70041660275105;1.996015994268225;8.022371066638081;1.5548843772003427
1445509539522;338.06606386939677;-78.42146446034984;88.70041660275105;1.996015994268225;8.022371066638081;1.5548843772003427
1445509539555;328.1199785634145;-79.4957090893648;72.37575706186425;1.5641618995002935;6.8056678565979;-2.693925743954442
1445509539591;309.1298882926616;-81.10634892344751;51.30571550218641;4.590881683349609;10.235062715292536;0.45774142990112304
1445509539628;309.1298882926616;-81.10634892344751;51.30571550218641;4.590881683349609;10.235062715292536;0.45774142990112304
1445509539662;291.1753204054597;-82.22822174405222;31.138785553345556;2.6033950302124023;14.768483303070067;2.3820808681212364
1445509539696;303.46027506544806;-83.42265508462283;40.57198364217721;2.7760768249511716;18.70754358444214;2.9481601423401385
1445509539731;303.46027506544806;-83.42265508462283;40.57198364217721;2.7760768249511716;18.70754358444214;2.9481601423401385
1445509539765;349.5639434441069;-81.6863526281253;84.39838394776348;3.8726213314332067;12.143690387780964;3.64906259615249
1445509539801;16.290337361972714;-75.97923259285332;106.13754963001344;-0.8866028022766113;15.174150846862792;-2.0500352445740253
1445509539834;19.115911479003156;-67.99226416163421;108.33862628760251;4.562001625823974;15.330671780395507;2.8302457105774432
1445509539870;19.115911479003156;-67.99226416163421;108.33862628760251;4.562001625823974;15.330671780395507;2.8302457105774432
1445509539904;30.0475774490588;-59.37077927889147;120.16810821988986;0.9112930068969726;10.625915588323771;-1.3352163383483886
1445509539938;32.2329701642206;-51.28811928584506;133.2629848500647;6.686855745343118;10.154557428741455;-0.3338414939880371
1445509539971;32.2329701642206;-51.28811928584506;133.2629848500647;6.686855745343118;10.154557428741455;-0.3338414939880371
1445509540005;34.016195674345475;-43.75497777817484;147.98065835340094;-0.12075754623413085;1.9774609336853026;-1.709759260559082
1445509540040;34.74193817879178;-37.92731435663259;155.25966391681132;-0.27293898925781246;1.7390885231569408;0.6792050834655762
1445509540077;34.74193817879178;-37.92731435663259;155.25966391681132;-0.27293898925781246;1.7390885231569408;0.6792050834655762
1445509540112;33.110014802114115;-34.931482499007345;157.09453838169023;1.204432926531881;-0.5825391914367676;1.2713210815429687
1445509540147;29.68727351126549;-35.97829027201606;156.6682326148829;3.2941222274337894;-0.38037878875732417;2.8202199180603027
1445509540184;29.68727351126549;-35.97829027201606;156.6682326148829;3.2941222274337894;-0.38037878875732417;2.8202199180603027
1445509540219;25.586264329560823;-40.10202634704617;153.90843406356524;3.300855937869288;10.084676667785644;9.765200091497599
1445509540252;21.478931261752525;-44.53888710094159;149.53910928002136;1.984194625854492;14.85602130126953;11.605742910003661
1445509540285;17.940438654585492;-49.3019417343588;143.1344725634982;1.382202545928955;9.646387980242817;5.71570729508344
1445509540323;17.940438654585492;-49.3019417343588;143.1344725634982;1.382202545928955;9.646387980242817;5.71570729508344
1445509540359;16.636046005244943;-55.11892041275431;137.3249174847719;0.6159083770751953;8.64306784703359;2.8886043029785156
1445509540394;16.874810312854613;-61.70131788345211;132.8924026234969;4.263474606323242;14.185495198822021;1.9711762273926288
1445509540428;16.874810312854613;-61.70131788345211;132.8924026234969;4.263474606323242;14.185495198822021;1.9711762273926288
1445509540462;15.457703265016846;-67.75855451435928;130.06060198165815;4.561851988220215;9.522936957141011;1.1139023223876952
1445509540498;12.928958086733404;-73.0585690388079;127.00108593693666;2.9932009880065915;8.319102434893697;0.37334582138061523
1445509540532;1.3729871146780632;-76.49441745800728;114.08120240910459;0.17178396911621094;6.319645211847126;0.3908534210205078
1445509540567;1.3729871146780632;-76.49441745800728;114.08120240910459;0.17178396911621094;6.319645211847126;0.3908534210205078
1445509540603;325.11966315297576;-80.23748546777045;75.25361871920363;1.2415432714600114;8.8085672559876;0.2678513107299805
1445509540636;325.11966315297576;-80.23748546777045;75.25361871920363;1.2415432714600114;8.8085672559876;0.2678513107299805
1445509540672;325.11966315297576;-80.23748546777045;75.25361871920363;1.2415432714600114;8.8085672559876;0.2678513107299805
1445509540707;292.9985163341846;-83.04964684030708;36.968838773886276;3.3837550607543436;11.149049235589802;0.2389712532043457
1445509540742;268.98712105487925;-83.25382567030033;11.36285925198262;1.1353004997253417;18.4756052986145;1.2268787862915544
1445509540775;268.98712105487925;-83.25382567030033;11.36285925198262;1.1353004997253417;18.4756052986145;1.2268787862915544
1445509540809;287.8375777021136;-85.33491567421282;29.45876536146109;1.902941333947703;12.027571168871969;3.521721004486084
1445509540842;357.3145782545174;-81.9454769289651;96.5852721184934;4.779724339294433;13.12665951461792;3.775356614994723
1445509540875;357.3145782545174;-81.9454769289651;96.5852721184934;4.779724339294433;13.12665951461792;3.775356614994723
1445509540909;17.598719646634486;-74.30659993235675;111.19662717990617;2.464531355614582;14.5690163772583;-3.3666964469909666
1445509540943;23.250364931731678;-65.97917503013196;117.03869054516572;0.7703343841552734;13.308169927978515;8.170811715698242
1445509540978;23.250364931731678;-65.97917503013196;117.03869054516572;0.7703343841552734;13.308169927978515;8.170811715698242
1445509541014;28.75675548575445;-57.60324945749472;127.14111912314519;3.887435381140187;10.35641870234385;0.48123453369140623
1445509541050;30.83051723088684;-49.47168079923801;138.91397017793983;1.5396213050842285;7.728183610711619;-1.4769231491088866
1445509541083;32.39962268239734;-41.45895096899849;151.02447413258585;0.8267477607727051;1.0619780738830567;0.06359598159790039
1445509541117;32.39962268239734;-41.45895096899849;151.02447413258585;0.8267477607727051;1.0619780738830567;0.06359598159790039
1445509541152;32.71905027803707;-35.22347188058621;156.08402898766477;-0.10489596023559569;1.1140519599914551;1.3407529296874998
1445509541187;31.187655077161118;-32.42700442913874;158.69481681911373;1.8073229782104492;0.6977598540708422;1.622221262359619
1445509541221;31.187655077161118;-32.42700442913874;158.69481681911373;1.8073229782104492;0.6977598540708422;1.622221262359619
1445509541257;27.777399791887465;-34.29741801597969;158.8073627172544;3.5667619232177734;0.20350714111328125;4.661062011773884
1445509541309;23.022267124685744;-39.02189326281125;154.1455270561764;4.979041627502441;11.956792728424071;12.774262957763671
1445509541322;23.022267124685744;-39.02189326281125;154.1455270561764;4.979041627502441;11.956792728424071;12.774262957763671
1445509541356;18.467744192780213;-42.320524686515476;149.7736194569575;-1.735945548956096;6.957699808148294;4.607940516308695
1445509541390;15.853899433812668;-47.608579940288;144.8445548520576;-0.21682488784790038;8.013692377880961;4.0388688553407786
1445509541423;15.853899433812668;-47.608579940288;144.8445548520576;-0.21682488784790038;8.013692377880961;4.0388688553407786
1445509541459;16.045129990530665;-54.11715338184802;138.38484319739683;0.13347674255371092;11.449521251678465;2.219425085095316
1445509541493;17.34051606495802;-60.96873157113354;130.66324009866582;5.7125650150023395;11.912051377160846;1.3244424308776854
1445509541530;17.34051606495802;-60.96873157113354;130.66324009866582;5.7125650150023395;11.912051377160846;1.3244424308776854
1445509541566;15.101475634562775;-67.47237032177557;121.00001337321352;5.202600207519531;9.896881694262847;-0.11133037719726561
1445509541601;13.711524440490651;-74.18788657281627;114.85693322151327;4.6987703956604;8.653542625427246;-0.2510918991088867
1445509541634;5.618295352496997;-79.03642671673565;107.97475408886656;3.3303345092773435;6.184372525787353;-0.704194563293457
1445509541669;5.618295352496997;-79.03642671673565;107.97475408886656;3.3303345092773435;6.184372525787353;-0.704194563293457
1445509541703;337.26036316377196;-81.39901929260151;75.30895583830899;0.30256730786748226;6.223577285711467;0.5686228942871093
1445509541737;299.39079590427895;-81.23120848183865;35.979702590983614;-1.8305168067932127;6.589441811425983;-1.2967594650489742
1445509541775;299.39079590427895;-81.23120848183865;35.979702590983614;-1.8305168067932127;6.589441811425983;-1.2967594650489742
1445509541810;263.80925255726686;-79.88300983444675;0.3583565951398364;-0.6353612393061455;13.753341506902872;1.5346832641601562
1445509541843;242.0872130817262;-78.4608771072232;-23.94023587636599;8.983642887060343;6.687903354699909;-1.4033014845917
1445509541879;242.0872130817262;-78.4608771072232;-23.94023587636599;8.983642887060343;6.687903354699909;-1.4033014845917
1445509541913;238.36164910555294;-76.97156350583002;-27.644670713294428;3.310283143438771;12.596493484497069;1.3792096477232874
1445509541948;239.90643804140063;-77.67853129281191;-27.490701570706264;3.7901709386963396;17.992425476074217;-4.325873340960592
1445509541982;264.46705926250877;-82.29558555810377;-3.4690310394282995;3.7422867319632784;15.076886404418945;5.698649010113626
1445509542018;264.46705926250877;-82.29558555810377;-3.4690310394282995;3.7422867319632784;15.076886404418945;5.698649010113626
1445509542052;0.810331438047152;-83.09209360342759;92.92850411695342;-2.0887913839478043;13.919738814544678;2.99185427240564
1445509542085;30.21223801042097;-75.79630499036186;119.71752377285007;-1.5795746914185582;20.51322113353312;-1.7208324432373046
1445509542121;30.21223801042097;-75.79630499036186;119.71752377285007;-1.5795746914185582;20.51322113353312;-1.7208324432373046
1445509542154;26.907506325946162;-65.34062119565036;118.6151853274696;4.078073688330129;15.172654470825194;1.0332476539611817
1445509542188;29.991583153961408;-53.57898390688196;128.25438635889282;0.8866028022766113;9.584587649890034;0.45295302658081055
1445509542225;29.991583153961408;-53.57898390688196;128.25438635889282;0.8866028022766113;9.584587649890034;0.45295302658081055
1445509542261;33.27973999361574;-42.66012561721665;142.67549393462855;-0.4616320075988769;8.801384724072367;-0.40836102066040036
1445509542296;34.39783611448283;-28.904691866508028;162.2605019764883;2.406322342593409;1.648407843017578;2.270750637054443
1445509542330;34.39783611448283;-28.904691866508028;162.2605019764883;2.406322342593409;1.648407843017578;2.270750637054443
1445509542365;34.39783611448283;-28.904691866508028;162.2605019764883;2.406322342593409;1.648407843017578;2.270750637054443
1445509542399;28.6209601513633;-30.492628424028567;163.8718909648852;3.330633784484863;1.7851766128540039;7.800308899191208
1445509542434;25.43170888176906;-33.751944283151474;159.94230477633033;9.734375037384032;20.72346079777181;22.878991648975013
1445509542469;25.43170888176906;-33.751944283151474;159.94230477633033;9.734375037384032;20.72346079777181;22.878991648975013
1445509542505;21.634838368969827;-36.88635313785225;156.9006642633932;-2.213289797210693;7.968052762603759;4.825662791387736
1445509542539;19.978569799586307;-44.97449798027604;151.23578628181068;0.2867056488037109;9.679308691461383;2.559551504571736
1445509542575;19.978569799586307;-44.97449798027604;151.23578628181068;0.2867056488037109;9.679308691461383;2.559551504571736
1445509542611;19.717069382906846;-51.48277493274627;144.55954750602268;0.3667617668151855;11.440393650110066;3.3227032837465402
1445509542645;22.345978491094364;-58.563554993903814;140.36670230660468;3.045125199978612;11.8108960647583;1.1650783828735352
1445509542681;22.345978491094364;-58.563554993903814;140.36670230660468;3.045125199978612;11.8108960647583;1.1650783828735352
1445509542716;25.21348075317984;-66.2741589427911;138.33548031521795;5.38201569442749;10.620977839660643;-0.7677905448913573
1445509542749;23.6003534217101;-73.00696922113309;136.64168712948126;6.129305741473287;8.987084844207763;0.7752724250793457
1445509542783;10.615193459575142;-77.53173884063482;121.28556971555598;0.5295674797058105;6.580313625335693;2.324320899200439
1445509542816;10.615193459575142;-77.53173884063482;121.28556971555598;0.5295674797058105;6.580313625335693;2.324320899200439
1445509542849;349.7787708536066;-81.43179543392816;99.2773198939702;-0.3010708587646484;7.907150257873535;1.1282675140823237
1445509542883;349.7787708536066;-81.43179543392816;99.2773198939702;-0.3010708587646484;7.907150257873535;1.1282675140823237
1445509542917;328.61033579042504;-83.68441947350551;73.26486389900813;3.58950698511973;8.151059259741007;0.05282207412719726
1445509542951;313.6734427902433;-83.86973541399027;50.9452319399885;3.250727231011912;12.63794280847758;0.6443395217895508
1445509542985;286.8831376421345;-84.94006266538769;23.055911576312017;1.2835914015838876;14.464718967437744;0.39594109954833984
1445509543021;286.8831376421345;-84.94006266538769;23.055911576312017;1.2835914015838876;14.464718967437744;0.39594109954833984
1445509543055;270.2809075871012;-85.37610876087663;5.388924657405602;2.1900960051605476;19.467253698730467;1.8219874633789062
1445509543089;332.7557708612525;-87.27517264470156;67.72241217544804;1.0736498435089363;9.832686849439364;4.558410451197903
1445509543126;332.7557708612525;-87.27517264470156;67.72241217544804;1.0736498435089363;9.832686849439364;4.558410451197903
1445509543161;23.450526199173922;-80.77883884366447;117.45235615706574;2.5472809288024902;15.641917996215819;1.8388965126037597
1445509543196;26.806410746439443;-72.14235874602856;116.2707936936093;4.383334326934814;13.460949921417235;-6.91939228932485
1445509543229;26.806410746439443;-72.14235874602856;116.2707936936093;4.383334326934814;13.460949921417235;-6.91939228932485
1445509543265;25.92291727882694;-63.8453527043117;115.681891528021;0.6148609138488769;12.642881141662597;9.788693487548828
1445509543300;30.453491808888216;-54.82802514190624;129.19916764220295;3.7684735226837915;10.174309446307271;1.6157868453979491
1445509543369;34.56666684087793;-46.15998245733117;145.54141320650854;-1.265934420068562;3.5148376747131347;-2.869151414489746
1445509543334;34.56666684087793;-46.15998245733117;145.54141320650854;-1.265934420068562;3.5148376747131347;-2.869151414489746
1445509543403;39.20286283004537;-39.24867467896618;157.14790893980324;0.647332273864746;2.0441990127012133;1.070657054901123
1445509543437;42.08559967811304;-35.3536839651064;163.70202082812497;1.0820295858521014;1.241093993322551;1.0842740768432617
1445509543473;42.08559967811304;-35.3536839651064;163.70202082812497;1.0820295858521014;1.241093993322551;1.0842740768432617
1445509543508;40.77701947878921;-36.916243985876044;163.96753826188183;2.430563579603564;-0.9783306533813476;3.010708587646484
1445509543542;36.76431707148665;-42.7630398658434;157.88348282340803;5.307047254943847;10.791265140478313;10.50515804208964
1445509543577;36.76431707148665;-42.7630398658434;157.88348282340803;5.307047254943847;10.791265140478313;10.50515804208964
1445509543611;32.83257691220497;-47.565434355289895;152.4664303575487;7.454646144104004;20.181623619079588;13.607145860290526
1445509543645;29.17884463787558;-51.965241991660186;147.6418921351386;-1.655440810394287;5.119102424621582;2.325069087219238
1445509543679;29.17884463787558;-51.965241991660186;147.6418921351386;-1.655440810394287;5.119102424621582;2.325069087219238
1445509543715;29.331534639604875;-58.27096511875727;141.95728784280087;1.5527894142150878;13.66296068649292;1.1034276901245117
1445509543749;28.93330335398049;-65.09670251812304;136.60812595035645;3.8968624771118163;12.344803034973143;1.452232798358053
1445509543784;27.20143378594168;-71.31918338901488;132.81847018250866;4.593126247406006;10.155155686895549;1.8881272477081044
1445509543817;27.20143378594168;-71.31918338901488;132.81847018250866;4.593126247406006;10.155155686895549;1.8881272477081044
1445509543854;24.58750297678446;-75.35791055787959;132.50686278974308;2.083105063673388;6.974608711242675;-1.5497966621398924
1445509543888;9.789718603326994;-78.53146255765077;115.57948976941813;-3.1390975055418906;5.893327678735554;1.8347066596984862
1445509543922;9.789718603326994;-78.53146255765077;115.57948976941813;-3.1390975055418906;5.893327678735554;1.8347066596984862
1445509543957;347.82576544641597;-81.67172935136678;93.473966189103;1.5403694291709455;10.070311530889942;0.8330325218643061
1445509543992;326.7981478131941;-83.21879701370864;69.2883944035755;2.0904373245239256;8.326435115869343;-0.36840778045654293
1445509544029;326.7981478131941;-83.21879701370864;69.2883944035755;2.0904373245239256;8.326435115869343;-0.36840778045654293
1445509544064;303.323888008102;-84.67352205490249;41.617636389760946;1.8333599212646483;12.042085870306193;0.30840310134887694
1445509544100;274.4664077217569;-85.73162912836457;10.378993227081645;0.5400421119689941;14.797064085388183;1.937058853735402
1445509544133;261.7738932029127;-86.29450561112976;-3.8403888674476083;3.8910266333980714;20.988469578552245;1.352275025177002
1445509544169;261.7738932029127;-86.29450561112976;-3.8403888674476083;3.8910266333980714;20.988469578552245;1.352275025177002
1445509544205;26.676038352707558;-78.6708342799497;117.22342225039344;0.6953658716063946;18.664148679351804;-1.7981951574463397
1445509544239;31.76264437150351;-70.23768660936648;119.30342425883264;4.4464812495909625;12.243199394281207;-3.676745561981201
1445509544274;31.76264437150351;-70.23768660936648;119.30342425883264;4.4464812495909625;12.243199394281207;-3.676745561981201
1445509544309;34.915648631087464;-61.566458953549585;123.88857042058181;1.803582038116455;12.608314562933145;6.789357357788085
1445509544344;37.997868880969484;-51.774666628172874;135.52810527598126;2.5954642372131347;10.729016189575194;-0.7781155395507812
1445509544377;37.997868880969484;-51.774666628172874;135.52810527598126;2.5954642372131347;10.729016189575194;-0.7781155395507812
1445509544414;40.983085501790875;-42.49119387566896;149.6303947231378;-1.2448352256774902;1.1655272956848144;-1.4246996253967283
1445509544448;44.19831474634625;-35.10183084671665;156.93092813742308;0.3939958106994629;1.3491326354980469;0.7125742691040039
1445509544483;46.60960591887862;-30.86290224919475;162.21707471117037;0.3598782909117639;0.5162500252321363;1.1953051788330078
1445509544519;46.60960591887862;-30.86290224919475;162.21707471117037;0.3598782909117639;0.5162500252321363;1.1953051788330078
1445509544552;46.19878879279579;-32.167607591542605;163.56699505755154;3.565564822387695;1.44924019241333;5.139004225921631
1445509544586;41.568858807811694;-37.127175020573524;159.92908663569816;5.29926609954834;10.358812757873535;13.04346100692749
1445509544623;41.568858807811694;-37.127175020573524;159.92908663569816;5.29926609954834;10.358812757873535;13.04346100692749
1445509544659;36.657028088298475;-42.09853122781032;156.91792653664106;2.2694038620879873;20.81922886417806;13.412018424987792
1445509544692;33.00394880548463;-47.16932433594284;154.31738235583364;-1.5212158798217772;4.08301194844991;3.2799069290712475
1445509544729;33.00394880548463;-47.16932433594284;154.31738235583364;-1.5212158798217772;4.08301194844991;3.2799069290712475
1445509544763;32.69062875421965;-53.82048960132172;150.61222370433978;-1.474229672241211;6.858190655517578;2.466775897979736
1445509544797;34.74138887479831;-60.96090642838607;147.69574864753696;3.433434745202586;16.79712029724121;2.6773160064697263
1445509544833;32.93111647697265;-66.94971747984962;143.88710141572327;4.0267479171752925;9.003844351726979;0.9006687370300293
1445509544868;32.93111647697265;-66.94971747984962;143.88710141572327;4.0267479171752925;9.003844351726979;0.9006687370300293
1445509544902;27.13028965950382;-72.38933805863903;135.8337052868152;2.561945377438329;8.494028647558391;1.064222637939453
1445509544936;14.858042951072045;-76.51908177802032;121.5935718612641;-1.6133924976073204;6.431125226648152;1.2973580337303223
1445509544973;14.858042951072045;-76.51908177802032;121.5935718612641;-1.6133924976073204;6.431125226648152;1.2973580337303223
1445509545007;354.7178413472127;-79.8386239421566;100.2672850305792;0.7228992637634277;7.937376907702535;0.7043442008972167
1445509545040;332.9291386500625;-81.86191224713168;74.0261900381743;1.6521487831115722;9.860669385019829;-0.23687630848539992
1445509545076;332.9291386500625;-81.86191224713168;74.0261900381743;1.6521487831115722;9.860669385019829;-0.23687630848539992
1445509545109;309.19684949735966;-83.7426252885426;45.40082881177208;1.795950520324707;10.318560425125249;0.6129155519347638
1445509545145;280.99829023494476;-84.5042289734314;16.39237419772115;3.119046157969627;11.32113233378306;-2.4191910669188945
1445509545179;280.99829023494476;-84.5042289734314;16.39237419772115;3.119046157969627;11.32113233378306;-2.4191910669188945
1445509545215;265.0094419308554;-84.35947095406011;-1.8118967397551025;0.7950245545263053;22.304083975329995;1.3013982398986816
1445509545251;300.2960443904312;-87.73530710335145;31.97562899746351;0.5301660483871586;12.706327485656738;5.2654478184355415
1445509545284;34.10480023793983;-81.11720479760045;122.71987697009706;5.52132815739736;14.084789383752643;2.046144593811035
1445509545320;34.10480023793983;-81.11720479760045;122.71987697009706;5.52132815739736;14.084789383752643;2.046144593811035
1445509545355;40.33840154841877;-70.84799503822224;122.20678577239413;2.3901615179199722;12.802245481927692;-5.061791076251119
1445509545389;39.12489066912932;-62.30561323647605;120.56680140302129;-0.1680430290222168;10.970381644439696;9.863662073162942
1445509545423;39.12489066912932;-62.30561323647605;120.56680140302129;-0.1680430290222168;10.970381644439696;9.863662073162942
1445509545459;43.11088725430347;-53.018708221635166;129.59408477219645;5.14932929364629;10.820744332940876;-0.7477391059875488
1445509545494;46.259724975957525;-43.9049419132277;144.47680815705783;-1.5090952339172363;4.068197533416748;-0.4421791191101074
1445509545528;46.259724975957525;-43.9049419132277;144.47680815705783;-1.5090952339172363;4.068197533416748;-0.4421791191101074
1445509545563;50.057689126319666;-36.28502635841003;155.75579145404095;-0.4665700485229492;0.19288287124633788;0.7855974197387695
1445509545598;53.70406517966217;-31.237691741958557;162.00775241414698;0.4632778751097619;1.0983403038576245;0.9934440513610839
1445509545631;53.70406517966217;-31.237691741958557;162.00775241414698;0.4632778751097619;1.0983403038576245;0.9934440513610839
1445509545667;55.03958893401957;-29.980252026441587;165.63495380923993;2.1498433938510484;1.6949451377868652;1.9437924728393554
1445509545700;52.30586318508768;-33.74626182177468;164.5255899250361;2.988113382543996;1.200842062433064;5.682787277984619
1445509545733;48.1693154778876;-39.12610967875584;157.52074310542474;2.7665000000442377;16.96486405105591;16.45789184951782
1445509545766;48.1693154778876;-39.12610967875584;157.52074310542474;2.7665000000442377;16.96486405105591;16.45789184951782
1445509545803;40.42650485581514;-47.45845265469664;149.72557197218583;-3.0946552833557126;6.366182360485941;4.46443805430308
1445509545837;40.42650485581514;-47.45845265469664;149.72557197218583;-3.0946552833557126;6.366182360485941;4.46443805430308
1445509545871;40.42650485581514;-47.45845265469664;149.72557197218583;-3.0946552833557126;6.366182360485941;4.46443805430308
1445509545905;41.9710250549635;-60.43400067531202;139.57306311813335;5.849483568572998;12.664428664343058;1.3308768478393553
1445509545939;39.62719066394711;-66.52847662628812;133.8074906613205;4.584147845049947;9.205555745697021;1.4004584797181188
1445509545974;39.62719066394711;-66.52847662628812;133.8074906613205;4.584147845049947;9.205555745697021;1.4004584797181188
1445509546007;34.95760359868455;-72.1340543416749;127.87325877161751;3.6777930252075195;9.482235729847755;0.6949170318603515
1445509546042;23.47718620638932;-75.8429500971701;113.11156862374096;-2.5938182235717773;5.6352028122499584;1.6603788513183593
1445509546076;23.47718620638932;-75.8429500971701;113.11156862374096;-2.5938182235717773;5.6352028122499584;1.6603788513183593
1445509546112;5.701856329402312;-78.8295906764116;93.19789363024611;2.363675662054494;9.66554155699145;1.1216834960495121
1445509546146;352.20867437937017;-79.9897083618462;76.75673242158523;2.0386627501556647;9.548974146790384;0.25902272864077236
1445509546181;352.20867437937017;-79.9897083618462;76.75673242158523;2.0386627501556647;9.548974146790384;0.25902272864077236
1445509546217;345.4327994475219;-81.23931903178661;66.26310724948895;1.58331548538208;9.712378028786846;-1.07245270614624
1445509546251;341.64104934667347;-82.87387547505247;56.35478609457583;-0.8022071937561035;11.782016007232665;1.5888521497864274
1445509546285;338.0274813536435;-83.96883891132673;49.03215064028102;0.6923731651969719;18.657265349578857;-1.826626229095459
1445509546320;338.0274813536435;-83.96883891132673;49.03215064028102;0.6923731651969719;18.657265349578857;-1.826626229095459
1445509546354;359.96976565345284;-84.58380567337288;67.08469260648616;-0.5500678314208984;9.572616678121872;1.347785897064209
1445509546388;32.33132141150164;-83.31366372728804;93.3060025847994;0.9431658164978027;10.274117983743361;-3.28274976498147
1445509546422;32.33132141150164;-83.31366372728804;93.3060025847994;0.9431658164978027;10.274117983743361;-3.28274976498147
1445509546458;46.5029495584801;-82.21338955975634;102.4885785654938;-4.577264807537943;9.506476875526364;-0.6287772292648441
1445509546492;61.81296806726255;-82.7517223686196;115.45711890041515;-2.823961004284769;9.778967070703906;1.301847189242579
1445509546530;61.81296806726255;-82.7517223686196;115.45711890041515;-2.823961004284769;9.778967070703906;1.301847189242579
1445509546566;84.7510674151248;-82.04004686065245;132.01148084745995;-0.10040683212280273;9.188047999926656;0.437390752322413
1445509546600;101.815108420776;-79.88335144168194;140.53713819673692;-0.5781997009277343;7.499088512420654;-2.185457202911377
1445509546633;106.92321473395954;-78.53688340413737;137.89625582966897;2.068141394628957;8.188169531603902;-0.08334814529418945
1445509546667;106.92321473395954;-78.53688340413737;137.89625582966897;2.068141394628957;8.188169531603902;-0.08334814529418945
1445509546700;103.79477719237126;-77.03513821355882;123.64686455565848;0.7525275823730975;6.9119108475282784;0.5568015235900878
1445509546735;99.85917112635681;-75.54177283840983;108.20022801584884;1.590348452758789;7.862857381030172;1.5792752700805663
1445509546768;99.85917112635681;-75.54177283840983;108.20022801584884;1.590348452758789;7.862857381030172;1.5792752700805663
1445509546804;100.93153304156942;-74.00414106147865;101.04489735883845;2.126649734231643;7.742399110003561;1.6071079009125009
1445509546838;105.80532679236896;-72.97336681395242;100.2230915773078;4.646397380474955;8.205527858966216;1.914014589691162
1445509546872;105.80532679236896;-72.97336681395242;100.2230915773078;4.646397380474955;8.205527858966216;1.914014589691162
1445509546908;115.77823231015701;-72.97806165238023;108.74170727261875;4.564395681353658;7.475146495819091;1.5427636947631835
1445509546942;122.13793185665887;-73.39709157308403;114.81502289794719;1.3560161114014684;8.160786288507282;2.129642376708984
1445509546976;122.13793185665887;-73.39709157308403;114.81502289794719;1.3560161114014684;8.160786288507282;2.129642376708984
1445509547012;127.07149465350828;-73.61286717806028;115.87801462629425;-0.04908113403320312;7.556100293322652;1.4173673645461908
1445509547047;132.7373872682471;-74.40695262623628;118.15134037756842;1.4725837316650896;7.877671796063333;3.249081290435791
1445509547081;132.7373872682471;-74.40695262623628;118.15134037756842;1.4725837316650896;7.877671796063333;3.249081290435791
1445509547117;139.8752218582469;-75.79145281417965;124.17288217746788;2.7370214103698727;5.7040358177185055;2.5547628089904784
1445509547152;147.0558027424873;-77.17258478849344;131.5671341086542;5.768529624938965;7.933037563323974;4.774337531689554
1445509547186;149.1699969124174;-76.99462761347364;130.80525436720598;3.09630129699707;9.312546577586327;6.235099527331442
1445509547222;149.1699969124174;-76.99462761347364;130.80525436720598;3.09630129699707;9.312546577586327;6.235099527331442
1445509547255;147.18087957569674;-76.2196467633568;126.79048810915236;0.9479542928833514;12.003629298400877;-4.255843234661966
1445509547289;142.11049063782846;-77.86086240236406;118.08961231467906;-7.655160533142089;46.333636821526284;22.997204406097158
1445509547326;142.11049063782846;-77.86086240236406;118.08961231467906;-7.655160533142089;46.333636821526284;22.997204406097158
1445509547360;162.51743458525834;-75.76454912756765;128.69577816727443;-0.6485292285643518;2.7067946144104003;-8.829217464502156
1445509547393;147.9502306251463;-78.45070445278618;103.34100722197172;1.9900305472000501;15.291466728210448;-3.5664626845428717
1445509547429;147.9502306251463;-78.45070445278618;103.34100722197172;1.9900305472000501;15.291466728210448;-3.5664626845428717
1445509547462;135.15566479228826;-80.15270880918446;80.42930151949774;4.229357378796488;9.006538024957477;3.6562452833313492
1445509547497;134.13118746760713;-80.93479473623125;74.6198308279509;2.4940099418640136;8.27974789123535;-0.6242880828857421
1445509547531;123.7998163257024;-81.29032416761096;54.34780247891106;4.262726491369679;10.180744192062503;2.5157072482787073
1445509547564;123.7998163257024;-81.29032416761096;54.34780247891106;4.262726491369679;10.180744192062503;2.5157072482787073
1445509547599;123.7998163257024;-81.29032416761096;54.34780247891106;4.262726491369679;10.180744192062503;2.5157072482787073
1445509547632;124.62969433088935;-82.11141222856274;50.17505695285007;1.692401298522949;10.153360218313521;-0.07018003616333007
1445509547669;124.62969433088935;-82.11141222856274;50.17505695285007;1.692401298522949;10.153360218313521;-0.07018003616333007
1445509547703;121.65487545884795;-82.62170516260457;45.34280698392568;1.4767734749725088;9.509020988784917;0.010773907470703125
1445509547737;115.94504297650974;-83.24886466980037;37.82046591539642;2.069637624536082;9.26241807165835;0.1610100616455078
1445509547774;115.94504297650974;-83.24886466980037;37.82046591539642;2.069637624536082;9.26241807165835;0.1610100616455078
1445509547809;107.82984903667256;-83.75877291663978;28.12712523835544;2.687042487246729;9.131484912640229;0.7902361854553223
1445509547842;103.45335074256325;-84.082521701245;21.844779488107832;3.702632757833786;8.979153978143259;1.5120880590576677
1445509547876;103.45335074256325;-84.082521701245;21.844779488107832;3.702632757833786;8.979153978143259;1.5120880590576677
1445509547911;112.29733236956982;-84.97653011259551;27.534085369909832;4.175936498525925;7.2204630019590255;1.8347068058289586
1445509547945;152.73374607295804;-85.74745011479149;62.8711933802371;1.887828009033203;5.7655365806028245;0.46238019561767574
1445509547983;152.73374607295804;-85.74745011479149;62.8711933802371;1.887828009033203;5.7655365806028245;0.46238019561767574
1445509548018;193.74525863899058;-84.79072572269256;101.54012797543496;3.3186627761840817;7.433846371050923;-0.6600514519180171
1445509548053;211.45306876733136;-83.35690384618906;121.03537404001806;5.33892021067515;7.421276812335103;-1.4124293418884277
1445509548086;215.1470644450514;-83.02303492942728;127.91149853744062;4.907963765716552;7.512556042889505;1.7717092285156248
1445509548122;215.1470644450514;-83.02303492942728;127.91149853744062;4.907963765716552;7.512556042889505;1.7717092285156248
1445509548158;221.6042272353551;-80.31790758613475;137.10611032212486;4.340687609863281;15.243133782196043;3.929333837127685
1445509548196;219.49845362600792;-74.51919665975251;137.01087592691138;-0.33309330596923825;15.027505995178222;2.0096330367599613
1445509548233;219.49845362600792;-74.51919665975251;137.01087592691138;-0.33309330596923825;15.027505995178222;2.0096330367599613
1445509548267;209.91024963566127;-68.27475660731419;129.16056937176586;3.694552509893849;18.682853379821776;0.08364742050170898
1445509548301;202.01177358687116;-64.72180799617594;120.472185622465;3.9710826920440416;14.087033655548096;5.270834808703512
1445509548335;200.53051054469006;-63.26672198711018;120.89420393104592;2.137872298785299;9.922918491186573;6.713191817474365
1445509548368;200.53051054469006;-63.26672198711018;120.89420393104592;2.137872298785299;9.922918491186573;6.713191817474365
1445509548403;203.4158777551157;-62.56148776939153;125.87150740858546;-1.7697636474058032;7.702296159130707;3.6789901991028335
1445509548437;207.07291896178626;-62.85127420633573;132.770329843698;1.7495628631591795;6.317998613683879;-0.4121019607543945
1445509548473;207.07291896178626;-62.85127420633573;132.770329843698;1.7495628631591795;6.317998613683879;-0.4121019607543945
1445509548507;210.61881980126847;-65.38905907272722;136.7468334709572;-1.9535189170837401;5.119850904901325;-0.7668927192687988
1445509548542;214.16486141136465;-70.25650356128224;138.07684380789883;-0.05731120223999023;6.619518969781696;0.7044936923705041
1445509548576;214.16486141136465;-70.25650356128224;138.07684380789883;-0.05731120223999023;6.619518969781696;0.7044936923705041
1445509548612;220.46508923301187;-76.53116750419707;142.32143979322885;3.0916625312805173;9.863661744369379;2.5143605829101054
1445509548648;237.11362913483296;-80.97958824542596;159.55665049663102;11.412860184887796;12.957120401819049;7.8411599284850055
1445509548684;220.5386176152295;-79.60267121038835;139.71183368896553;4.334253265966847;6.935852571868896;4.836137715911865
1445509548717;220.5386176152295;-79.60267121038835;139.71183368896553;4.334253265966847;6.935852571868896;4.836137715911865
1445509548754;205.58235222557576;-77.20289288857161;121.81938747698219;-0.9180265529356897;4.023904802703857;2.044797855377197
1445509548787;210.18550627279043;-77.00221316366734;124.80770155333484;-1.755398583575338;3.464110527038574;1.5664064361572265
1445509548822;210.18550627279043;-77.00221316366734;124.80770155333484;-1.755398583575338;3.464110527038574;1.5664064361572265
1445509548858;222.28528618803546;-79.47699907359244;143.33535657438014;3.117998676477;7.344811996813863;1.4294879762014023
1445509548892;222.9475017783411;-82.05749516278651;149.42969164093915;6.235399094799906;16.41494585723877;-1.3126209140501917
1445509548927;222.9475017783411;-82.05749516278651;149.42969164093915;6.235399094799906;16.41494585723877;-1.3126209140501917
1445509548962;204.53857977476446;-81.82351571828907;125.97195895367639;-7.268347181292623;4.731690668487548;0.7133224845222663
1445509548998;209.39293970170016;-81.93919825643249;122.93551512447883;2.0087351928710935;10.795754487786814;0.7148188468601321
1445509549032;221.20128557783644;-80.19935911790974;135.64145227012102;-0.43275187700800594;11.784858975573629;-7.177068389129638
1445509549069;221.20128557783644;-80.19935911790974;135.64145227012102;-0.43275187700800594;11.784858975573629;-7.177068389129638
1445509549104;198.0773681318569;-84.23789014990984;108.54240742081485;0.6667851988861337;11.833640980529784;3.0406361814636735
1445509549143;171.86596093988837;-85.86506888019875;78.81188451861135;0.23223759756777435;7.360524091339111;1.0642226470726075
1445509549175;171.86596093988837;-85.86506888019875;78.81188451861135;0.23223759756777435;7.360524091339111;1.0642226470726075
1445509549213;137.9005048878806;-86.86694091077534;42.94881592385465;2.458545793240331;8.600421203027292;1.5237597556183113
1445509549249;105.34842073421514;-86.13916298509693;8.519482085398225;3.634996752730617;8.324489680889993;0.6563106031555682
1445509549283;95.03313819180154;-85.7180429486944;-3.4406505539509444;4.543745701167965;9.683348797165044;0.9808745657104998
1445509549320;95.03313819180154;-85.7180429486944;-3.4406505539509444;4.543745701167965;9.683348797165044;0.9808745657104998
1445509549354;77.16707422394187;-87.90051350085432;-21.839123617932973;2.420986718164012;6.1358899421691895;-0.3901052147353999
1445509549388;244.72387134996006;-89.21241057478719;144.90740067087708;3.942352436518948;6.4275336318969725;1.9859902497001456
1445509549425;244.72387134996006;-89.21241057478719;144.90740067087708;3.942352436518948;6.4275336318969725;1.9859902497001456
1445509549461;252.0323978853045;-84.01654928577913;154.21280169688046;0.8848071510314941;6.930764601080119;3.6358944961547848
1445509549494;253.75254468336587;-78.13917922269802;162.15139638742772;2.5483284650940448;6.59812020792216;0.020500351715087888
1445509549530;253.75254468336587;-78.13917922269802;162.15139638742772;2.5483284650940448;6.59812020792216;0.020500351715087888
1445509549564;249.57747476914696;-72.87765149623354;160.7184977841645;4.499004121575877;14.427608841705322;1.896207787908986
1445509549598;249.57747476914696;-72.87765149623354;160.7184977841645;4.499004121575877;14.427608841705322;1.896207787908986
1445509549633;224.3532097335919;-61.20102906740839;139.9439992481911;-1.1369465133666992;14.375385317993164;6.860734494781494
1445509549667;224.3532097335919;-61.20102906740839;139.9439992481911;-1.1369465133666992;14.375385317993164;6.860734494781494
1445509549701;216.0581501581169;-60.234216419570544;132.45286395774914;5.508609107208252;9.10649557894282;2.0676924087524413
1445509549734;212.28390337056894;-60.786038542453085;133.12723214953704;-1.8375494819089768;5.4082019828245045;2.5142109453063455
1445509549770;212.28390337056894;-60.786038542453085;133.12723214953704;-1.8375494819089768;5.4082019828245045;2.5142109453063455
1445509549803;209.69955019649146;-63.36830940991539;134.78419144438251;-2.123507234954834;4.144811694280803;1.6669630520142613
1445509549838;209.74275225528987;-68.60504908173839;136.45651035274307;-1.3817536331176756;5.445013125610351;0.5813422367371618
1445509549872;209.74275225528987;-68.60504908173839;136.45651035274307;-1.3817536331176756;5.445013125610351;0.5813422367371618
1445509549909;211.57644529926066;-74.38983399671989;137.85346728544863;-0.16175824966430663;8.889670983355865;1.9210475981670663
1445509549943;217.15614192202418;-79.17980343205548;144.16030859923913;3.587411985601857;10.401908241625875;4.82805743143931
1445509549977;217.15614192202418;-79.17980343205548;144.16030859923913;3.587411985601857;10.401908241625875;4.82805743143931
1445509550010;218.15137459237945;-81.62433263340212;146.76292684793538;3.9963715566772966;9.375843375308252;1.6953940140655264
1445509550044;211.36621505727805;-82.58506000352187;136.51377733375898;0.8870516911133599;9.035118368884175;4.438999515533447
1445509550077;211.36621505727805;-82.58506000352187;136.51377733375898;0.8870516911133599;9.035118368884175;4.438999515533447
1445509550115;204.5935145570772;-83.05824455854977;128.8606862693445;2.4984989969115703;4.631134198760986;2.440140404510498
1445509550150;209.63176744917908;-83.58587279230171;134.37841435309443;2.4627356826782223;3.2960674980163573;-0.7133225301880389
1445509550186;212.65542928174557;-84.88617027160252;142.35218950837262;1.8374001000335438;14.656704305322467;-0.994641152191162
1445509550221;212.65542928174557;-84.88617027160252;142.35218950837262;1.8374001000335438;14.656704305322467;-0.994641152191162
1445509550256;167.2619876894255;-85.62056983877928;93.90093783496886;-3.2199019577026364;11.089193609564006;4.541800599548756
1445509550291;169.02245776048505;-85.95620298286832;90.10992788993941;4.7499466022767125;6.739528035736083;-1.071554852838807
1445509550324;169.02245776048505;-85.95620298286832;90.10992788993941;4.7499466022767125;6.739528035736083;-1.071554852838807
1445509550362;186.64969925838517;-84.97859264761202;109.73635401991706;-2.8748377895630894;10.522067310510202;-10.88882964358097
1445509550398;139.42968778863622;-85.27916858119495;56.3000367187162;0.049530046844482416;11.779921226910501;0.2823661948272958
1445509550432;110.83849596937411;-84.36052193598212;25.494691776328565;0.3248632286292966;8.930222554779052;1.5988778692383319
1445509550469;110.83849596937411;-84.36052193598212;25.494691776328565;0.3248632286292966;8.930222554779052;1.5988778692383319
1445509550504;89.63844471939909;-84.18011248234622;2.4780965043213765;1.6184802674666978;8.311022150421142;-0.21158757171630857
1445509550537;78.60732845582407;-82.69718802985676;-8.876004608613737;1.6795324280669912;8.734197513049468;-0.7249942267486825
1445509550573;78.60732845582407;-82.69718802985676;-8.876004608613737;1.6795324280669912;8.734197513049468;-0.7249942267486825
1445509550608;72.07319362418636;-81.07279195005859;-15.785605370736441;2.329109375585988;8.523956679766997;1.2060789401732384
1445509550642;67.43698017176143;-81.0535156468318;-21.59857265741612;1.706467233276367;7.258471391705423;0.04189852905273437
1445509550677;67.43698017176143;-81.0535156468318;-21.59857265741612;1.706467233276367;7.258471391705423;0.04189852905273437
1445509550711;65.49233102634312;-82.26629000703605;-23.653190529216715;3.6420296744415532;7.510461116436868;-0.20530279235839843
1445509550746;65.33158497365773;-85.58953802597894;-27.894146353456275;1.9270330246856435;7.076661557006836;4.33649790308848
1445509550779;65.33158497365773;-85.58953802597894;-27.894146353456275;1.9270330246856435;7.076661557006836;4.33649790308848
1445509550812;300.36098802914364;-89.45362998062028;-151.34522317120434;1.8365023292099125;7.029974624633788;0.9576806731956544
1445509550849;253.06059423146377;-83.40883601929367;161.8647677921174;0.3779845711141475;10.994473444775492;3.375375501074269
1445509550884;244.08717455638467;-74.75571187393813;154.48489770546158;5.457283555249124;21.61874258106649;2.4070704392806626
1445509550917;244.08717455638467;-74.75571187393813;154.48489770546158;5.457283555249124;21.61874258106649;2.4070704392806626
1445509550953;226.67436863273448;-62.65829182339672;143.40670734139644;0.5488705844603479;8.951920080389455;1.914014589691162
1445509550987;222.86015152019687;-63.17311044887397;140.544979338754;1.4184148460388182;8.460659553251508;0.6860884132385253
1445509551022;222.86015152019687;-63.17311044887397;140.544979338754;1.4184148460388182;8.460659553251508;0.6860884132385253
1445509551055;218.05314393282652;-66.07754308033716;137.85242607426622;-3.0138509773254394;4.88402174911499;-0.053719899749755856
1445509551090;212.90235234868172;-71.4890299654751;131.29798824151084;-3.1829414695739744;5.7004442229673264;1.5682021604675798
1445509551123;212.90235234868172;-71.4890299654751;131.29798824151084;-3.1829414695739744;5.7004442229673264;1.5682021604675798
1445509551160;211.30080703723283;-78.10086089971132;128.5251575615149;1.6259622115867678;9.454702602552203;3.8988076198302206
1445509551195;223.13817157625672;-81.345153654619;144.3419204934345;3.5110968076843765;9.02509264943227;3.303998291015625
1445509551228;223.13817157625672;-81.345153654619;144.3419204934345;3.5110968076843765;9.02509264943227;3.303998291015625
1445509551265;226.5666335362206;-82.08983797247168;148.38251250123866;3.2068834131103006;9.629479095414746;0.021697452545166016
1445509551301;224.59429152808343;-81.90103456620777;141.998101587561;1.3813047568390144;8.558821803051606;3.2350153556823726
1445509551335;218.1561866202809;-82.30281819986979;136.03870447979642;1.6193781478881835;7.149236087091267;2.9644704950194805
1445509551371;218.1561866202809;-82.30281819986979;136.03870447979642;1.6193781478881835;7.149236087091267;2.9644704950194805
1445509551404;217.04969628205424;-82.95997381044573;135.3333500577601;1.5319897872924804;6.063166066741943;-1.293467446899414
1445509551438;213.7092619916682;-85.00159650763368;136.6221987155418;1.6244658629486337;14.073266703741252;3.8805519783020017
1445509551475;213.7092619916682;-85.00159650763368;136.6221987155418;1.6244658629486337;14.073266703741252;3.8805519783020017
1445509551511;162.88039948781847;-86.505125217853;83.5610786092933;-9.173682826498336;12.164340230969339;4.901080655139312
1445509551544;116.795263659237;-86.83229644354422;33.12098108950595;7.623587254477106;20.318542026519776;4.852298723248392
1445509551579;116.795263659237;-86.83229644354422;33.12098108950595;7.623587254477106;20.318542026519776;4.852298723248392
1445509551613;158.0425247769125;-86.85530625877644;70.63058445444662;-0.9569324029784649;10.628310301440582;-6.7218709446229035
1445509551648;151.26804907318297;-86.74896939930633;60.97705952330405;0.501285980586725;12.686425976617633;-1.3136685234069823
1445509551682;124.52942884754476;-86.73559927434408;32.7463337458223;0.36526539534416513;6.7657146163940425;-1.0733505317687988
1445509551719;124.52942884754476;-86.73559927434408;32.7463337458223;0.36526539534416513;6.7657146163940425;-1.0733505317687988
1445509551756;97.35971681874372;-85.60286755318123;2.749053984301289;-1.992275033624633;9.887903346705716;1.993023098345846
1445509551790;77.83480134998842;-84.45210217096047;-19.421628471115024;2.949656518377736;8.474127138519286;-1.0934019889389164
1445509551824;77.83480134998842;-84.45210217096047;-19.421628471115024;2.949656518377736;8.474127138519286;-1.0934019889389164
1445509551858;68.2267119938288;-82.99130823969548;-29.031429820403527;4.5816040423186495;8.920047270788624;-2.204461178588867
1445509551894;66.35956485394438;-82.31666725047225;-29.4528805893472;-0.174926358795166;9.627383913233782;-0.8716390601669438
1445509551929;66.35956485394438;-82.31666725047225;-29.4528805893472;-0.174926358795166;9.627383913233782;-0.8716390601669438
1445509551964;67.75228665703811;-81.86391859274318;-28.448905602769674;-0.17417817077636719;10.42181033518687;1.4730326444763688
1445509552000;62.43531322188786;-81.80918628412317;-34.99317253313921;2.0150199722290036;8.526051313958689;-0.5657797432830557
1445509552033;58.59545958389872;-81.5457882532479;-38.14933910725649;4.438999734729156;8.436268678637594;-0.19168577041625975
1445509552067;58.59545958389872;-81.5457882532479;-38.14933910725649;4.438999734729156;8.436268678637594;-0.19168577041625975
1445509552103;54.816887594469115;-81.53377454594798;-41.504635473680295;3.352480874633789;8.618976558154449;1.3335703247070312
1445509552137;45.84121140795761;-82.44077587268055;-50.327715204915485;2.840271356964111;7.345560184832662;2.162562722601369
1445509552174;45.84121140795761;-82.44077587268055;-50.327715204915485;2.840271356964111;7.345560184832662;2.162562722601369
1445509552209;32.56702671835519;-82.48476837128928;-61.64907485529981;2.5876830818176266;7.20160895614624;1.0977413881164044
1445509552244;15.042573867762064;-83.97995567357285;-76.47540120854558;1.590946930108592;18.41829409637451;3.0955531089782715
1445509552278;15.042573867762064;-83.97995567357285;-76.47540120854558;1.590946930108592;18.41829409637451;3.0955531089782715
1445509552315;277.7391057974607;-85.85786834332909;-173.20843213133455;-2.516006669616699;21.527165536609292;-0.06374561920166015
1445509552351;243.07991479587582;-78.86518292309513;150.12083093558553;-1.0401309837341308;18.443433213806152;2.260724990667775
1445509552385;239.94737268293824;-71.80689713120309;143.84776571488362;3.8787563270568843;10.585663365173339;1.9557634446075185
1445509552420;239.94737268293824;-71.80689713120309;143.84776571488362;3.8787563270568843;10.585663365173339;1.9557634446075185
1445509552456;226.78126198974564;-64.81016769137895;131.1182548637317;0.24705168380737302;10.065971748119965;1.1013326175414024
1445509552490;221.03122607879436;-59.852739542285704;135.24584503939658;-3.178302411596477;4.083161293792724;-3.675399115808308
1445509552524;221.03122607879436;-59.852739542285704;135.24584503939658;-3.178302411596477;4.083161293792724;-3.675399115808308
1445509552559;218.0908971372592;-59.592574813224694;138.76732206404185;-3.257161721038818;4.535964682769775;-0.44322658233642576
1445509552594;214.00367581346737;-62.844561660620144;135.8856379419654;1.792658493041992;6.94946988607198;4.112490191064402
1445509552628;214.00367581346737;-62.844561660620144;135.8856379419654;1.792658493041992;6.94946988607198;4.112490191064402
1445509552666;208.39363345767546;-66.30569884244815;130.48134551968926;2.2544399921141562;8.586654762677103;4.3869254832945765
1445509552702;204.46413522017087;-61.8537836953186;132.34595799541557;4.048744571862742;4.619163190460204;1.0863690032958984
1445509552736;204.46413522017087;-61.8537836953186;132.34595799541557;4.048744571862742;4.619163190460204;1.0863690032958984
1445509552774;204.46413522017087;-61.8537836953186;132.34595799541557;4.048744571862742;4.619163190460204;1.0863690032958984
1445509552810;198.1292687833474;-65.33449152161913;130.97099544161276;2.251746661376953;6.587945435388386;2.0412064798217266
1445509552844;193.8352919245875;-71.42377913176772;125.25133698228717;-1.6103998916625977;19.24309715282023;3.150619747161865
1445509552879;193.8352919245875;-71.42377913176772;125.25133698228717;-1.6103998916625977;19.24309715282023;3.150619747161865
1445509552914;197.1925672109329;-75.87504948875657;124.5533719710296;7.256525956726073;4.234744186401367;1.1041758598770015
1445509552951;197.3385413647357;-78.08312544375255;115.2558775138412;-4.528782077789306;6.625653819274902;-1.0500069925170392
1445509552984;199.36214700288417;-82.55763617236678;117.00928854726688;12.649315120232849;10.908132401275633;-2.4652795950073747
1445509553022;199.36214700288417;-82.55763617236678;117.00928854726688;12.649315120232849;10.908132401275633;-2.4652795950073747
1445509553058;181.58386501696017;-84.32990841015453;97.77305810919428;-1.776048719024658;9.328707639721781;-1.1284171151534654
1445509553092;156.60641583390137;-86.40686825341886;72.61564035604313;0.5003881652389652;10.499621669946238;0.6100724739959463
1445509553129;156.60641583390137;-86.40686825341886;72.61564035604313;0.5003881652389652;10.499621669946238;0.6100724739959463
1445509553163;151.33585972480478;-87.70263822965427;69.05358571766043;-0.9466074813842773;9.999832036856002;-1.4658500394959002
1445509553200;148.21021817419344;-87.56511721044969;65.34507928692304;-1.7154454529693348;9.15033961604014;0.2271498825073242
1445509553233;137.9641612339153;-87.77593906580205;55.00820538507406;0.74699091796875;9.189245319952443;0.055066638183593745
1445509553271;137.9641612339153;-87.77593906580205;55.00820538507406;0.74699091796875;9.189245319952443;0.055066638183593745
1445509553304;110.02523746505372;-87.93509765606863;27.106094835956814;1.246181964111328;9.846753014804934;0.21996727752685546
1445509553338;92.14037662465542;-87.39760256866008;9.388736087165046;1.7052700776473617;9.840019089740304;1.5605705696105956
1445509553374;92.14037662465542;-87.39760256866008;9.388736087165046;1.7052700776473617;9.840019089740304;1.5605705696105956
1445509553409;108.34199576013533;-87.07513310792476;23.931758945201157;1.650203457730077;8.137591875402629;1.1985971695831046
1445509553444;161.57018404337856;-86.90219352766199;73.81633821395748;1.3853449356079102;7.481431275177002;0.368407798722852
1445509553479;161.57018404337856;-86.90219352766199;73.81633821395748;1.3853449356079102;7.481431275177002;0.368407798722852
1445509553516;200.71055825842632;-84.36090433543217;110.30616804351074;1.812560294342041;6.986430081939697;0.895730696105957
1445509553553;216.90333149730841;-80.68558119452928;124.27348973187928;1.6569371498992667;7.582586441449076;0.5313631309509277
1445509553586;228.11019377341273;-76.86079913125866;135.24883048202398;2.2300492818970232;5.76179622503072;0.30885201416015623
1445509553623;228.11019377341273;-76.86079913125866;135.24883048202398;2.2300492818970232;5.76179622503072;0.30885201416015623
1445509553657;236.30042467600538;-73.22102312932289;143.9756349920839;4.061763116455078;7.163451221057027;1.3329717742919922
1445509553692;234.97186823239136;-68.86890829195181;142.44467569790862;4.414458948516845;16.63865407485962;5.689820245361328
1445509553726;234.97186823239136;-68.86890829195181;142.44467569790862;4.414458948516845;16.63865407485962;5.689820245361328
1445509553759;228.09261449466595;-62.57575024873244;136.79856070403338;4.608987833404541;17.574188373565672;2.6391584175109863
1445509553795;222.4700174600018;-58.404377229904064;133.9024120075349;0.20874445724487303;14.519635968017576;3.264044904681295
1445509553828;222.4700174600018;-58.404377229904064;133.9024120075349;0.20874445724487303;14.519635968017576;3.264044904681295
1445509553865;218.43860739132904;-58.13159774825305;130.17755186214094;1.1435305679321288;7.503278657586872;2.809445900991745
1445509553899;214.766697693461;-60.17472060331903;128.6373376087045;-2.1568764205932616;5.165938702337444;1.8460791906494647
1445509553933;213.17668618143153;-64.48510578798687;126.07557836597965;-0.7462427299499511;6.595576514788717;1.8719662769041954
1445509553968;213.17668618143153;-64.48510578798687;126.07557836597965;-0.7462427299499511;6.595576514788717;1.8719662769041954
1445509554005;215.2002368430711;-70.03278005905213;127.08766892676564;-0.03426701126098632;7.822455081884563;1.8893243485381825
1445509554039;224.7256464978858;-75.89385931693631;137.67613042522117;1.894860958143603;10.668712162194772;3.5181297019958495
1445509554074;224.7256464978858;-75.89385931693631;137.67613042522117;1.894860958143603;10.668712162194772;3.5181297019958495
1445509554110;235.94210106818642;-78.3280987050136;152.0160920423079;10.906337115356697;13.531129957580566;7.945158209228516
1445509554144;223.09333960779995;-75.89644160224985;135.9775874274008;2.630180088220164;8.780584731823579;0.349852717590332
1445509554178;223.09333960779995;-75.89644160224985;135.9775874274008;2.630180088220164;8.780584731823579;0.349852717590332
1445509554212;211.90094365474525;-74.67402351077506;122.15883413269175;0.03696048812866211;6.007201310674846;3.3643022453308102
1445509554247;214.4879014258182;-76.37484199264641;128.18918230082267;0.8092401611328125;6.048351943969727;-0.07332242584228515
1445509554281;214.4879014258182;-76.37484199264641;128.18918230082267;0.8092401611328125;6.048351943969727;-0.07332242584228515
1445509554316;214.4879014258182;-76.37484199264641;128.18918230082267;0.8092401611328125;6.048351943969727;-0.07332242584228515
1445509554350;206.58945586724388;-81.14002550579835;123.81400979609572;4.721066544751078;15.221137054443359;6.717681237848103
1445509554384;206.58945586724388;-81.14002550579835;123.81400979609572;4.721066544751078;15.221137054443359;6.717681237848103
1445509554419;206.58945586724388;-81.14002550579835;123.81400979609572;4.721066544751078;15.221137054443359;6.717681237848103
1445509554452;200.2691985561697;-81.01588495060975;119.86503136294782;0.48766902371831233;11.795184262493997;-6.131400887121632
1445509554486;182.6568415059287;-83.20539242365975;96.98507120461446;8.490886404009908;8.959850946453958;5.635501612533442
1445509554520;182.6568415059287;-83.20539242365975;96.98507120461446;8.490886404009908;8.959850946453958;5.635501612533442
1445509554555;182.6568415059287;-83.20539242365975;96.98507120461446;8.490886404009908;8.959850946453958;5.635501612533442
1445509554590;170.4660041383975;-84.16506247829378;85.02328240787537;-2.414851722540334;11.600505886133014;0.1396118751747068
1445509554623;170.4660041383975;-84.16506247829378;85.02328240787537;-2.414851722540334;11.600505886133014;0.1396118751747068
1445509554656;170.4660041383975;-84.16506247829378;85.02328240787537;-2.414851722540334;11.600505886133014;0.1396118751747068
1445509554690;83.26487576611609;-84.09181990668318;-7.770960121150031;1.68192667539292;8.91136843590103;1.3224972150940448
1445509554724;83.26487576611609;-84.09181990668318;-7.770960121150031;1.68192667539292;8.91136843590103;1.3224972150940448
1445509554760;67.80522769959018;-82.69163950111195;-21.346999934419127;4.38378331281133;10.481964432702586;-1.0974421722743892
1445509554794;72.25999926426545;-81.48749311051347;-17.02372145062143;5.137507630688324;9.272742993252537;1.4130278923034667
1445509554829;72.25999926426545;-81.48749311051347;-17.02372145062143;5.137507630688324;9.272742993252537;1.4130278923034667
1445509554865;80.96789991926973;-83.52623452379741;-10.354340002138358;3.2921768655196764;7.884704909570515;-0.5710171324798837
1445509554898;132.67482317132703;-85.46179813937012;37.01962269877311;4.451419363580271;3.718344815826416;-0.8418611404861323
1445509554931;193.8629711144076;-82.48771852846738;95.41930053141242;-0.3001730331420898;9.102006670025736;-2.8221650790450163
1445509554968;193.8629711144076;-82.48771852846738;95.41930053141242;-0.3001730331420898;9.102006670025736;-2.8221650790450163
1445509555005;215.4177433375803;-79.99971846497411;116.99479274932649;2.14490541229248;5.3293432579040525;2.8054057222228495
1445509555038;228.84977714672976;-75.65762183475027;131.23275633603788;7.363816264752298;13.46469086151123;0.314089330291748
1445509555075;228.84977714672976;-75.65762183475027;131.23275633603788;7.363816264752298;13.46469086151123;0.314089330291748
1445509555111;227.91146040831072;-67.51223826753207;133.05893419932113;2.1161749923706052;19.684377277263998;3.5166331798277795
1445509555144;223.14619175202682;-59.81804894671162;132.5237412931956;5.801000984954833;19.007567564502356;1.4541780872069299
1445509555181;223.14619175202682;-59.81804894671162;132.5237412931956;5.801000984954833;19.007567564502356;1.4541780872069299
1445509555217;218.18419798729306;-56.837946765517366;128.42039181402922;2.7477954639710482;11.525986067199707;3.6478653948577118
1445509555250;212.65394993202295;-56.48661958914917;125.87278157990917;0.8333318153381347;7.102997994464263;1.6727987724304199
1445509555283;208.89481571147513;-57.772565579746704;124.26806859387989;-2.1130326026916504;5.638644184875488;2.212391825457662
1445509555321;208.89481571147513;-57.772565579746704;124.26806859387989;-2.1130326026916504;5.638644184875488;2.212391825457662
1445509555357;207.45539585715707;-61.9087745386001;123.14321060799774;-0.30735563812255856;5.969044013977051;0.4468177386961877
1445509555391;208.91508918211744;-67.82531063274469;123.81046239109509;0.2699462371826172;8.101978637164459;2.545335566888377
1445509555428;208.91508918211744;-67.82531063274469;123.81046239109509;0.2699462371826172;8.101978637164459;2.545335566888377
1445509555463;215.09631278835099;-73.41471714997361;130.4216364738876;2.078466261424217;9.529371255371672;4.763114419146627
1445509555496;226.92267757488045;-75.940671537988;144.27256480472428;6.042366585949808;8.163479180853068;3.1829414695739744
1445509555533;226.92267757488045;-75.940671537988;144.27256480472428;6.042366585949808;8.163479180853068;3.1829414695739744
1445509555567;225.64556669313885;-76.06473774407523;139.98355212063385;3.496432249450683;8.25176595159322;0.48617257461547847
1445509555604;217.25747079848338;-76.40181139418867;128.3658817899418;2.583942214788869;8.713995998150482;2.784905443572998
1445509555637;214.40992499232183;-76.34933047860754;124.53584005188154;2.500145120150782;7.3126397658750415;3.3258453811645508
1445509555674;214.40992499232183;-76.34933047860754;124.53584005188154;2.500145120150782;7.3126397658750415;3.3258453811645508
1445509555710;216.05128679504102;-76.54712521490991;128.63695980473764;1.7776946647381788;5.383362432861328;-0.23044190979003906
1445509555744;210.67911091124145;-78.4521455249954;126.4052272067636;0.938975890527293;10.729315464782713;-3.2730233801025896
1445509555779;210.67911091124145;-78.4521455249954;126.4052272067636;0.938975890527293;10.729315464782713;-3.2730233801025896
1445509555814;201.0729941390619;-79.34324762116192;116.17889901012701;0.22789807052612304;11.734281757763773;-0.10070610733032226
1445509555849;185.3930205912864;-81.53775602777762;96.42652740835646;6.544550091906636;19.890428257641194;6.704363253651466
1445509555884;199.59978015587419;-79.81536508654419;107.53092751747246;-1.681178624371439;8.736291928045452;-5.1671360223632306
1445509555918;199.59978015587419;-79.81536508654419;107.53092751747246;-1.681178624371439;8.736291928045452;-5.1671360223632306
1445509555954;193.90155585616878;-81.174642080582;100.69326287051773;1.8947113388061523;12.233173090307414;-0.9353846245696767
1445509555987;170.75278617628774;-82.39459442519617;74.37865710376455;0.027383681488037107;8.95805529520884;2.7377695253234355
1445509556023;170.75278617628774;-82.39459442519617;74.37865710376455;0.027383681488037107;8.95805529520884;2.7377695253234355
1445509556057;157.86524375805695;-84.1161705956581;59.362036726597054;1.1561001449142583;9.085396676812692;0.001945288848876953
1445509556092;134.33764062316047;-85.00834570253288;36.85105960482272;2.283020920562744;9.172335941934026;-0.812083257337939
1445509556125;134.33764062316047;-85.00834570253288;36.85105960482272;2.283020920562744;9.172335941934026;-0.812083257337939
1445509556162;110.2348315505252;-84.21454842982781;13.032699525083848;1.2630910133361815;9.417143609674275;0.3878607420105487
1445509556196;96.90479806816039;-83.50367033635548;-0.18542861232317848;1.101632052008304;9.373897903796285;0.06988076095581054
1445509556233;109.18594196399363;-83.8231774153318;8.92119469301314;4.598363563537597;7.640346410369872;0.4870704002380371
1445509556269;109.18594196399363;-83.8231774153318;8.92119469301314;4.598363563537597;7.640346410369872;0.4870704002380371
1445509556303;109.18594196399363;-83.8231774153318;8.92119469301314;4.598363563537597;7.640346410369872;0.4870704002380371
1445509556337;207.97518144929646;-83.51801948001813;105.2824225642533;2.861220548425242;5.566668497467041;-4.722413137054443
1445509556371;207.97518144929646;-83.51801948001813;105.2824225642533;2.861220548425242;5.566668497467041;-4.722413137054443
1445509556407;215.50456078367503;-81.84568464341544;113.4954232662812;3.118746937561035;5.844096322576701;4.117428268521093
1445509556440;229.37764442257864;-77.27066503086797;128.95854133794433;4.337545074053853;12.338218980407714;6.326079190417379
1445509556474;229.37764442257864;-77.27066503086797;128.95854133794433;4.337545074053853;12.338218980407714;6.326079190417379
1445509556510;232.59732212508254;-67.87283310744465;135.82905755402285;4.452915812683105;21.064186206054686;-0.1105821891784668
1445509556543;226.3175572517229;-58.68006870120416;133.8560965144706;2.983324906158447;16.2675528175354;0.6362590911865234
1445509556579;226.3175572517229;-58.68006870120416;133.8560965144706;2.983324906158447;16.2675528175354;0.6362590911865234
1445509556612;221.65246676833377;-53.416105724310825;132.27250794581116;-0.7041948555544019;11.864615672247112;3.484161965942383
1445509556646;216.9547753144501;-52.27370713669594;128.23341323301406;4.526387967460695;9.244012902124226;4.086154155465774
1445509556681;216.9547753144501;-52.27370713669594;128.23341323301406;4.526387967460695;9.244012902124226;4.086154155465774
1445509556716;212.52524732303425;-52.5251990905529;128.6252805955286;-1.5101426971435545;5.247192213439941;1.6522982745848596
1445509556751;210.22379197237055;-55.607670970385904;127.41549006418369;-1.66307262044698;5.3996726394101975;1.2758102096557618
1445509556785;210.43879661450742;-61.448651770620096;127.84022519967816;0.02154781494140625;6.905775267382711;1.9973626619201152
1445509556822;210.43879661450742;-61.448651770620096;127.84022519967816;0.02154781494140625;6.905775267382711;1.9973626619201152
1445509556856;213.26007946867622;-67.55060469206585;130.77523904234198;3.43612844126597;10.329633425140381;4.689043951416015
1445509556890;217.0240906601394;-71.19083748245265;134.2409889644135;4.293851039886475;9.313743564251972;4.008342491912842
1445509556926;217.0240906601394;-71.19083748245265;134.2409889644135;4.293851039886475;9.313743564251972;4.008342491912842
1445509556959;218.93499980715154;-72.57789619089817;135.01017952085763;4.573074808502197;7.856722093145549;2.4254758462768047
1445509556994;214.18834610698235;-73.2518352775017;127.52591553306672;1.80672442779541;8.917203827523625;3.3099837951660156
1445509557028;214.18834610698235;-73.2518352775017;127.52591553306672;1.80672442779541;8.917203827523625;3.3099837951660156
1445509557064;210.85466703827592;-74.208920974103;123.3407574302472;3.250278391265869;6.696432405853271;1.9601030081817878
1445509557099;211.2495929491051;-75.03960557761319;123.23448354045163;1.6289549910614265;4.848557637023926;1.1188402902465313
1445509557133;209.12169218094004;-76.76984443810858;123.0868024832596;0.8942343200683593;8.020425923919678;3.1191958503723143
1445509557169;209.12169218094004;-76.76984443810858;123.0868024832596;0.8942343200683593;8.020425923919678;3.1191958503723143
1445509557204;206.77257599472344;-78.6774631864859;125.4264903788006;3.932176951599121;16.19692386856079;-3.047669075775146
1445509557238;194.7562709066804;-79.72232427628414;111.56156584095307;-0.21742343826293944;5.984905307714641;1.0199299072265624
1445509557274;194.7562709066804;-79.72232427628414;111.56156584095307;-0.21742343826293944;5.984905307714641;1.0199299072265624
1445509557310;186.1278652581523;-80.43163130763043;98.56122529607576;10.287285983276366;10.75011531090103;7.910891398896928
1445509557344;203.47332696244658;-77.0577732188511;113.79430425983247;-2.574215697479248;9.83597884247275;-6.511779748944193
1445509557379;203.47332696244658;-77.0577732188511;113.79430425983247;-2.574215697479248;9.83597884247275;-6.511779748944193
1445509557415;198.45546240956793;-79.06146122809311;107.6184029948987;1.0755950958251952;10.67529643595591;-0.7873930344512685
1445509557449;182.78291958377574;-81.09274825597642;90.47181411638887;-0.17776947326660156;7.248295596258342;0.5927145484924317
1445509557483;164.06189325321026;-82.8818472184679;67.95036663480876;1.7501614135742187;10.015843114327826;2.46213720532842
1445509557518;164.06189325321026;-82.8818472184679;67.95036663480876;1.7501614135742187;10.015843114327826;2.46213720532842
1445509557554;147.301410061954;-83.68865047187205;51.77046991355693;3.3316811746459454;9.643545221964409;0.3920505218505859
1445509557589;140.8670203250567;-83.86104119587313;46.455490361419436;2.8330887519836425;9.583989026409759;0.7029973893981426
1445509557624;140.8670203250567;-83.86104119587313;46.455490361419436;2.8330887519836425;9.583989026409759;0.7029973893981426
1445509557658;145.4334678047764;-84.28167451282988;52.9177627047405;0.5737105728149414;9.620500574327679;-2.568978381347656
1445509557692;143.88884511202488;-84.44024632973326;52.032453192628545;0.6786065330505371;9.68469538946841;-0.5367500892528565
1445509557727;143.88884511202488;-84.44024632973326;52.032453192628545;0.6786065330505371;9.68469538946841;-0.5367500892528565
1445509557761;142.45071669394815;-84.59080965457983;50.866843151550555;0.46417584686279295;9.444377580493315;0.0143652099609375
1445509557794;142.56721170328197;-84.92116510926742;50.0419636709307;1.3964181182861328;8.52844558868408;0.759859824957326
1445509557832;142.56721170328197;-84.92116510926742;50.0419636709307;1.3964181182861328;8.52844558868408;0.759859824957326
1445509557868;160.55061054487726;-85.27934929813378;65.85927470195762;3.9003039958678185;6.827963859558105;1.6704046073028818
1445509557903;200.526712062932;-83.52256082681717;102.89090226068174;2.239476377868652;6.902333748626709;4.936843841508496
1445509557937;227.84638994046253;-80.01926624440283;132.04902971956724;3.780294929913431;5.432443566894531;-2.22166950302124
1445509557973;227.84638994046253;-80.01926624440283;132.04902971956724;3.780294929913431;5.432443566894531;-2.22166950302124
1445509558006;233.58002345282156;-66.5445143710971;140.80188360069695;3.2495302032470703;20.488081431579587;2.696020743472315
1445509558041;226.71814036626347;-57.88034682666938;135.52584838061674;5.140650093432516;17.19171465835571;2.7186161312378943
1445509558074;226.71814036626347;-57.88034682666938;135.52584838061674;5.140650093432516;17.19171465835571;2.7186161312378943
1445509558110;226.71814036626347;-57.88034682666938;135.52584838061674;5.140650093432516;17.19171465835571;2.7186161312378943
1445509558145;217.85403413466256;-51.02693249234648;128.35260521603857;5.07795221145181;9.274089622088521;4.829104748535156
1445509558183;217.85403413466256;-51.02693249234648;128.35260521603857;5.07795221145181;9.274089622088521;4.829104748535156
1445509558218;213.97348837738173;-50.813535599914104;128.98604709773778;-1.520019071252644;6.078878161267191;2.7741314630370586
1445509558253;212.23887233412856;-52.86378852266705;128.648548537027;-0.9123407623842358;4.968267720031738;1.8894740226745603
1445509558287;212.01527412292273;-57.625869889099725;128.25795705858368;-0.34835634155273437;5.21950954900533;0.6370072792053222
1445509558320;212.01527412292273;-57.625869889099725;128.25795705858368;-0.34835634155273437;5.21950954900533;0.6370072792053222
1445509558356;212.68390617594423;-64.12138205127543;126.90553344727216;2.07502465133667;9.416694441134668;3.47069465466924
1445509558390;214.53899201660454;-70.15370006126855;127.03641496134708;5.537938077545165;10.48166508442983;4.550030617523193
1445509558427;214.53899201660454;-70.15370006126855;127.03641496134708;5.537938077545165;10.48166508442983;4.550030617523193
1445509558461;217.63921543458835;-74.06326481045512;129.52554465637857;6.1800328891478475;8.97316825479716;4.108150773620605
1445509558494;213.52732879209015;-75.13410635526041;123.29627244182322;3.9553707801818847;6.074238957159221;2.6753707176208494
1445509558531;213.52732879209015;-75.13410635526041;123.29627244182322;3.9553707801818847;6.074238957159221;2.6753707176208494
1445509558566;210.45675888494736;-74.88286465834139;118.93632990954083;1.613242933068797;3.3241993675231933;-0.09861118087768554
1445509558600;208.23217962411135;-75.94224961496222;116.99963685358287;0.9087490945678204;8.273163982800394;4.9992426309447735
1445509558633;211.37301977937864;-77.01753808448049;123.29063209661382;2.4271219695160164;15.04740779647827;3.7002386657714843
1445509558669;211.37301977937864;-77.01753808448049;123.29063209661382;2.4271219695160164;15.04740779647827;3.7002386657714843
1445509558705;210.78451253591751;-77.42229058352267;126.5048632380477;1.6525976456905016;12.910433177185057;-2.801664709063619
1445509558739;199.74530368810218;-79.2124224555005;111.1185135768749;0.5945101266723126;15.00939984512329;-1.642123063659668
1445509558776;199.74530368810218;-79.2124224555005;111.1185135768749;0.5945101266723126;15.00939984512329;-1.642123063659668
1445509558812;185.29905050131654;-80.37674909858474;92.49008884920043;5.366752804974467;11.14785198862925;3.014898417718871
1445509558845;195.86798555608217;-79.20427728309805;102.49915034896979;-1.4733317004881799;10.574141269683837;-3.043628933538869
1445509558879;195.86798555608217;-79.20427728309805;102.49915034896979;-1.4733317004881799;10.574141269683837;-3.043628933538869
1445509558913;191.54656389864;-80.28811074594361;95.70007040990772;-0.08858546142578125;9.93025060590664;-1.21056828748174
1445509558950;184.02397628997707;-81.78215402016478;86.34188783050092;1.4241010909647098;7.906102502386272;0.18225859224624
1445509558983;177.95511881729257;-83.46677151056893;77.94936849108326;2.4646809715270996;8.326434531347454;0.34386723170625044
1445509559017;177.95511881729257;-83.46677151056893;77.94936849108326;2.4646809715270996;8.326434531347454;0.34386723170625044
1445509559053;165.28974879045685;-84.4290647193574;65.00640448547998;3.307290245233103;8.782978933483735;-0.0028431144714355467
1445509559087;153.10218154026924;-84.40856200074177;53.38924725157436;1.996614620031789;10.150068592889607;0.837671342379786
1445509559123;153.10218154026924;-84.40856200074177;53.38924725157436;1.996614620031789;10.150068592889607;0.837671342379786
1445509559158;144.76560201839;-84.51698948753405;47.3227047305001;0.8268973892433102;8.599972290216014;-1.5279495719909668
1445509559193;135.26100819254086;-84.64912868789604;39.35615271000624;0.22789807052612304;8.26987195551768;-2.401234627532959
1445509559228;135.26100819254086;-84.64912868789604;39.35615271000624;0.22789807052612304;8.26987195551768;-2.401234627532959
1445509559262;125.21220913876056;-84.14727440363868;27.617843242692114;2.142361536495946;10.018087769715766;1.325639604773
1445509559297;133.27889127199026;-84.64843785167633;33.352420693225206;3.8289270415375007;7.528567120361328;2.3189337993346153
1445509559330;184.70081732714976;-84.78100429084989;82.58868731807041;3.7633858076233415;5.834220825250447;5.707028578926855
1445509559366;184.70081732714976;-84.78100429084989;82.58868731807041;3.7633858076233415;5.834220825250447;5.707028578926855
1445509559401;220.45683976682784;-80.988560264739;119.36171647502185;3.4835634155273434;6.714687901251017;1.4079402137756347
1445509559434;235.39277159567672;-73.49205290328786;135.66694527355224;3.4208652595520017;13.101819964654743;3.032555604730174
1445509559469;235.39277159567672;-73.49205290328786;135.66694527355224;3.4208652595520017;13.101819964654743;3.032555604730174
1445509559503;232.6713566784909;-63.75911811723606;135.90724633546918;4.188057180963084;18.58484074935913;0.30960020217895506
1445509559536;227.2893941473114;-55.9497882068539;133.60499656677302;2.335394228009134;14.698003991699219;1.3845967475891112
1445509559570;227.2893941473114;-55.9497882068539;133.60499656677302;2.335394228009134;14.698003991699219;1.3845967475891112
1445509559606;222.39288021448124;-53.10337192388656;129.9057571513704;2.407968319702148;12.300360666656493;3.455581074026413
1445509559640;215.36442220540425;-52.63315510679307;128.42724669476553;-1.0461161956235765;6.049698682403564;2.47874705241099
1445509559674;215.36442220540425;-52.63315510679307;128.42724669476553;-1.0461161956235765;6.049698682403564;2.47874705241099
1445509559709;215.36442220540425;-52.63315510679307;128.42724669476553;-1.0461161956235765;6.049698682403564;2.47874705241099
1445509559743;215.92068630541834;-59.508157937554195;130.59778746361226;1.054047280883789;7.216872137860208;2.0136733068604022
1445509559780;215.92068630541834;-59.508157937554195;130.59778746361226;1.054047280883789;7.216872137860208;2.0136733068604022
1445509559814;215.92068630541834;-59.508157937554195;130.59778746361226;1.054047280883789;7.216872137860208;2.0136733068604022
1445509559850;221.92107609582524;-68.31952558056594;134.45837730716957;3.4023101236205546;8.933963531405665;3.798101658630371
1445509559884;225.3244787982676;-70.82635689724907;136.48935386627423;3.7460277725219724;8.974964326167386;2.777872403131053
1445509559918;225.3244787982676;-70.82635689724907;136.48935386627423;3.7460277725219724;8.974964326167386;2.777872403131053
1445509559955;225.01110260808383;-72.74796671786805;134.67450616960892;2.6759693045685067;8.768613760055414;2.372953120422363
1445509559989;221.3386367694071;-74.14658624844793;129.25295619337749;2.9288568914551285;7.735216943414509;2.3457190034728495
1445509560024;221.3386367694071;-74.14658624844793;129.25295619337749;2.9288568914551285;7.735216943414509;2.3457190034728495
1445509560060;216.90152692341815;-74.84971597197035;122.28942099919973;1.8728641938582993;7.133823121643066;2.84086990737915
1445509560094;215.9818061563072;-75.26101221830959;120.41383655021183;1.094898346710205;6.483946716253459;2.3437737876892086
1445509560132;215.9818061563072;-75.26101221830959;120.41383655021183;1.094898346710205;6.483946716253459;2.3437737876892086
1445509560165;214.89124341166118;-76.52894549220565;120.04162170117169;3.865588217926025;12.214917887170612;3.7158009034972634
1445509560198;206.16513673802854;-75.72294445068145;111.2180122760038;-3.6483144172668456;11.34866521448344;-1.9159599516052752
1445509560231;194.94167883831267;-77.54804937982435;95.7304229526123;-6.311564635113626;40.77549883651733;-2.849249540124461
1445509560269;194.94167883831267;-77.54804937982435;95.7304229526123;-6.311564635113626;40.77549883651733;-2.849249540124461
1445509560306;196.3794763570205;-78.87785106276792;87.40955212537287;1.9071312690513673;10.082282393060252;-3.9160160081946755
1445509560339;196.93739489068494;-79.46151108920311;86.90429591316472;-2.7070940357483924;13.538162632696329;-4.535665307097556
1445509560377;196.93739489068494;-79.46151108920311;86.90429591316472;-2.7070940357483924;13.538162632696329;-4.535665307097556
1445509560411;181.94128125311246;-80.3528490679249;65.59979735138891;-1.1532568660460412;9.62169770255722;2.270900201592967
1445509560445;177.41600643607805;-82.42146843374229;57.68263909858481;3.4015620086669918;8.672845584051311;-2.2355858001708984
1445509560480;177.41600643607805;-82.42146843374229;57.68263909858481;3.4015620086669918;8.672845584051311;-2.2355858001708984
1445509560513;166.28549530521965;-82.74087058234689;41.72289797114965;3.611653277410939;9.312247503308207;-0.04997895965576172
1445509560549;162.0220747579682;-82.07341349267008;32.80675063411601;3.3355718984741713;9.512312595942523;1.2924199836730956
1445509560582;173.4067475074699;-82.20580325587265;39.77448920683166;-0.14769231491088866;9.396792566769383;-0.7454945601974613
1445509560619;173.4067475074699;-82.20580325587265;39.77448920683166;-0.14769231491088866;9.396792566769383;-0.7454945601974613
1445509560653;185.27515359016127;-82.44265554147249;47.58086010982918;0.4186860518524423;9.405471840048394;-0.48467619857788086
1445509560688;199.67827174452526;-82.15245395498275;56.09423781344843;0.6408978934356943;8.481758510180562;1.1572972274780273
1445509560723;199.67827174452526;-82.15245395498275;56.09423781344843;0.6408978934356943;8.481758510180562;1.1572972274780273
1445509560757;217.86967511523105;-81.80593916631581;68.13204627374449;1.3527239379882812;6.407033572442829;-3.1727661125183104
1445509560792;226.7286996810189;-80.24174547128516;69.55859963452795;2.5707740325927735;5.845742336218058;-2.1288941521575673
1445509560825;226.7286996810189;-80.24174547128516;69.55859963452795;2.5707740325927735;5.845742336218058;-2.1288941521575673
1445509560860;235.83251337191805;-78.08100327064246;70.35360843943741;3.1259294694762674;7.98840362284556;3.062932184423879
1445509560894;256.40141465193466;-75.42886080893014;83.64771159972226;2.9345429377349093;7.048679325103759;2.17243867658535
1445509560930;256.40141465193466;-75.42886080893014;83.64771159972226;2.9345429377349093;7.048679325103759;2.17243867658535
1445509560964;275.7644895886542;-70.40600232952558;96.71804872877344;6.226271054840088;12.44341421585083;-1.3603554192474112
1445509561001;284.44589652580476;-62.79578561042271;101.032468554498;6.0704983093261715;16.607978366088865;1.5910966407775877
1445509561034;286.9096937466373;-57.19819584053492;101.51087665154294;1.771559590911865;21.81970588291585;4.931606434045359
1445509561072;286.9096937466373;-57.19819584053492;101.51087665154294;1.771559590911865;21.81970588291585;4.931606434045359
1445509561107;289.97458286267516;-55.553964683360284;98.36754321793293;9.673472240392863;14.648174669647217;8.177246059594676
1445509561141;301.51144135064686;-54.15620480415303;107.91153762535843;0.9946408599302172;11.053280584661662;5.204096583557129
1445509561177;301.51144135064686;-54.15620480415303;107.91153762535843;0.9946408599302172;11.053280584661662;5.204096583557129
1445509561211;316.8705926381371;-53.85233292458651;122.22770530958336;0.7191583236694336;7.773374093981832;1.3063364269532263
1445509561247;330.65472115353003;-50.63066588449433;133.37414372420014;4.071639234835841;8.050802467080764;0.6236895324707031
1445509561281;341.86553705297496;-46.76174844613274;140.45993509988838;5.791124756976217;6.812700860507227;3.0439279895506797
1445509561316;341.86553705297496;-46.76174844613274;140.45993509988838;5.791124756976217;6.812700860507227;3.0439279895506797
1445509561353;358.08915982004515;-39.7090686877707;148.5590216475394;6.434716236877441;4.970512430218607;5.997774433898925
1445509561386;358.08915982004515;-39.7090686877707;148.5590216475394;6.434716236877441;4.970512430218607;5.997774433898925
1445509561420;358.08915982004515;-39.7090686877707;148.5590216475394;6.434716236877441;4.970512430218607;5.997774433898925
1445509561454;6.051513167568423;-37.679432402486114;151.81380337337728;3.5775358306884764;2.625541103307903;4.565742712048441
1445509561488;6.051513167568423;-37.679432402486114;151.81380337337728;3.5775358306884764;2.625541103307903;4.565742712048441
1445509561524;6.051513167568423;-37.679432402486114;151.81380337337728;3.5775358306884764;2.625541103307903;4.565742712048441
1445509561560;10.965019683325249;-40.79950327941928;154.4084881060043;2.243965359850973;2.324321191461384;4.555118442181498
1445509561595;13.983823379923429;-42.66571686054022;153.6387487032675;1.4121302128113806;6.03847608131729;10.05220560003072
1445509561629;13.983823379923429;-42.66571686054022;153.6387487032675;1.4121302128113806;6.03847608131729;10.05220560003072
1445509561664;13.983823379923429;-42.66571686054022;153.6387487032675;1.4121302128113806;6.03847608131729;10.05220560003072
1445509561699;16.584948186241462;-48.33825388004727;149.2898258835927;2.5588028781615195;9.342923212078958;6.289118775353953
1445509561732;16.584948186241462;-48.33825388004727;149.2898258835927;2.5588028781615195;9.342923212078958;6.289118775353953
1445509561769;16.584948186241462;-48.33825388004727;149.2898258835927;2.5588028781615195;9.342923212078958;6.289118775353953
1445509561806;23.306956780240505;-57.022281376383155;146.22674878908532;1.81704949552007;8.393323051684721;2.523787825012207
1445509561839;27.316242324806566;-61.671427438324265;143.27068786661675;3.7473744378905742;9.968108682195842;1.3420996681213377
1445509561876;27.316242324806566;-61.671427438324265;143.27068786661675;3.7473744378905742;9.968108682195842;1.3420996681213377
1445509561911;30.269263015860982;-66.69296627774065;138.71884739813595;4.695179239300638;10.74128676534444;0.07855974197387695
1445509561945;31.7828510943899;-71.66671639643849;133.45973068329582;4.147655101013183;10.257657445470988;1.3630488595824688
1445509561981;31.7828510943899;-71.66671639643849;133.45973068329582;4.147655101013183;10.257657445470988;1.3630488595824688
1445509562014;35.502321559786694;-76.18857869950303;132.3846834292628;3.1037831771850586;9.341875894983112;1.315613739190623
1445509562048;41.52946355708118;-79.77647163278148;134.75820151900888;3.3710359375;8.777741909613088;0.4513070129394531
1445509562083;50.42386429075102;-81.81300617836496;138.85755867802087;2.642749646935984;8.026411135809123;0.32456396255493164
1445509562120;50.42386429075102;-81.81300617836496;138.85755867802087;2.642749646935984;8.026411135809123;0.32456396255493164
1445509562156;37.282751537192134;-80.93538520407768;120.07723990560883;4.358045571899414;8.527248341723531;-0.6952163070678711
1445509562190;37.14543516284299;-80.81054894981261;114.69143528281609;3.1343092483520505;9.61705920170215;1.1563994018554686
1445509562226;37.14543516284299;-80.81054894981261;114.69143528281609;3.1343092483520505;9.61705920170215;1.1563994018554686
1445509562261;42.72819601257889;-80.56311120797555;115.63627406940867;4.064157171984761;9.80590203117691;-0.42227731781005856
1445509562295;51.07482413867024;-80.24519064217786;120.10278741138862;2.512714642333984;10.238055028976314;-0.0037409400939941405
1445509562329;51.07482413867024;-80.24519064217786;120.10278741138862;2.512714642333984;10.238055028976314;-0.0037409400939941405
1445509562367;61.85186138750877;-80.36482481005741;126.95867965982511;1.4013562048759776;10.681431650775298;0.5352537451812998
1445509562403;74.60147389401054;-81.0503739246833;135.55904671682427;1.5358803649902344;12.205789993341266;0.2650081962585449
1445509562437;88.68723257396509;-81.48286295659159;146.45941179928099;3.627365006610006;14.267197038213908;0.19482816009521484
1445509562474;88.68723257396509;-81.48286295659159;146.45941179928099;3.627365006610006;14.267197038213908;0.19482816009521484
1445509562509;99.15536529313103;-80.99063142854904;155.0820904509131;-0.26396073303222656;11.0749781833373;3.107374479675293
1445509562543;106.49281888309581;-78.6798670950108;159.65318141949075;2.683151873016357;9.5497223713418;3.234117530059814
1445509562579;106.49281888309581;-78.6798670950108;159.65318141949075;2.683151873016357;9.5497223713418;3.234117530059814
1445509562613;104.02153435119632;-76.09335995089567;152.3095652271033;3.8269817161560056;8.268824346160889;0.32486323776245113
1445509562649;92.3927062025018;-74.21702807195143;135.745647065734;2.3316530687194317;9.7370684959854;1.1935095275878906
1445509562683;79.1773649016792;-70.3252995648026;121.20773346914136;5.537189889526367;11.707795463506876;6.464194844818115
1445509562719;79.1773649016792;-70.3252995648026;121.20773346914136;5.537189889526367;11.707795463506876;6.464194844818115
1445509562755;73.76196404033881;-63.5959784051599;115.8978273958642;4.508431400210596;11.269806489562988;3.4243069244384765
1445509562789;74.04996755291144;-55.81229261007724;119.74288012772855;2.6891375232972203;7.3066543347898865;3.152415398406982
1445509562825;74.04996755291144;-55.81229261007724;119.74288012772855;2.6891375232972203;7.3066543347898865;3.152415398406982
1445509562860;76.81162082755435;-48.42848630421588;129.16606133123094;2.5960627876281737;7.45763916104068;1.2565069587707518
1445509562894;78.66416486690336;-42.036630594610855;137.28883721947543;0.41419688720703124;4.077025859777629;2.1187191238954663
1445509562930;78.66416486690336;-42.036630594610855;137.28883721947543;0.41419688720703124;4.077025859777629;2.1187191238954663
1445509562963;80.22944044311728;-37.55436629770205;142.44414948427186;2.6445453712463376;4.473116889190673;2.9914056290224194
1445509562999;80.14133527971084;-35.27534862011671;145.06122110204237;4.165910961737111;4.426429956817627;2.4953569725587963
1445509563032;78.07528957146106;-36.81520755293967;143.24488965759357;4.260631455319189;3.2038910263612865;2.5763106239318847
1445509563067;78.07528957146106;-36.81520755293967;143.24488965759357;4.260631455319189;3.2038910263612865;2.5763106239318847
1445509563101;74.97301126122778;-41.933941039271275;137.90177785526947;8.977358399963379;9.291597075597942;10.621426752471923
1445509563136;71.13591797615322;-42.819072057322224;134.9745052064834;5.404611118725687;6.095637719018757;-3.105429190826416
1445509563171;71.13591797615322;-42.819072057322224;134.9745052064834;5.404611118725687;6.095637719018757;-3.105429190826416
1445509563205;68.62071524782125;-51.55729627913817;132.9413293360476;2.2044613247193396;9.392004346112161;4.002207487156009
1445509563239;68.62071524782125;-51.55729627913817;132.9413293360476;2.2044613247193396;9.392004346112161;4.002207487156009
1445509563274;68.62071524782125;-51.55729627913817;132.9413293360476;2.2044613247193396;9.392004346112161;4.002207487156009
1445509563310;72.54574868407526;-61.941956952127846;132.4147642523088;1.8694225837707519;10.650456593731791;1.5081974082946776
1445509563343;76.66318625677033;-67.23942881284586;133.53804831553796;3.59040459154658;9.992200847857818;1.3281833709716797
1445509563379;76.66318625677033;-67.23942881284586;133.53804831553796;3.59040459154658;9.992200847857818;1.3281833709716797
1445509563413;81.45406715082781;-71.8128014266397;136.32698680371777;3.3143232856750484;9.543437637649662;0.1954267105102539
1445509563449;78.65894328820067;-75.88780095098765;131.75424420816822;2.7097874395508317;8.429684916333109;0.5608417388916015
1445509563483;77.14690953021474;-78.63106427328168;128.23330194708655;2.310404528985545;8.007108323315531;0.6325181145599111
1445509563521;77.14690953021474;-78.63106427328168;128.23330194708655;2.310404528985545;8.007108323315531;0.6325181145599111
1445509563556;72.72538675481384;-80.0535563881751;122.29754885142184;2.902370962524414;8.921692992169037;1.405246773440577
1445509563590;69.98337686343815;-80.48650144232207;118.08637403009969;1.5616179689048322;10.055198205975442;2.6418519674438983
1445509563627;69.98337686343815;-80.48650144232207;118.08637403009969;1.5616179689048322;10.055198205975442;2.6418519674438983
1445509563661;72.68167214929281;-80.74647350025494;119.0080125136129;2.484732410430908;10.687117514391987;1.5099930595397948
1445509563694;65.81188324514576;-79.73876771583508;109.99138265497398;2.0055927666595204;9.270648249462992;-0.4478653115203604
1445509563728;65.81188324514576;-79.73876771583508;109.99138265497398;2.0055927666595204;9.270648249462992;-0.4478653115203604
1445509563762;69.83485607921263;-80.70528740532997;113.33232909785768;1.0712556053161622;11.578808287457376;1.168370446688868
1445509563797;78.25866032456278;-82.17622656922815;120.72091002351202;0.9029133376190438;11.680561565753072;0.018854338073730468
1445509563830;90.80971186287432;-83.09408615923684;132.25905865382745;2.1754315565247087;13.69423494567871;0.7308300658958498
1445509563867;90.80971186287432;-83.09408615923684;132.25905865382745;2.1754315565247087;13.69423494567871;0.7308300658958498
1445509563902;104.30614216354832;-82.47406331008807;145.7235673840771;0.076614453125;10.758794291919097;1.9243395843505857
1445509563937;112.23972308207057;-80.11912310453445;153.38590031434848;1.7803882095336914;10.162937280682474;3.951180927276611
1445509563973;112.23972308207057;-80.11912310453445;153.38590031434848;1.7803882095336914;10.162937280682474;3.951180927276611
1445509564007;110.17465034322592;-75.81724778356084;148.32668832788764;5.236418159838766;9.850493708303757;2.6464905870299784
1445509564042;101.93694869360861;-71.21625714932397;133.00213742088206;0.9018658378601073;11.036072844751178;-0.4349966602601111
1445509564076;101.93694869360861;-71.21625714932397;133.00213742088206;0.9018658378601073;11.036072844751178;-0.4349966602601111
1445509564113;90.19653587353305;-67.21569327399612;118.9211615794107;3.4109890407065393;11.364526946612447;6.2015808502197265
1445509564148;82.77201899515065;-60.91280021709863;112.20610069539502;5.330390721130371;10.542118968609719;2.686743248571828
1445509564183;82.77201899515065;-60.91280021709863;112.20610069539502;5.330390721130371;10.542118968609719;2.686743248571828
1445509564218;79.12500520262871;-53.54978877797889;113.58997466362585;3.333476898956299;7.665186234327685;3.13221439496465
1445509564253;78.78158097411686;-46.599269207575155;120.1510132739614;2.5477298416137693;6.044760568414255;1.5457564468383789
1445509564286;79.26302536488629;-40.451670598173465;127.47111187969486;1.253215223748982;6.028449996539205;2.6885388267517087
1445509564321;79.26302536488629;-40.451670598173465;127.47111187969486;1.253215223748982;6.028449996539205;2.6885388267517087
1445509564354;79.7087516452523;-35.47218712800946;132.91401650589884;3.1440356925964354;4.772542026574909;3.248333102416992
1445509564389;79.69884898625442;-32.15462947431364;136.9760705160178;3.2410011520937085;4.296395098346099;3.662979048565775
1445509564422;79.69884898625442;-32.15462947431364;136.9760705160178;3.2410011520937085;4.296395098346099;3.662979048565775
1445509564456;78.68881228326364;-31.055183789409195;138.59088389230124;4.109347728320211;3.1016883968628943;3.6540006462097168
1445509564490;76.71314664859779;-33.258131384683495;137.20892135352852;3.611653496606648;1.356614515686035;5.543175284078903
1445509564527;76.71314664859779;-33.258131384683495;137.20892135352852;3.611653496606648;1.356614515686035;5.543175284078903
1445509564561;75.61549506133575;-34.80973690038684;136.11597053669865;6.8161427811220285;8.889670764160156;2.3136966293334957
1445509564594;73.16543452441448;-36.95055754232325;133.61949308198623;3.217058843231201;8.197297863824666;7.137264932660013
1445509564628;73.16543452441448;-36.95055754232325;133.61949308198623;3.217058843231201;8.197297863824666;7.137264932660013
1445509564664;71.37981117776577;-41.6229619752623;130.1863016986228;4.414309383978322;10.132261718042194;6.109104811096191
1445509564699;70.43424588536182;-46.681812397108175;127.93035109281065;2.4845830650880933;7.594557486282475;3.197755592346191
1445509564734;70.64000658895338;-52.00114138656548;125.58236896170149;1.8171990600585937;7.559242609936371;2.9132945075988768
1445509564769;70.64000658895338;-52.00114138656548;125.58236896170149;1.8171990600585937;7.559242609936371;2.9132945075988768
1445509564804;71.88030187976426;-57.68049486060496;122.81243658992247;3.00861380732432;10.458770969446002;1.7377414924621581
1445509564839;72.51960441837014;-62.98252738460859;119.45214024804687;4.456207730367966;9.003993619437981;1.0800842970032245
1445509564875;72.51960441837014;-62.98252738460859;119.45214024804687;4.456207730367966;9.003993619437981;1.0800842970032245
1445509564911;73.63380008987038;-67.74892223574457;118.87561679680505;3.8657377093993124;10.624119937078655;1.297806900875829
1445509564947;77.18695985952712;-74.83706705496566;123.61747432493956;2.320579995639063;8.880543126059138;0.9175777497222647
1445509564981;77.18695985952712;-74.83706705496566;123.61747432493956;2.320579995639063;8.880543126059138;0.9175777497222647
1445509565017;77.18695985952712;-74.83706705496566;123.61747432493956;2.320579995639063;8.880543126059138;0.9175777497222647
1445509565052;71.17150349949381;-76.56898789895514;119.16311274212548;2.6970681701660153;8.859743170342966;2.090138049316406
1445509565086;68.02682519978963;-76.96323088020391;117.53351848018656;0.6778583450317383;10.654197533825783;1.703923394012451
1445509565122;68.02682519978963;-76.96323088020391;117.53351848018656;0.6778583450317383;10.654197533825783;1.703923394012451
1445509565158;67.31625566974874;-79.17876094265395;116.72466743259335;1.3040916802337392;10.34699146024175;0.012868833923339843
1445509565192;66.7284188482781;-82.27543479756342;116.09942872970164;1.1854290827143092;10.803685426916553;-0.5018844864776357
1445509565229;66.7284188482781;-82.27543479756342;116.09942872970164;1.1854290827143092;10.803685426916553;-0.5018844864776357
1445509565265;62.89979688859245;-86.43808701929859;112.84965710265433;0.9293991569519042;13.354408239801227;0.8467991814102046
1445509565300;118.27399626770064;-88.16140380817976;168.8635609326047;1.1771990059451898;13.455712897546588;2.2928970024108883
1445509565333;123.1358648709266;-85.25227316665756;174.86843036907163;1.39013329326245;10.897059364727884;4.9274167272705585
1445509565370;123.1358648709266;-85.25227316665756;174.86843036907163;1.39013329326245;10.897059364727884;4.9274167272705585
1445509565404;109.11938159910555;-80.0078811487203;162.7323541100012;3.582324270541407;11.049839212036131;4.39425801813975
1445509565438;97.7595474224456;-73.33051424370612;150.6511115397954;4.592078784179687;12.548759088897704;-0.44592005920410155
1445509565474;97.7595474224456;-73.33051424370612;150.6511115397954;4.592078784179687;12.548759088897704;-0.44592005920410155
1445509565508;85.5542248225238;-68.15006402458664;135.18498850835442;-1.4330793312072754;8.87725075171655;-3.1203926589414475
1445509565542;74.14902893735582;-64.62904421072025;126.02798403313228;1.8917184406004846;11.242422661944477;4.950909757995605
1445509565577;74.14902893735582;-64.62904421072025;126.02798403313228;1.8917184406004846;11.242422661944477;4.950909757995605
1445509565610;66.02138999274197;-59.190590060400154;122.7430726150319;3.279906709875539;9.783456317547708;2.6619034246140156
1445509565645;62.29653206373453;-52.63882247472285;124.2745098355512;2.868702209417522;9.003395196887105;0.9003696079529822
1445509565679;62.29653206373453;-52.63882247472285;124.2745098355512;2.868702209417522;9.003395196887105;0.9003696079529822
1445509565715;59.289054248031334;-45.770128482680676;130.05219515264002;2.2954408416748047;6.5022025404447685;1.014542953491211
1445509565749;56.20100767852773;-39.35507586297856;136.18819379183245;0.7779659019470214;4.820126638440042;1.0302546096250413
1445509565783;52.965879790541976;-34.73423527581909;140.2668427416983;1.2457330513000489;4.720318429797515;2.002749980981648
1445509565817;52.965879790541976;-34.73423527581909;140.2668427416983;1.2457330513000489;4.720318429797515;2.002749980981648
1445509565854;49.78455381340357;-32.81163825807493;143.03925741438104;3.516334343011677;3.425354387664795;2.42248345952779
1445509565889;45.9804437435889;-35.4801170293126;141.44092747431498;3.1066265839174387;3.0029271399900317;3.4183217125490306
1445509565922;45.9804437435889;-35.4801170293126;141.44092747431498;3.1066265839174387;3.0029271399900317;3.4183217125490306
1445509565959;42.671584413267716;-40.01031229038587;137.3985426258058;16.88570575866699;17.52525687713623;12.029965516662598
1445509565994;39.57340168239227;-43.38787632394467;134.67918835253667;-2.203712990570068;5.085284326171875;5.093813496056246
1445509566028;39.57340168239227;-43.38787632394467;134.67918835253667;-2.203712990570068;5.085284326171875;5.093813496056246
1445509566063;38.68623977745727;-49.05270113876384;132.92279576663643;3.027916912078857;9.386467316381633;3.492092685876414
1445509566097;39.64644105691399;-55.10957684880823;132.01797306476138;2.562843385723978;12.071863753454387;2.564638890838623
1445509566132;40.82882799766767;-61.29874433918589;131.02873614747296;2.772485376330465;9.004742044918798;0.7647979389466345
1445509566165;40.82882799766767;-61.29874433918589;131.02873614747296;2.772485376330465;9.004742044918798;0.7647979389466345
1445509566201;41.5005168121706;-67.80399716540026;130.68873957376337;3.61988327255249;11.024251181793213;0.9068038787841797
1445509566235;44.24895739405599;-73.28305820717543;135.43175179658192;3.5085528953552245;9.035567647021637;0.2549824768066406
1445509566271;44.24895739405599;-73.28305820717543;135.43175179658192;3.5085528953552245;9.035567647021637;0.2549824768066406
1445509566306;41.151013431718;-77.07162371339597;134.03845471780977;0.27084406280517576;7.598148606109619;-0.0953191535949707
1445509566339;32.73916430235194;-79.79143493375105;125.62167255049555;2.5094226150512693;8.47203221206665;0.8162730919769033
1445509566375;32.73916430235194;-79.79143493375105;125.62167255049555;2.5094226150512693;8.47203221206665;0.8162730919769033
1445509566409;17.92521438969767;-81.18223736000847;110.89798381039161;-0.6054337448120117;9.741408292455109;2.0477906439850107
1445509566443;7.6631949198120894;-82.19381281010922;99.71203286188985;1.9259856710571794;10.438120980127156;-0.2883516624450683
1445509566478;7.6631949198120894;-82.19381281010922;99.71203286188985;1.9259856710571794;10.438120980127156;-0.2883516624450683
1445509566514;357.42412527660895;-83.29633643200248;87.85233797896002;0.9603741409301757;10.230573148788325;-0.938975959025952
1445509566548;342.66104975913026;-85.11134190161283;71.09260917868012;-1.0516530792236327;11.662006941278278;-0.7151181266342289
1445509566582;342.66104975913026;-85.11134190161283;71.09260917868012;-1.0516530792236327;11.662006941278278;-0.7151181266342289
1445509566618;258.0018716064171;-87.54593991874576;-19.63106417957893;1.462258636540966;14.199112220764158;0.8433574617248027
1445509566652;258.0018716064171;-87.54593991874576;-19.63106417957893;1.462258636540966;14.199112220764158;0.8433574617248027
1445509566686;88.59352805217367;-88.85734645242334;168.80261458864527;1.6247650536744738;11.105354909161477;3.0277673658066426
1445509566719;88.59352805217367;-88.85734645242334;168.80261458864527;1.6247650536744738;11.105354909161477;3.0277673658066426
1445509566755;55.651613000629865;-77.47333011450029;128.13188073730552;3.3963246925354;11.911901447296142;-0.08065466842651367
1445509566788;44.41379156476757;-70.85659355308978;117.21972424251486;-1.2966098365783691;12.402562857763469;8.279748037365824
1445509566826;44.41379156476757;-70.85659355308978;117.21972424251486;-1.2966098365783691;12.402562857763469;8.279748037365824
1445509566860;47.42688329402727;-63.60004484622257;123.51157601985787;0.9533411735534667;10.229077247674763;-1.5906477279663085
1445509566894;48.3133610096678;-56.36535850483768;125.88724078004242;1.6374842979431152;8.791957628100738;2.424278891577199
1445509566928;48.3133610096678;-56.36535850483768;125.88724078004242;1.6374842979431152;8.791957628100738;2.424278891577199
1445509566964;50.343152746686705;-48.407620411800245;131.18695918698967;1.2375029830932616;6.99316351838056;0.9310451705932616
1445509567000;51.88150822736444;-40.76746633074254;138.27511056432067;1.701379554748535;5.245695618206635;1.6397291542604564
1445509567034;53.00245061181726;-34.70720014755345;144.10561085841348;1.4086884017944334;2.379387537384033;1.9445403685972094
1445509567070;53.00245061181726;-34.70720014755345;144.10561085841348;1.4086884017944334;2.379387537384033;1.9445403685972094
1445509567103;53.49889245754503;-32.2528195120376;148.16149295930916;3.593247852148488;2.539499773406982;1.9635446365356444
1445509567137;51.816949012586775;-34.425450129554356;147.47387644670283;5.8732759475708;2.931699640600383;5.7454855070251964
1445509567173;51.816949012586775;-34.425450129554356;147.47387644670283;5.8732759475708;2.931699640600383;5.7454855070251964
1445509567207;48.32697597296694;-37.986586548791415;143.09684726715338;-1.1837830833435057;6.753444186755269;3.097049485015869
1445509567242;45.774395182099106;-42.94403342540245;140.04935747792362;2.5300724582396446;8.4391119392395;5.1497780603270975
1445509567276;45.774395182099106;-42.94403342540245;140.04935747792362;2.5300724582396446;8.4391119392395;5.1497780603270975
1445509567310;45.30785029769893;-48.460770910076434;139.08072708016974;1.4047978240966796;8.935908491460978;4.418050031811371
1445509567345;47.50085804149667;-54.1763055433618;139.78142735303507;2.787599066571146;11.961730769348144;2.990806640215963
1445509567382;47.50085804149667;-54.1763055433618;139.78142735303507;2.787599066571146;11.961730769348144;2.990806640215963
1445509567418;50.64965839425163;-59.43365608388745;141.8073173052654;3.80902527677007;11.493514707183838;1.7215807773865759
1445509567451;52.5432179061187;-64.04706770428487;143.42521438236054;3.273621784387156;10.012102722223103;1.5294459480285643
1445509567485;53.01340621090492;-68.06243354946191;145.08002729597627;1.5277999343872068;9.010278681923682;0.6724715374268591
1445509567519;53.01340621090492;-68.06243354946191;145.08002729597627;1.5277999343872068;9.010278681923682;0.6724715374268591
1445509567556;51.25340721016914;-71.69579459987317;144.58523686244678;0.6655880615234374;8.570793249743804;1.2387002300538121
1445509567592;46.98494176202707;-74.95002682796462;140.2572488281973;0.7677904718261211;7.4046673305787145;0.630722499847412
1445509567625;46.98494176202707;-74.95002682796462;140.2572488281973;0.7677904718261211;7.4046673305787145;0.630722499847412
1445509567660;42.30426912826819;-77.30628490311298;133.76115612922067;-0.3022679595947265;7.737012156268209;1.2195464706420898
1445509567694;40.631665013356745;-79.74967843458451;129.7469324272727;1.2692261413906;9.372102636143659;0.5107131781646982
1445509567731;40.631665013356745;-79.74967843458451;129.7469324272727;1.2692261413906;9.372102636143659;0.5107131781646982
1445509567765;41.316812996733915;-82.48879953115613;127.2366228241987;0.8786720184104982;9.22246468532402;0.22954408416748046
1445509567801;45.1230200722582;-85.96378937135555;127.504935962057;1.229572190093994;11.748497476251423;-0.4996399224212393
1445509567835;105.84296651473471;-89.30907143927011;-174.42918717799273;1.9976619862183402;14.30670165786743;0.06359597703132312
1445509567873;105.84296651473471;-89.30907143927011;-174.42918717799273;1.9976619862183402;14.30670165786743;0.06359597703132312
1445509567907;186.21210696932067;-87.77732149572658;-94.46189507652707;0.6429927833557129;13.464391878564655;2.449417970192933
1445509567940;142.14871688830468;-86.88741440421035;-139.01631884680748;1.8405425627777352;11.426477206829935;2.0886417098114265
1445509567974;142.14871688830468;-86.88741440421035;-139.01631884680748;1.8405425627777352;11.426477206829935;2.0886417098114265
1445509568009;93.49646563298163;-83.12869044757448;171.88604601419362;4.336946614970359;12.973580538232623;1.65469258584287
1445509568044;68.96033236296557;-77.46408638492039;145.07873939978765;-0.4715081625122577;12.923003028161823;-3.1042320899963376
1445509568077;68.96033236296557;-77.46408638492039;145.07873939978765;-0.4715081625122577;12.923003028161823;-3.1042320899963376
1445509568113;53.43482270788385;-72.00718999901453;129.2090397456429;-1.3808558074951172;12.811522721099852;11.550975547027587
1445509568147;52.66544326117086;-63.89316951087523;133.93729440862012;1.4811131481446325;10.704775190027057;-2.1856065482541918
1445509568183;50.76210644887875;-56.28822394400445;132.37357751045926;1.3373112648010252;8.24263748237514;3.873519047457911
1445509568218;50.76210644887875;-56.28822394400445;132.37357751045926;1.3373112648010252;8.24263748237514;3.873519047457911
1445509568256;50.15541767321883;-39.371579365873394;144.2913660534413;0.7206546997070312;4.4038348247803745;1.5646107849121094
1445509568291;50.15541767321883;-39.371579365873394;144.2913660534413;0.7206546997070312;4.4038348247803745;1.5646107849121094
1445509568324;50.15541767321883;-39.371579365873394;144.2913660534413;0.7206546997070312;4.4038348247803745;1.5646107849121094
1445509568360;48.05124079434163;-30.51725998750654;151.43782969535815;2.9909562778197225;3.4029087471008297;2.7156232330322263
1445509568394;45.645287870189094;-32.60258673818605;150.9574489514229;3.8084265802245585;1.9614497100830077;4.330811528015136
1445509568429;45.645287870189094;-32.60258673818605;150.9574489514229;3.8084265802245585;1.9614497100830077;4.330811528015136
1445509568465;44.14971675095601;-36.79375071055154;148.18076743008092;8.758737860870362;10.690559325408936;9.952247680719196
1445509568500;40.67185560822252;-40.421940346661415;143.6846895007801;5.984007920483499;9.914837695257365;2.878129378454387
1445509568533;40.67185560822252;-40.421940346661415;143.6846895007801;5.984007920483499;9.914837695257365;2.878129378454387
1445509568567;40.67185560822252;-40.421940346661415;143.6846895007801;5.984007920483499;9.914837695257365;2.878129378454387
1445509568604;39.134536816266404;-51.800782105692;138.28160789546024;0.7029974624633789;11.270404747717082;2.4890717548094687
1445509568638;40.62750715307241;-58.955066058416165;133.53251768647326;3.3469443563599137;10.544363386535643;0.4261678955078125
1445509568674;40.62750715307241;-58.955066058416165;133.53251768647326;3.3469443563599137;10.544363386535643;0.4261678955078125
1445509568710;40.94820365390069;-65.79932533630823;127.46512840739229;3.3077392767753917;10.208576457568258;0.51714755859375
1445509568744;41.177061043434826;-71.90719996234546;123.5885268936267;3.09016615524292;8.26717855171524;0.270694425201416
1445509568782;41.177061043434826;-71.90719996234546;123.5885268936267;3.09016615524292;8.26717855171524;0.270694425201416
1445509568817;42.3353545558366;-77.21906380691004;122.06964082390807;2.284068310723826;8.196549237414448;0.9528922790084965
1445509568851;45.05362365195557;-80.97528684862985;125.7021421158824;2.2738929536681622;8.062025177764893;0.8066963218688964
1445509568885;42.91960417278241;-83.60349037063281;124.56226312786846;-0.4260181848388165;8.757690470709278;-1.5191209533691405
1445509568918;42.91960417278241;-83.60349037063281;124.56226312786846;-0.4260181848388165;8.757690470709278;-1.5191209533691405
1445509568954;26.21017348444027;-86.58555721858075;106.78525016617523;0.9443629173278808;9.498995159735157;0.10265138704604469
1445509568989;358.71493793929164;-87.98909648923045;77.36733247242368;0.663343497467041;9.585934516188036;-0.4622305443141842
1445509569025;358.71493793929164;-87.98909648923045;77.36733247242368;0.663343497467041;9.585934516188036;-0.4622305443141842
1445509569061;300.5335948767415;-88.49125826538662;17.841282986263852;-0.29284079055786133;9.591022413911578;-2.8119899229187517
1445509569094;245.0201885129469;-85.8436667197125;-38.179727966180295;-0.9305962577819824;11.412860038757323;0.0047884033203125
1445509569130;245.0201885129469;-85.8436667197125;-38.179727966180295;-0.9305962577819824;11.412860038757323;0.0047884033203125
1445509569165;229.18677520260024;-81.08514706771925;-54.53341785776682;1.4490907009400427;10.249278251117095;1.0143933158874512
1445509569201;219.81162231734876;-79.528752802068;-63.37928486982767;1.2026372752867638;13.059921143341064;-1.368735161590576
1445509569234;216.62302819546946;-80.81498163460314;-67.59990622366279;2.7214590995788575;12.083086719866841;-0.02798223190307617
1445509569268;216.62302819546946;-80.81498163460314;-67.59990622366279;2.7214590995788575;12.083086719866841;-0.02798223190307617
1445509569304;184.8704625374557;-85.07314778437852;-100.17872392415896;0.730381143951416;11.81284149973765;1.6843207948546857
1445509569338;93.6081447989996;-82.43576428385134;169.27059041644952;-4.709095372053515;14.921113658905028;1.1626841538139152
1445509569376;93.6081447989996;-82.43576428385134;169.27059041644952;-4.709095372053515;14.921113658905028;1.1626841538139152
1445509569411;72.26591374064795;-75.5318132850347;147.13036637555896;-0.6552630668640136;11.130044967651367;1.6482582419464364
1445509569445;61.42068230198667;-67.94302533463375;136.9289239086058;1.296310707501322;10.348337833349406;1.9689317364014685
1445509569481;61.42068230198667;-67.94302533463375;136.9289239086058;1.296310707501322;10.348337833349406;1.9689317364014685
1445509569514;55.69522147945978;-60.0979968112174;132.72032160225697;-0.14829086532592772;9.637859002154693;1.9457379078187047
1445509569551;53.83102507231652;-52.37096665299229;132.21456205004915;2.332550821276754;11.950059328515827;2.792088194683939
1445509569584;52.780010995109784;-43.74581007677999;135.24319774285473;3.2148142791748047;9.636362699182332;2.0980688423156737
1445509569621;52.780010995109784;-43.74581007677999;135.24319774285473;3.2148142791748047;9.636362699182332;2.0980688423156737
1445509569658;51.99731657202026;-35.76788064218556;139.80264504318725;1.8121113815307617;5.9304377679353575;2.7044007050111887
1445509569692;51.18818835548456;-29.983262155955188;143.18900375191262;3.1528641650877893;2.6961701984129847;3.011457067926228
1445509569727;51.18818835548456;-29.983262155955188;143.18900375191262;3.1528641650877893;2.6961701984129847;3.011457067926228
1445509569763;50.11490501308444;-27.096614601420466;145.80264609304965;3.8404491004943844;1.9403508079528808;3.4403178557798264
1445509569798;47.91572392158301;-27.75664292417904;147.31691692780916;5.287594256857224;0.6376058296203613;4.322581459808349
1445509569832;45.185628121033375;-31.707617286602716;146.36522836205964;10.46161408391744;10.82762737045288;16.671574347686768
1445509569868;45.185628121033375;-31.707617286602716;146.36522836205964;10.46161408391744;10.82762737045288;16.671574347686768
1445509569901;42.43814283796148;-33.53102104503725;144.48099780523052;4.361786511993408;9.042600102941691;2.7539304595947263
1445509569935;39.71347622094267;-37.41157020099137;140.42247000004363;1.4776716293886303;6.441150726904347;4.178929506329447
1445509569973;39.71347622094267;-37.41157020099137;140.42247000004363;1.4776716293886303;6.441150726904347;4.178929506329447
1445509570008;38.351549312276184;-43.02374351690047;136.7170358097371;0.35374300302714107;10.342502551324666;3.021631986590475
1445509570043;38.68831849334379;-49.751598477668644;131.83184461195032;2.5459341903686523;11.13109213861674;1.8963572063170373
1445509570078;38.68831849334379;-49.751598477668644;131.83184461195032;2.5459341903686523;11.13109213861674;1.8963572063170373
1445509570114;41.96032953197978;-63.32383773126898;126.41078659961329;4.073135720471292;10.529848685101419;0.4607341819763183
1445509570147;41.96032953197978;-63.32383773126898;126.41078659961329;4.073135720471292;10.529848685101419;0.4607341819763183
