sep=;
timestamp;gyro-alpha;gyro-beta;gyro-gamma;accel-x;accel-y;accel-z
1445423936929;155.3696746826172;-101.35671997070312;1.036506175994873;4.4002227783203125;-16.025039672851562;-5.1641845703125
1445423936961;152.009765625;-103.21501159667969;-0.5942525267601013;7.656036376953125;-18.143280029296875;-3.2420806884765625
1445423936994;152.1008758544922;-104.89582061767578;-1.9943954944610596;2.5958099365234375;-5.9634246826171875;1.1120758056640625
1445423937028;152.9588623046875;-105.69837951660156;-1.6941680908203125;3.63531494140625;-3.7667236328125;4.4071044921875
1445423937060;157.7769775390625;-102.08271026611328;-1.6866300106048584;2.2819976806640625;-7.74822998046875;5.1916351318359375
1445423937094;165.70196533203125;-96.16455078125;-2.9511704444885254;-1.169952392578125;-12.121994018554688;-0.4962158203125
1445423937125;167.165283203125;-93.6218032836914;-3.482351541519165;-1.15032958984375;-9.846847534179688;-0.241241455078125
1445423937159;169.68838500976562;-90.27387237548828;-3.930311441421509;1.438629150390625;-9.160385131835938;1.7397003173828125
1445423937193;172.4674072265625;-86.70704650878906;-5.353209972381592;2.2819976806640625;-9.886077880859375;0.2883148193359375
1445423937224;173.14346313476562;-85.1594467163086;-5.974223613739014;1.3209381103515625;-10.121444702148438;0.7394256591796875
1445423937258;174.17031860351562;-82.90364074707031;-6.830332279205322;0.595245361328125;-9.748779296875;0.6609649658203125
1445423937290;175.59796142578125;-82.05615234375;-7.288788795471191;-0.34619140625;-9.925308227539062;1.0336151123046875
1445423937324;179.4243927001953;-81.0179443359375;-8.317093849182129;-0.9345855712890625;-10.356796264648438;1.1120758056640625
1445423937361;181.8690185546875;-79.42021179199219;-8.859028816223145;-0.267730712890625;-10.062606811523438;-0.182403564453125
1445423937390;182.49957275390625;-78.35736846923828;-8.98847770690918;1.18365478515625;-9.415359497070312;-1.084625244140625
1445423937424;183.1171875;-76.58674621582031;-9.713231086730957;1.0267486572265625;-9.572265625;-0.4177703857421875
1445423937458;183.87066650390625;-75.95945739746094;-10.51706600189209;-0.4638671875;-11.180557250976562;0.3471527099609375
1445423937490;184.56060791015625;-76.0805435180664;-10.636256217956543;-1.0130462646484375;-12.631942749023438;0.07257080078125
1445423937523;187.15673828125;-76.7220687866211;-10.238781929016113;0.0068511962890625;-13.2203369140625;-0.4373779296875
1445423937554;189.302978515625;-77.97239685058594;-8.716903686523438;0.8306121826171875;-14.063705444335938;-2.5948486328125
1445423937590;189.7230224609375;-79.12332916259766;-7.56049919128418;1.497467041015625;-13.318405151367188;-2.4379425048828125
1445423937647;191.3406982421875;-87.14322662353516;-5.893974304199219;6.9499664306640625;-11.121719360351562;-0.9080963134765625
1445423937653;192.466552734375;-90.6942367553711;-5.742511749267578;7.087249755859375;-11.90625;0.13140869140625
1445423937688;193.85858154296875;-93.95995330810547;-5.457753658294678;6.6165313720703125;-12.259292602539062;0.955169677734375
1445423937720;194.63397216796875;-99.16667938232422;-4.5658183097839355;1.615142822265625;-11.298233032226562;-0.8492584228515625
1445423937753;194.16265869140625;-101.58612823486328;-3.579587936401367;0.1245269775390625;-10.729446411132812;-0.3197021484375
1445423937786;193.277099609375;-105.9097900390625;-1.437953233718872;1.222869873046875;-8.846572875976562;-0.77081298828125
1445423937819;191.5689697265625;-109.36590576171875;-0.0667160302400589;1.105194091796875;-7.7874603271484375;-1.00616455078125
1445423937857;190.96075439453125;-110.76119232177734;0.6699654459953308;0.1441497802734375;-7.0029296875;-1.5945587158203125
1445423937893;189.6563720703125;-112.75459289550781;1.8524763584136963;0.10491943359375;-5.728057861328125;-1.496490478515625
1445423937918;187.47589111328125;-113.43016815185547;2.197453260421753;0.0656890869140625;-5.159271240234375;-1.378814697265625
1445423937961;185.41351318359375;-112.54598236083984;1.940937876701355;-0.1304473876953125;-4.982757568359375;-1.9868316650390625
1445423937984;184.58380126953125;-111.38050079345703;1.7028932571411133;-0.4638671875;-6.120330810546875;-3.3793792724609375
1445423938018;183.29718017578125;-108.34869384765625;1.0763598680496216;-0.640380859375;-11.21978759765625;-6.9489898681640625
1445423938054;182.5343017578125;-107.19862365722656;0.6686760783195496;-0.4246368408203125;-11.867019653320312;-9.537948608398438
1445423938082;180.39691162109375;-107.53175354003906;0.28297924995422363;-1.4249267578125;-9.748779296875;-7.360870361328125
1445423938115;179.36708068847656;-108.49826049804688;0.06812547147274017;-3.0724334716796875;-8.1405029296875;-4.71307373046875
1445423938179;177.33981323242188;-108.60877990722656;-1.1877025365829468;1.1444244384765625;-11.592437744140625;-3.16363525390625
1445423938228;178.94232177734375;-107.99163055419922;-0.7232820391654968;3.439178466796875;-6.179168701171875;1.7789306640625
1445423938240;179.9578857421875;-107.56673431396484;-0.9585234522819519;1.98779296875;-6.7871856689453125;2.955718994140625
1445423938261;181.5408935546875;-106.07007598876953;-1.4963877201080322;-0.9934234619140625;-9.356521606445312;2.661529541015625
1445423938295;183.95062255859375;-103.69441223144531;-2.04994797706604;-1.5033721923828125;-11.415924072265625;0.07257080078125
1445423938328;187.47314453125;-99.13906860351562;-3.77707839012146;-1.03265380859375;-10.25872802734375;-1.202301025390625
1445423938360;186.43603515625;-96.28347778320312;-5.827004909515381;0.7521514892578125;-9.297683715820312;-0.2608642578125
1445423938401;185.452392578125;-94.19180297851562;-7.5750579833984375;0.34027099609375;-9.807632446289062;-0.5550537109375
1445423938426;184.20758056640625;-92.96065521240234;-8.263923645019531;-0.9934234619140625;-9.395751953125;-0.6138916015625
1445423938460;182.72100830078125;-91.76080322265625;-8.8368558883667;-1.0130462646484375;-9.631103515625;-0.005889892578125
1445423938498;181.4039306640625;-89.55970764160156;-9.311556816101074;1.12481689453125;-9.533035278320312;0.2098541259765625
1445423938526;180.7357177734375;-87.17820739746094;-9.675555229187012;2.2819976806640625;-9.356521606445312;0.111785888671875
1445423938559;180.3359375;-86.07231903076172;-10.118752479553223;3.3018798828125;-9.023101806640625;1.072845458984375
1445423938595;178.8562469482422;-83.65620422363281;-11.431446075439453;3.1057586669921875;-9.12115478515625;1.0532379150390625
1445423938625;178.24269104003906;-80.57110595703125;-13.05417251586914;2.2035369873046875;-9.807632446289062;-0.2804718017578125
1445423938660;178.19017028808594;-78.95451354980469;-13.828850746154785;-0.3069610595703125;-10.984420776367188;-1.18267822265625
1445423938691;178.41314697265625;-76.54505157470703;-15.006597518920898;-0.9934234619140625;-11.729736328125;-0.1039581298828125
1445423938724;178.9841766357422;-76.31063079833984;-15.498897552490234;-0.032379150390625;-11.984695434570312;-0.3197021484375
1445423938757;179.72059631347656;-76.33154296875;-16.260543823242188;-0.4638671875;-14.240234375;0.30792236328125
1445423938791;181.40087890625;-76.39615631103516;-16.374649047851562;-2.307525634765625;-14.75018310546875;-0.0451202392578125
1445423938824;181.584716796875;-76.7437744140625;-15.467211723327637;-1.5622100830078125;-14.201004028320312;-1.6337890625
1445423938858;181.5887451171875;-79.3409423828125;-12.749588012695312;1.12481689453125;-10.219512939453125;0.621734619140625
1445423938890;180.58917236328125;-84.6225814819336;-9.909605026245117;3.0861358642578125;-10.729446411132812;0.641357421875
1445423938925;179.6563262939453;-87.65323638916016;-8.842737197875977;4.77288818359375;-12.730010986328125;0.562896728515625
1445423938956;177.5405731201172;-93.69155883789062;-7.883682727813721;4.5963592529296875;-12.337738037109375;0.01373291015625
1445423939001;176.19003295898438;-98.51606750488281;-6.108318328857422;1.3993988037109375;-11.51397705078125;-0.3981475830078125
1445423939020;174.26438903808594;-100.32593536376953;-4.586575508117676;-0.4834747314453125;-10.847137451171875;1.465118408203125
1445423939054;169.6291961669922;-104.18901824951172;-1.7994190454483032;-0.0519866943359375;-9.356521606445312;1.072845458984375
1445423939087;163.64476013183594;-108.97909545898438;-0.47801631689071655;0.301055908203125;-8.042434692382812;0.327545166015625
1445423939121;160.27870178222656;-110.93265533447266;0.04035874828696251;0.4971771240234375;-7.57171630859375;-0.3197021484375
1445423939153;154.16555786132812;-113.58585357666016;1.2530921697616577;0.8109893798828125;-6.120330810546875;-0.1431732177734375
1445423939186;148.7343292236328;-114.3656234741211;1.7562286853790283;1.7132110595703125;-4.413970947265625;0.955169677734375
1445423939220;146.89405822753906;-114.13248443603516;1.8963255882263184;2.3996734619140625;-4.1786041259765625;0.641357421875
1445423939255;145.0467529296875;-112.11207580566406;2.0903966426849365;3.2038116455078125;-5.041595458984375;-1.12384033203125
1445423939285;146.2852783203125;-108.25804901123047;1.767641544342041;-1.9348602294921875;-15.88775634765625;-11.401214599609375
1445423939318;146.05531311035156;-106.45272827148438;1.728926181793213;-5.64178466796875;-16.927261352539062;-10.69512939453125
1445423939352;143.63827514648438;-106.5356216430664;3.6017978191375732;-2.68017578125;-10.435256958007812;-7.5177764892578125
1445423939384;142.11093139648438;-107.58997344970703;4.32305383682251;0.595245361328125;-17.08416748046875;-2.967498779296875
1445423939417;136.92282104492188;-109.18537139892578;2.6958115100860596;2.73309326171875;-15.475875854492188;-2.08489990234375
1445423939450;136.3787078857422;-110.19705200195312;2.2917861938476562;7.479522705078125;-6.5125885009765625;2.2888641357421875
1445423939484;136.85589599609375;-110.50508880615234;2.8592844009399414;7.1264801025390625;-4.982757568359375;4.720916748046875
1445423939516;141.26016235351562;-106.20614624023438;2.968851089477539;1.8701171875;-10.14105224609375;3.7990875244140625
1445423939549;145.40809631347656;-102.59336853027344;2.5567378997802734;-2.5232696533203125;-11.004043579101562;0.7198028564453125
1445423939583;152.25767517089844;-96.40433502197266;1.1260838508605957;-3.24896240234375;-11.004043579101562;-1.084625244140625
1445423939615;154.25521850585938;-91.81108093261719;0.5476350784301758;0.04608154296875;-9.356521606445312;0.935546875
1445423939648;156.85614013671875;-88.22157287597656;-0.6353930830955505;1.2817230224609375;-9.199615478515625;0.6609649658203125
1445423939681;157.82923889160156;-86.81109619140625;-0.9330766201019287;1.105194091796875;-9.68994140625;0.5236663818359375
1445423939714;160.59347534179688;-84.39921569824219;-1.960947871208191;0.3795013427734375;-10.003753662109375;0.6021270751953125
1445423939747;162.81185913085938;-83.40070343017578;-2.602158308029175;-0.601165771484375;-9.493820190429688;1.26898193359375
1445423939780;167.18173217773438;-81.67932891845703;-3.6487040519714355;-0.97381591796875;-10.08221435546875;1.0336151123046875
1445423939813;169.38043212890625;-79.61573028564453;-4.2543816566467285;-0.0716094970703125;-9.96453857421875;-0.3981475830078125
1445423939846;170.23477172851562;-78.33495330810547;-4.67466926574707;1.556304931640625;-9.533035278320312;0.2098541259765625
1445423939879;172.29476928710938;-76.48494720458984;-6.259374618530273;1.75244140625;-9.356521606445312;0.36676025390625
1445423939911;174.38389587402344;-75.01419067382812;-8.12887191772461;-0.954193115234375;-10.788284301757812;1.8377685546875
1445423939945;175.61508178710938;-74.47994232177734;-8.709237098693848;-1.9544830322265625;-11.357070922851562;1.3670501708984375
1445423939978;178.9207000732422;-73.73372650146484;-9.569695472717285;-1.0718841552734375;-12.063156127929688;0.7394256591796875
1445423940010;182.4549560546875;-73.70378875732422;-9.616466522216797;-1.20916748046875;-13.49493408203125;-0.241241455078125
1445423940044;183.861572265625;-74.06514739990234;-8.778034210205078;-1.856414794921875;-15.397415161132812;-0.9277191162109375
1445423940076;186.30609130859375;-76.84032440185547;-6.243448257446289;2.811553955078125;-13.1026611328125;-1.51611328125
1445423940110;187.280517578125;-79.56340026855469;-5.253452301025391;5.890838623046875;-11.51397705078125;-0.751190185546875
1445423940143;189.13330078125;-86.60391235351562;-4.544206619262695;7.028411865234375;-12.396575927734375;-0.574676513671875
1445423940176;190.83856201171875;-93.2788314819336;-4.145967960357666;5.6162567138671875;-12.573104858398438;-0.1431732177734375
1445423940209;191.3983154296875;-95.91732025146484;-3.632819175720215;2.3408355712890625;-10.8275146484375;-0.574676513671875
1445423940243;189.17864990234375;-100.97555541992188;-2.062228202819824;1.0267486572265625;-11.572830200195312;-0.0254974365234375
1445423940277;187.95928955078125;-103.37232971191406;-1.2106393575668335;0.9090576171875;-8.218948364257812;-0.123565673828125
1445423940311;185.6519775390625;-109.14791107177734;-0.7091967463493347;0.928680419921875;-7.375579833984375;-0.6138916015625
1445423940347;183.7327880859375;-113.58843231201172;-1.1139781475067139;0.6933135986328125;-7.4736480712890625;-0.692352294921875
1445423940375;181.76422119140625;-115.95169830322266;-1.0786032676696777;0.8306121826171875;-5.7084503173828125;-0.810028076171875
1445423940407;180.47772216796875;-116.47610473632812;-1.0838940143585205;0.2618255615234375;-5.17889404296875;-0.77081298828125
1445423940441;178.1699981689453;-115.93629455566406;-1.1264779567718506;-0.326568603515625;-4.6689453125;-1.3003692626953125
1445423940473;177.29440307617188;-114.98495483398438;-1.087193489074707;-0.91497802734375;-5.9241943359375;-3.34014892578125
1445423940509;176.7437286376953;-111.85371398925781;-0.7898995280265808;-0.8169097900390625;-8.650436401367188;-6.5763397216796875
1445423940542;177.06492614746094;-108.36650848388672;-0.4226767420768738;0.1441497802734375;-15.4366455078125;-12.85260009765625
1445423940576;175.84739685058594;-107.82769012451172;-0.5117337703704834;0.6737060546875;-9.846847534179688;-7.4981689453125
1445423940607;172.57302856445312;-110.16683197021484;-0.6429293155670166;2.0270233154296875;-8.866195678710938;-5.987945556640625
1445423940638;169.35777282714844;-112.06282806396484;-1.6957528591156006;2.0270233154296875;-18.45709228515625;-5.5760650634765625
1445423940671;168.5220184326172;-112.41874694824219;-2.3614416122436523;1.6347503662109375;-13.024200439453125;-4.281585693359375
1445423940707;169.73965454101562;-114.52476501464844;-1.4580858945846558;7.4991302490234375;-3.5313720703125;2.9164886474609375
1445423940737;173.33053588867188;-112.77591705322266;-1.1059222221374512;1.556304931640625;-9.258453369140625;2.8576507568359375
1445423940770;177.21212768554688;-110.01822662353516;-0.653984010219574;-0.660003662109375;-12.945755004882812;4.269805908203125
1445423940803;185.080322265625;-104.10535430908203;0.10193978995084763;-2.660552978515625;-11.631668090820312;-1.084625244140625
1445423940835;186.8603515625;-101.41432189941406;0.30187952518463135;-0.6796112060546875;-9.572265625;-0.005889892578125
1445423940870;189.25146484375;-97.37725830078125;0.07218914479017258;0.6148681640625;-9.317291259765625;0.445220947265625
1445423940902;192.540283203125;-93.22358703613281;-1.4027637243270874;2.43890380859375;-9.434967041015625;-0.0843353271484375
1445423940935;194.1982421875;-91.23052978515625;-2.3187410831451416;1.9681854248046875;-9.729171752929688;-0.0843353271484375
1445423940968;195.8931884765625;-87.97172546386719;-3.375197172164917;0.7325439453125;-9.866470336914062;1.3474273681640625
1445423941001;200.18902587890625;-85.51520538330078;-4.847476959228516;1.164031982421875;-9.513427734375;1.0336151123046875
1445423941034;202.85772705078125;-84.68553161621094;-5.830301284790039;0.536407470703125;-9.96453857421875;1.1120758056640625
1445423941066;206.1632080078125;-83.16779327392578;-7.4285149574279785;-0.01275634765625;-10.062606811523438;1.1709136962890625
1445423941100;206.8341064453125;-82.04273223876953;-7.95379638671875;0.8502197265625;-9.96453857421875;-0.6727447509765625
1445423941132;207.76202392578125;-79.24237060546875;-9.093194961547852;1.36016845703125;-9.984146118164062;-1.3984375
1445423941166;208.80239868164062;-77.58547973632812;-10.581226348876953;-0.5619354248046875;-9.90570068359375;0.4648284912109375
1445423941200;209.71896362304688;-77.24855041503906;-10.901762008666992;-2.17022705078125;-11.121719360351562;1.249359130859375
1445423941231;211.28024291992188;-77.02640533447266;-11.004023551940918;-1.6995086669921875;-11.965087890625;0.4844512939453125
1445423941265;215.134765625;-77.06105041503906;-10.956664085388184;2.360443115234375;-12.9849853515625;-0.6531219482421875
1445423941298;216.70211791992188;-77.18638610839844;-10.555273056030273;-0.660003662109375;-14.86785888671875;-1.712249755859375
1445423941331;218.25289916992188;-78.97125244140625;-8.750701904296875;-1.7191162109375;-15.10321044921875;-1.496490478515625
1445423941365;220.30450439453125;-84.44005584716797;-7.057387351989746;3.1449737548828125;-11.710113525390625;-0.88848876953125
1445423941397;220.96453857421875;-87.6663818359375;-6.693087577819824;4.7924957275390625;-11.259017944335938;-0.5942840576171875
1445423941430;222.78363037109375;-94.30950927734375;-6.1431803703308105;4.7336578369140625;-12.082763671875;0.4059906005859375
1445423941463;223.54684448242188;-97.13593292236328;-5.561146259307861;0.3206634521484375;-10.513702392578125;-0.3393096923828125
1445423941496;222.9041748046875;-102.35636138916016;-4.154665470123291;0.536407470703125;-10.5921630859375;-0.5550537109375
1445423941529;221.116943359375;-107.07025909423828;-2.8427469730377197;0.9482879638671875;-8.846572875976562;-0.1627960205078125
1445423941562;219.65423583984375;-109.27774810791016;-2.6527159214019775;1.673980712890625;-7.7286224365234375;-0.9669342041015625
1445423941594;216.72244262695312;-113.58734893798828;-2.8376457691192627;1.3797760009765625;-7.5324859619140625;-1.3395843505859375
1445423941628;214.20123291015625;-116.66846466064453;-2.636911392211914;0.5756378173828125;-6.7675628662109375;-1.06500244140625
1445423941661;212.9102783203125;-117.49451446533203;-2.4289262294769287;0.7521514892578125;-5.53192138671875;-0.8492584228515625
1445423941694;210.0682373046875;-118.1414566040039;-2.2761640548706055;0.928680419921875;-5.0612030029296875;-0.8492584228515625
1445423941727;207.97979736328125;-117.11128997802734;-2.2364327907562256;1.0071258544921875;-4.7081756591796875;-1.261138916015625
1445423941761;207.2640380859375;-115.84646606445312;-2.3578603267669678;1.4582366943359375;-5.6496124267578125;-3.771636962890625
1445423941793;206.62371826171875;-112.29405212402344;-3.221263885498047;0.8502197265625;-8.160110473632812;-6.5175018310546875
1445423941826;206.01416015625;-109.20063781738281;-4.32963228225708;-1.3072357177734375;-18.672836303710938;-11.32275390625
1445423941858;204.12225341796875;-109.20963287353516;-4.763370037078857;-0.5619354248046875;-14.887466430664062;-8.282699584960938
1445423941892;200.6807861328125;-112.3690414428711;-4.372521877288818;1.438629150390625;-6.630279541015625;-5.7722015380859375
1445423941924;197.5682373046875;-113.10294342041016;-5.5029802322387695;3.1057586669921875;-15.926971435546875;-4.2423553466796875
1445423941958;196.65582275390625;-112.77315521240234;-6.478244781494141;3.1842041015625;-17.26068115234375;-5.61529541015625
1445423941994;196.4854736328125;-113.26614379882812;-7.091885089874268;4.576751708984375;-6.355682373046875;1.9554443359375
1445423942026;197.50286865234375;-114.30427551269531;-6.691470623016357;4.89056396484375;-3.962860107421875;3.5048980712890625
1445423942058;201.79266357421875;-112.02120971679688;-6.061639785766602;-1.7779541015625;-9.297683715820312;2.5438385009765625
1445423942090;209.01129150390625;-107.21159362792969;-5.483520030975342;-2.5232696533203125;-12.318130493164062;1.190521240234375
1445423942125;210.77410888671875;-105.46796417236328;-5.895383834838867;-0.6992340087890625;-9.886077880859375;-2.4379425048828125
1445423942158;210.1614990234375;-102.5633544921875;-7.076548099517822;0.7717742919921875;-9.631103515625;-1.261138916015625
1445423942189;209.8284912109375;-101.44766235351562;-7.681949615478516;2.7919464111328125;-9.611495971679688;-0.1627960205078125
1445423942224;210.37557983398438;-98.99962615966797;-8.300931930541992;1.3797760009765625;-9.238845825195312;-0.6531219482421875
1445423942257;210.50430297851562;-95.82518768310547;-8.797258377075195;0.5560302734375;-9.415359497070312;-0.6138916015625
1445423942287;212.39999389648438;-92.76909637451172;-9.261948585510254;0.5560302734375;-8.787734985351562;-0.064727783203125
1445423942321;213.68942260742188;-91.23628997802734;-9.65436840057373;1.0267486572265625;-8.76812744140625;0.9747772216796875
1445423942355;215.87521362304688;-88.24728393554688;-10.9524564743042;3.2038116455078125;-9.042709350585938;-0.751190185546875
1445423942387;215.76885986328125;-86.71399688720703;-11.740331649780273;1.36016845703125;-10.964813232421875;-1.8495330810546875
1445423942421;215.79730224609375;-84.34527587890625;-12.735180854797363;0.242218017578125;-10.749069213867188;-1.6337890625
1445423942454;219.68792724609375;-82.92830657958984;-13.398985862731934;-0.4638671875;-10.396026611328125;-0.4569854736328125
1445423942486;220.76214599609375;-82.23748016357422;-13.617527961730957;-0.0519866943359375;-11.592437744140625;-0.4373779296875
1445423942519;220.451904296875;-81.44900512695312;-14.112757682800293;0.1441497802734375;-12.259292602539062;0.1706390380859375
1445423942552;222.12496948242188;-81.94283294677734;-14.348603248596191;-1.03265380859375;-14.593276977539062;-0.574676513671875
1445423942585;222.54107666015625;-82.60074615478516;-14.001132011413574;-1.9936981201171875;-14.338302612304688;-1.9083709716796875
1445423942618;221.92572021484375;-84.55426025390625;-12.607316970825195;-0.7580718994140625;-11.78857421875;-0.515838623046875
1445423942651;219.89361572265625;-89.10972595214844;-11.148957252502441;2.066253662109375;-10.984420776367188;0.6609649658203125
1445423942684;218.733154296875;-92.10079956054688;-10.832019805908203;2.61541748046875;-12.318130493164062;0.9747772216796875
1445423942718;218.49029541015625;-98.04016876220703;-10.267130851745605;0.418731689453125;-11.90625;1.3670501708984375
1445423942750;218.3983154296875;-100.28285217285156;-9.630206108093262;-1.856414794921875;-11.27862548828125;0.7394256591796875
1445423942783;217.36920166015625;-104.43019104003906;-7.147838592529297;-1.0130462646484375;-10.866744995117188;0.6609649658203125
1445423942816;212.38177490234375;-107.15316009521484;-4.45278787612915;-0.6207733154296875;-9.493820190429688;1.32781982421875
1445423942850;209.13848876953125;-108.0783462524414;-3.119516372680664;-0.7972869873046875;-9.650726318359375;1.1120758056640625
1445423942882;201.054931640625;-109.81981658935547;-0.48541802167892456;-0.58154296875;-9.748779296875;0.81787109375
1445423942915;191.931884765625;-111.25101470947266;1.4285842180252075;0.477569580078125;-8.748504638671875;0.4256134033203125
1445423942947;187.39141845703125;-112.04426574707031;1.8746628761291504;1.98779296875;-7.552093505859375;0.36676025390625
1445423942981;179.72422790527344;-113.57054901123047;2.272785186767578;2.929229736328125;-7.0813751220703125;-0.0843353271484375
1445423943014;174.6729278564453;-113.97789001464844;2.0648181438446045;3.439178466796875;-6.9636993408203125;-1.457275390625
1445423943047;172.74977111816406;-113.8284683227539;1.8327629566192627;3.1645965576171875;-6.5714263916015625;-2.3594818115234375
1445423943080;170.6148681640625;-112.96381378173828;1.3198437690734863;1.928955078125;-7.3363494873046875;-3.16363525390625
1445423943113;170.16845703125;-112.32489013671875;1.263534665107727;-0.7580718994140625;-9.748779296875;-5.6937408447265625
1445423943145;167.7123565673828;-111.04051971435547;1.5623533725738525;-2.4448089599609375;-10.552932739257812;-5.085723876953125
1445423943180;167.47409057617188;-109.56525421142578;3.2812249660491943;-3.3862457275390625;-10.7686767578125;-6.8901519775390625
1445423943212;167.14614868164062;-108.7658462524414;4.106400489807129;2.635040283203125;-19.53582763671875;-4.5561676025390625
1445423943245;165.90391540527344;-107.46455383300781;2.826726198196411;4.2825469970703125;-20.4576416015625;-3.6343536376953125
1445423943279;168.6242218017578;-107.53730010986328;2.517063617706299;4.184478759765625;-6.7087249755859375;1.5435638427734375
1445423943312;169.86923217773438;-108.32230377197266;3.3880040645599365;4.125640869140625;-3.6882781982421875;2.720367431640625
1445423943344;174.4553680419922;-104.43254089355469;3.893639326095581;1.046356201171875;-7.5128631591796875;5.054351806640625
1445423943376;184.76904296875;-97.97509002685547;2.6668014526367188;-1.5818328857421875;-12.102386474609375;2.328094482421875
1445423943412;187.4095458984375;-95.17829895019531;1.7268201112747192;-0.3854217529296875;-10.337188720703125;-0.2020263671875
1445423943444;189.70440673828125;-91.43452453613281;0.8758590221405029;0.6933135986328125;-9.180007934570312;2.328094482421875
1445423943476;194.8533935546875;-87.71676635742188;-0.6618089079856873;2.242767333984375;-9.12115478515625;2.092742919921875
1445423943510;197.13470458984375;-86.1264419555664;-1.2712929248809814;1.105194091796875;-10.847137451171875;1.014007568359375
1445423943542;201.2379150390625;-83.64218139648438;-1.5382698774337769;0.7325439453125;-10.670608520507812;0.4844512939453125
1445423943576;207.0562744140625;-82.111572265625;-2.144137144088745;0.1245269775390625;-9.788009643554688;2.6026763916015625
1445423943608;210.3251953125;-81.48224639892578;-2.552542209625244;-0.2481231689453125;-9.944915771484375;2.52423095703125
1445423943643;215.23150634765625;-80.05496978759766;-3.182162284851074;-0.6207733154296875;-10.08221435546875;0.36676025390625
1445423943674;217.15609741210938;-79.11727905273438;-3.670254707336426;0.4383392333984375;-9.650726318359375;0.4844512939453125
1445423943707;220.73095703125;-77.27437591552734;-5.364360332489014;0.987518310546875;-9.513427734375;-0.1039581298828125
1445423943741;222.91519165039062;-75.70552062988281;-7.304536819458008;-0.718841552734375;-10.08221435546875;0.24908447265625
1445423943776;224.72921752929688;-75.15198516845703;-8.176666259765625;-2.17022705078125;-11.023651123046875;0.0333404541015625
1445423943809;228.9371337890625;-74.95079040527344;-9.202814102172852;-1.15032958984375;-11.612045288085938;-0.241241455078125
1445423943841;231.3260498046875;-74.93123626708984;-9.527095794677734;0.0068511962890625;-13.181106567382812;-0.5942840576171875
1445423943877;235.99237060546875;-75.0926284790039;-9.7606840133667;-2.22906494140625;-14.514816284179688;-1.4180450439453125
1445423943909;238.40127563476562;-76.55461120605469;-7.681135177612305;-0.718841552734375;-12.886917114257812;-0.7904205322265625
1445423943938;239.7540283203125;-78.57711791992188;-6.440769672393799;4.3413848876953125;-12.220062255859375;-0.241241455078125
1445423943971;242.53887939453125;-84.9202651977539;-4.37305212020874;5.6162567138671875;-13.200729370117188;0.30792236328125
1445423944007;244.50244140625;-91.37337493896484;-3.4335901737213135;5.7535552978515625;-13.710678100585938;-0.6531219482421875
1445423944036;245.58251953125;-94.36579895019531;-3.1469199657440186;3.0272979736328125;-11.376693725585938;-0.77081298828125
1445423944069;247.6746826171875;-99.87882232666016;-1.7123613357543945;2.9096221923828125;-11.33746337890625;-0.3981475830078125
1445423944103;248.41119384765625;-103.75148010253906;0.30206313729286194;2.066253662109375;-8.76812744140625;0.7394256591796875
1445423944136;248.07977294921875;-105.86024475097656;0.9791535139083862;1.4582366943359375;-7.35595703125;-0.123565673828125
1445423944168;246.96987915039062;-110.69945526123047;1.6260286569595337;1.36016845703125;-6.6498870849609375;-0.6138916015625
1445423944203;246.2755126953125;-113.89447784423828;2.097590923309326;0.6933135986328125;-5.41424560546875;-0.6727447509765625
1445423944234;245.9134521484375;-114.77473449707031;2.0845248699188232;0.654083251953125;-4.845458984375;-0.5354461669921875
1445423944268;245.43890380859375;-114.87532043457031;2.0028693675994873;0.10491943359375;-4.355133056640625;-0.5354461669921875
1445423944301;245.529052734375;-114.23066711425781;2.121943473815918;-0.9934234619140625;-5.728057861328125;-1.888763427734375
1445423944334;245.49795532226562;-111.37556457519531;2.36991810798645;-1.7191162109375;-7.1402130126953125;-3.3205413818359375
1445423944367;244.9805908203125;-108.35545349121094;2.8636903762817383;-1.9544830322265625;-12.71038818359375;-8.18463134765625
1445423944400;244.31808471679688;-107.64825439453125;3.6367251873016357;-2.660552978515625;-15.358184814453125;-11.303146362304688
1445423944433;241.04461669921875;-108.53509521484375;4.771228313446045;-1.3072357177734375;-11.317855834960938;-8.694580078125
1445423944466;237.85897827148438;-111.19205474853516;3.99096941947937;2.10546875;-5.6496124267578125;-2.7321319580078125
1445423944499;237.12942504882812;-111.45362854003906;3.231569766998291;7.3618316650390625;-19.359298706054688;-3.1047821044921875
1445423944532;238.93670654296875;-109.79886627197266;1.501473069190979;5.5377960205078125;-18.025604248046875;-4.2619781494140625
1445423944565;240.83450317382812;-109.87847137451172;1.6222209930419922;3.8510589599609375;-5.7476806640625;4.4463348388671875
1445423944598;244.779296875;-110.57907104492188;2.599628448486328;2.61541748046875;-3.904022216796875;6.368438720703125
1445423944631;253.59710693359375;-105.25040435791016;4.119135856628418;-0.0716094970703125;-10.513702392578125;4.7405242919921875
1445423944664;258.41082763671875;-101.68412780761719;4.279190540313721;-1.405303955078125;-12.200454711914062;-0.9865570068359375
1445423944697;263.7843933105469;-96.48417663574219;4.282899379730225;-0.8757476806640625;-10.964813232421875;-0.4962158203125
1445423944730;269.815673828125;-92.515625;3.886507272720337;1.5170745849609375;-9.06231689453125;2.092742919921875
1445423944765;273.3203125;-90.20022583007812;3.3184292316436768;1.0659637451171875;-10.337188720703125;1.26898193359375
1445423944795;277.96868896484375;-85.98614501953125;2.22375750541687;0.4579620361328125;-10.513702392578125;1.7789306640625
1445423944829;283.1227111816406;-83.56352996826172;1.2259570360183716;0.0853118896484375;-9.96453857421875;1.7985382080078125
1445423944862;286.8432312011719;-82.516845703125;0.6943005919456482;-0.4834747314453125;-10.19989013671875;1.0336151123046875
1445423944895;292.84613037109375;-81.00531768798828;-0.15252171456813812;-0.7384490966796875;-10.356796264648438;1.0532379150390625
1445423944928;294.7638854980469;-80.23717498779297;-0.5421594977378845;-0.7972869873046875;-10.042984008789062;0.4648284912109375
1445423944964;297.26995849609375;-78.50096893310547;-1.7448878288269043;0.0656890869140625;-9.572265625;0.19024658203125
1445423944994;299.33343505859375;-76.80329895019531;-3.654148578643799;-0.0716094970703125;-9.081939697265625;0.24908447265625
1445423945027;300.2027893066406;-75.98873138427734;-4.659541130065918;-1.6995086669921875;-10.749069213867188;1.582794189453125
1445423945060;301.884521484375;-74.68804168701172;-6.238460540771484;-2.34674072265625;-11.21978759765625;1.4847259521484375
1445423945092;305.3591003417969;-73.96756744384766;-7.007777214050293;0.5167999267578125;-11.768951416015625;-0.6727447509765625
1445423945126;307.90496826171875;-73.5932846069336;-7.496799468994141;2.49774169921875;-13.1026611328125;-0.6531219482421875
1445423945159;311.9750061035156;-73.92428588867188;-7.875111103057861;0.5167999267578125;-13.651840209960938;-0.751190185546875
1445423945192;315.61431884765625;-75.8279037475586;-6.253192901611328;1.105194091796875;-11.808181762695312;-0.5942840576171875
1445423945225;318.09649658203125;-78.07861328125;-5.149779796600342;5.5377960205078125;-11.631668090820312;-0.0843353271484375
1445423945259;323.010986328125;-84.51473999023438;-3.621781826019287;6.4792327880859375;-13.141891479492188;0.2686920166015625
1445423945291;327.64776611328125;-90.77843475341797;-3.0824100971221924;5.7339324951171875;-13.710678100585938;-0.633514404296875
1445423945325;329.90533447265625;-93.43611145019531;-2.652513027191162;2.988067626953125;-11.141326904296875;-0.6531219482421875
1445423945359;333.01495361328125;-97.95027160644531;-1.0082426071166992;3.1253662109375;-10.866744995117188;0.052947998046875
1445423945390;333.7203063964844;-99.7588119506836;-0.18739254772663116;2.6546478271484375;-8.022811889648438;0.5236663818359375
1445423945423;332.95159912109375;-104.72895812988281;-0.025202544406056404;2.2623748779296875;-7.375579833984375;0.07257080078125
1445423945457;332.36920166015625;-110.03604125976562;-0.19292162358760834;0.9482879638671875;-7.1990509033203125;-0.751190185546875
1445423945489;332.45068359375;-111.77869415283203;-0.24273370206356049;0.5560302734375;-5.9045867919921875;-0.7119598388671875
1445423945523;331.81268310546875;-113.96926879882812;-0.8938407301902771;0.4383392333984375;-5.47308349609375;-0.5942840576171875
1445423945557;330.71624755859375;-113.73323059082031;-1.4122956991195679;-0.3069610595703125;-5.0612030029296875;-0.868865966796875
1445423945590;330.4068603515625;-112.73583984375;-1.4304704666137695;-1.405303955078125;-5.8849639892578125;-1.6730194091796875
1445423945621;329.77960205078125;-109.50028991699219;-0.5029551386833191;-2.40557861328125;-6.8264007568359375;-2.7909698486328125
1445423945654;328.65570068359375;-106.04988098144531;1.2084286212921143;-2.8370819091796875;-10.611770629882812;-6.9686126708984375
1445423945686;328.365478515625;-104.79792022705078;1.9070173501968384;-1.5818328857421875;-14.161773681640625;-10.0675048828125
1445423945720;327.0516662597656;-104.275634765625;3.011021375656128;-0.208892822265625;-13.946029663085938;-11.440444946289062
1445423945753;323.1783447265625;-107.10908508300781;1.82795250415802;4.3413848876953125;-10.219512939453125;-3.889312744140625
1445423945787;321.9378356933594;-107.47332000732422;-0.01670493558049202;7.204925537109375;-15.338577270507812;-0.574676513671875
1445423945819;323.4991760253906;-106.8111572265625;-2.628478527069092;1.47784423828125;-7.1402130126953125;0.1510162353515625
1445423945852;325.8664245605469;-106.90253448486328;-2.3262195587158203;2.242767333984375;-5.100433349609375;3.916778564453125
1445423945885;331.1308288574219;-105.92547607421875;-0.7695310115814209;1.438629150390625;-8.728897094726562;4.5051727294921875
1445423945919;338.6505432128906;-100.89216613769531;-0.8990879058837891;-1.15032958984375;-12.867294311523438;1.3670501708984375
1445423945951;341.95477294921875;-98.27406311035156;-1.2850652933120728;-0.405029296875;-10.180282592773438;-0.2020263671875
1445423945983;345.7530212402344;-94.18537139892578;-1.4747529029846191;0.8109893798828125;-9.415359497070312;0.9747772216796875
1445423946017;350.8590087890625;-91.05609893798828;-2.2702605724334717;2.3408355712890625;-9.925308227539062;0.2098541259765625
1445423946051;353.72833251953125;-89.4171142578125;-3.069944143295288;0.928680419921875;-10.160659790039062;0.621734619140625
1445423946083;357.21697998046875;-86.94757843017578;-4.364071846008301;-0.6992340087890625;-10.415634155273438;0.9159393310546875
1445423946116;359.6694641113281;-85.34716033935547;-5.061431884765625;-1.1307220458984375;-9.317291259765625;0.562896728515625
1445423946153;1.88641357421875;-84.4287109375;-5.279766082763672;-0.4442596435546875;-9.591873168945312;0.7001953125
1445423946182;7.111175537109375;-82.90218353271484;-6.074272155761719;-0.1108245849609375;-10.180282592773438;-0.1431732177734375
1445423946215;9.59979248046875;-81.59461975097656;-6.980771064758301;-0.640380859375;-9.925308227539062;-0.3393096923828125
1445423946248;10.10369873046875;-81.02741241455078;-7.419581413269043;-1.0522613525390625;-9.807632446289062;-0.4373779296875
1445423946281;9.7681884765625;-79.59796905517578;-8.158536911010742;-1.405303955078125;-9.493820190429688;-1.261138916015625
1445423946313;9.700775146484375;-78.84652709960938;-8.604568481445312;-1.9348602294921875;-10.101821899414062;1.014007568359375
1445423946348;10.50323486328125;-78.07606506347656;-9.10451602935791;-2.484039306640625;-10.474472045898438;2.1711883544921875
1445423946380;12.80804443359375;-77.6816635131836;-8.772440910339355;1.41900634765625;-11.27862548828125;-0.0451202392578125
1445423946414;15.01495361328125;-77.09503173828125;-8.648758888244629;4.8513336181640625;-13.259567260742188;-0.0843353271484375
1445423946446;17.933441162109375;-77.08621978759766;-8.287782669067383;0.5756378173828125;-15.338577270507812;0.4256134033203125
1445423946479;20.562225341796875;-79.53303527832031;-6.313040256500244;1.5955352783203125;-11.729736328125;-1.319976806640625
1445423946514;22.1695556640625;-81.49524688720703;-5.286131858825684;2.6546478271484375;-10.513702392578125;-0.7119598388671875
1445423946544;24.67303466796875;-86.54381561279297;-4.369874477386475;4.7336578369140625;-10.160659790039062;-1.2415313720703125
1445423946579;28.38397216796875;-92.47737121582031;-4.836784839630127;6.0477447509765625;-11.651275634765625;-0.5942840576171875
1445423946611;30.175323486328125;-95.14293670654297;-4.816826343536377;5.7535552978515625;-11.45513916015625;-0.4962158203125
1445423946644;30.48797607421875;-98.68818664550781;-3.882479429244995;3.63531494140625;-11.043258666992188;0.0921783447265625
1445423946678;29.897674560546875;-103.0339126586914;-3.4374959468841553;2.8311614990234375;-9.729171752929688;-0.2216339111328125
1445423946710;29.29443359375;-105.16064453125;-3.7778303623199463;2.9096221923828125;-9.160385131835938;-0.7119598388671875
1445423946743;27.85760498046875;-109.31224822998047;-5.112613201141357;2.183929443359375;-9.493820190429688;-1.692626953125
1445423946777;27.755340576171875;-111.19374084472656;-5.433776378631592;1.3797760009765625;-8.88580322265625;-2.8890380859375
1445423946816;27.118377685546875;-114.01217651367188;-5.261486530303955;0.1245269775390625;-7.826690673828125;-2.7909698486328125
1445423946843;25.394927978515625;-115.4515380859375;-5.19045352935791;-0.0519866943359375;-6.806793212890625;-2.8890380859375
1445423946877;24.559600830078125;-115.77128601074219;-5.357345104217529;0.2618255615234375;-5.5711517333984375;-3.3205413818359375
1445423946908;23.090179443359375;-115.59099578857422;-5.878645420074463;0.536407470703125;-5.8849639892578125;-3.771636962890625
1445423946941;21.5496826171875;-114.10665130615234;-6.888798713684082;1.3797760009765625;-7.297119140625;-6.0271759033203125
1445423946974;20.690765380859375;-113.005126953125;-7.880526065826416;2.3408355712890625;-8.1993408203125;-6.81170654296875
1445423947007;17.975830078125;-110.75857543945312;-10.695281982421875;2.360443115234375;-9.199615478515625;-7.10589599609375
1445423947040;15.99078369140625;-109.9354476928711;-12.007346153259277;0.8109893798828125;-8.101272583007812;-5.7525787353515625
1445423947074;12.6201171875;-109.62074279785156;-13.148224830627441;2.32122802734375;-10.788284301757812;-4.458099365234375
1445423947107;10.376129150390625;-109.80396270751953;-13.911175727844238;5.027862548828125;-15.966201782226562;-4.399261474609375
1445423947139;9.479278564453125;-110.13939666748047;-14.736639976501465;3.439178466796875;-7.3951873779296875;1.1120758056640625
1445423947172;8.78460693359375;-111.4314193725586;-15.613365173339844;2.32122802734375;-7.552093505859375;0.504058837890625
1445423947208;11.028045654296875;-110.37539672851562;-14.708230972290039;-1.228790283203125;-10.925582885742188;1.072845458984375
1445423947238;13.03765869140625;-108.95648193359375;-13.94696044921875;-1.6602783203125;-11.27862548828125;-1.75146484375
1445423947273;15.369293212890625;-105.37490844726562;-13.063722610473633;-1.09149169921875;-10.02337646484375;-2.08489990234375
1445423947304;15.958038330078125;-103.43380737304688;-12.988526344299316;-0.4442596435546875;-9.513427734375;-1.457275390625
1445423947336;16.341217041015625;-102.67039489746094;-12.941628456115723;0.04608154296875;-10.180282592773438;-1.7318572998046875
1445423947370;16.94744873046875;-100.9410629272461;-12.807202339172363;1.4582366943359375;-10.062606811523438;-1.2219085693359375
1445423947402;16.460052490234375;-99.39737701416016;-12.871675491333008;0.6933135986328125;-9.670333862304688;-1.06500244140625
1445423947436;15.499786376953125;-98.57723236083984;-13.083405494689941;0.654083251953125;-9.415359497070312;-0.9669342041015625
1445423947470;13.267669677734375;-96.91123962402344;-13.688069343566895;0.477569580078125;-9.631103515625;-0.633514404296875
1445423947501;11.766693115234375;-95.97884368896484;-14.058156967163086;0.9090576171875;-9.846847534179688;-0.182403564453125
1445423947536;8.9869384765625;-94.00365447998047;-14.524591445922852;1.47784423828125;-9.768402099609375;-0.1039581298828125
1445423947569;7.548065185546875;-91.80880737304688;-14.7008695602417;2.066253662109375;-9.572265625;-0.064727783203125
1445423947601;6.984619140625;-90.65526580810547;-14.683248519897461;2.43890380859375;-9.376129150390625;-0.574676513671875
1445423947634;5.831268310546875;-88.1588363647461;-14.753557205200195;1.7720489501953125;-9.611495971679688;-0.692352294921875
1445423947667;5.39349365234375;-86.23533630371094;-14.77601146697998;-0.1696624755859375;-10.239120483398438;-1.18267822265625
1445423947700;5.391845703125;-85.47807312011719;-14.587154388427734;-0.91497802734375;-10.552932739257812;-1.3592071533203125
1445423947733;6.098236083984375;-84.40998077392578;-14.082612991333008;-1.5426025390625;-10.5333251953125;-0.9277191162109375
1445423947766;6.114349365234375;-84.07683563232422;-13.727704048156738;-1.8171844482421875;-12.200454711914062;0.0333404541015625
1445423947799;3.3267822265625;-83.47313690185547;-12.840598106384277;-0.4246368408203125;-14.35791015625;-0.515838623046875
1445423947832;358.92449951171875;-84.03144073486328;-12.223600387573242;-0.7580718994140625;-14.259841918945312;-0.9669342041015625
1445423947866;357.5399169921875;-85.37211608886719;-11.86572265625;-1.6014404296875;-12.788848876953125;0.19024658203125
1445423947897;355.474853515625;-89.7079086303711;-10.746652603149414;-0.34619140625;-11.553207397460938;-0.4569854736328125
1445423947932;352.37261962890625;-95.47821044921875;-9.892714500427246;1.497467041015625;-10.749069213867188;1.3474273681640625
1445423947964;350.8705139160156;-97.94855499267578;-9.440951347351074;0.654083251953125;-11.768951416015625;0.36676025390625
1445423947997;347.4467468261719;-101.87602233886719;-7.312244415283203;0.0853118896484375;-11.121719360351562;0.7001953125
1445423948030;342.2062683105469;-104.51290893554688;-5.059467315673828;1.046356201171875;-9.866470336914062;0.07257080078125
1445423948063;339.3763122558594;-105.92448425292969;-4.200260162353516;1.0071258544921875;-9.90570068359375;-0.0843353271484375
1445423948095;332.8496398925781;-108.69487762451172;-3.029688596725464;0.654083251953125;-9.199615478515625;-0.4373779296875
1445423948129;325.5967712402344;-111.32317352294922;-2.4766011238098145;1.0855865478515625;-7.7874603271484375;-0.182403564453125
1445423948164;322.04791259765625;-112.41609191894531;-2.3643364906311035;1.47784423828125;-6.8852386474609375;-0.182403564453125
1445423948196;316.0440673828125;-113.77657318115234;-2.314894199371338;1.3209381103515625;-6.0418701171875;-0.515838623046875
1445423948229;313.47265625;-113.91632843017578;-2.359375238418579;1.47784423828125;-6.3360748291015625;-1.6533966064453125
1445423948260;309.02655029296875;-113.30306243896484;-2.7395637035369873;1.8897247314453125;-6.9636993408203125;-2.8498077392578125
1445423948294;304.8248596191406;-111.1290054321289;-4.1829986572265625;2.929229736328125;-9.474197387695312;-5.0465087890625
1445423948328;302.45703125;-109.66848754882812;-5.821849346160889;2.43890380859375;-11.39630126953125;-6.3213653564453125
1445423948360;298.1331787109375;-107.54429626464844;-8.268877029418945;1.6935882568359375;-11.474761962890625;-6.81170654296875
1445423948392;293.95684814453125;-107.48062133789062;-8.73930549621582;1.3405609130859375;-12.631942749023438;-4.222747802734375
1445423948426;292.34185791015625;-107.61408996582031;-8.908703804016113;2.49774169921875;-15.142440795898438;-3.0459442138671875
1445423948460;290.93304443359375;-108.200927734375;-10.372176170349121;1.53668212890625;-11.533599853515625;-1.3395843505859375
1445423948492;292.2630615234375;-109.61317443847656;-11.07719612121582;0.4579620361328125;-7.179443359375;2.838043212890625
1445423948525;293.3471984863281;-109.03426361083984;-10.91390323638916;-1.03265380859375;-8.277786254882812;1.9946746826171875
1445423948558;295.6016845703125;-105.44474029541016;-10.913228034973145;-2.601715087890625;-11.043258666992188;-0.2608642578125
1445423948592;295.5299072265625;-102.37188720703125;-12.452092170715332;-1.2483978271484375;-9.729171752929688;-1.0257720947265625
1445423948625;295.0721130371094;-101.50670623779297;-13.177360534667969;-0.58154296875;-9.081939697265625;-0.1039581298828125
1445423948658;293.25732421875;-100.07394409179688;-13.745551109313965;0.8109893798828125;-10.08221435546875;-0.7904205322265625
1445423948690;291.3710021972656;-98.888427734375;-13.780505180358887;0.242218017578125;-9.96453857421875;-0.9669342041015625
1445423948728;286.8703918457031;-96.55167388916016;-13.67624282836914;0.2618255615234375;-9.807632446289062;0.0333404541015625
1445423948758;281.41656494140625;-94.71540069580078;-13.461188316345215;0.536407470703125;-9.611495971679688;0.3471527099609375
1445423948791;278.17218017578125;-93.69298553466797;-13.269194602966309;1.9681854248046875;-9.219223022460938;2.2888641357421875
1445423948823;273.72967529296875;-91.31096649169922;-12.66524600982666;3.63531494140625;-9.631103515625;1.21014404296875
1445423948858;270.80877685546875;-88.57484436035156;-12.760986328125;3.75299072265625;-9.493820190429688;0.876708984375
1445423948888;269.9058837890625;-87.57150268554688;-13.066422462463379;3.1842041015625;-9.572265625;0.30792236328125
1445423948921;269.8694763183594;-85.70446014404297;-13.89321517944336;2.7723236083984375;-9.415359497070312;0.1510162353515625
1445423948954;270.0271911621094;-83.98297882080078;-15.122931480407715;1.850494384765625;-10.219512939453125;0.2883148193359375
1445423948986;269.8995666503906;-83.11176300048828;-15.714385986328125;0.4383392333984375;-11.043258666992188;0.1706390380859375
1445423949020;268.6742248535156;-81.58610534667969;-16.257009506225586;-1.6406707763671875;-12.435806274414062;-1.692626953125
1445423949052;267.6917724609375;-81.20048522949219;-16.271921157836914;-1.974090576171875;-14.573654174804688;-1.6533966064453125
1445423949086;265.0025939941406;-81.73059844970703;-15.618528366088867;-1.6602783203125;-14.495208740234375;-1.692626953125
1445423949118;259.50604248046875;-84.26608276367188;-14.478975296020508;-1.4445343017578125;-11.768951416015625;-0.751190185546875
1445423949152;257.08294677734375;-86.4190902709961;-14.126988410949707;0.1441497802734375;-12.29852294921875;0.6021270751953125
1445423949186;253.38992309570312;-92.28703308105469;-13.429205894470215;0.7325439453125;-12.769241333007812;2.3477020263671875
1445423949218;250.6004638671875;-98.41434478759766;-12.538751602172852;0.7521514892578125;-11.592437744140625;2.9949493408203125
1445423949251;249.80239868164062;-100.74327850341797;-11.498068809509277;0.6344757080078125;-11.768951416015625;1.9750518798828125
1445423949284;247.40771484375;-104.73284149169922;-8.854507446289062;-0.326568603515625;-11.415924072265625;1.759307861328125
1445423949317;241.085693359375;-106.97779083251953;-6.624391078948975;-0.8169097900390625;-9.591873168945312;1.8966064453125
1445423949350;236.94451904296875;-107.73947143554688;-5.865755558013916;-0.9934234619140625;-9.415359497070312;1.7985382080078125
1445423949383;227.67068481445312;-109.62509155273438;-5.146000862121582;-0.8169097900390625;-8.866195678710938;2.210418701171875
1445423949415;222.84295654296875;-110.27190399169922;-5.0598883628845215;-0.85614013671875;-8.925033569335938;2.2888641357421875
1445423949450;213.0872802734375;-111.1047592163086;-5.10319185256958;0.3206634521484375;-9.474197387695312;2.151580810546875
1445423949483;203.9576416015625;-111.37762451171875;-5.083715915679932;1.6543731689453125;-9.493820190429688;1.56317138671875
1445423949516;197.427001953125;-111.30270385742188;-4.591139793395996;3.2822723388671875;-8.82696533203125;-0.2804718017578125
1445423949549;195.03955078125;-111.10842895507812;-4.306090831756592;3.69415283203125;-9.160385131835938;-1.6730194091796875
1445423949581;190.38922119140625;-110.34120178222656;-4.459192276000977;3.3018798828125;-10.239120483398438;-4.2619781494140625
1445423949614;187.54278564453125;-109.95655822753906;-5.0215983390808105;1.2621002197265625;-9.278060913085938;-4.3796539306640625
1445423949647;182.02410888671875;-109.81401824951172;-6.175083160400391;-0.208892822265625;-9.395751953125;-4.9876708984375
1445423949681;177.63514709472656;-110.61328887939453;-5.674362659454346;-3.288177490234375;-13.946029663085938;-6.87054443359375
1445423949713;175.50938415527344;-111.15992736816406;-4.869102478027344;-5.9163665771484375;-16.24078369140625;-7.1451263427734375
1445423949747;170.9080352783203;-113.24620056152344;-3.5214171409606934;1.75244140625;-5.041595458984375;2.1123504638671875
1445423949778;170.7274932861328;-114.49214172363281;-2.9005439281463623;7.420684814453125;-6.238006591796875;1.0924530029296875
1445423949811;168.76235961914062;-113.5361099243164;-5.326906681060791;2.3408355712890625;-8.983871459960938;0.6609649658203125
1445423949845;169.5394744873047;-110.0545654296875;-6.997483730316162;-1.09149169921875;-13.632217407226562;1.8573760986328125
1445423949878;169.4341583251953;-108.31278228759766;-8.035008430480957;1.0855865478515625;-9.984146118164062;0.01373291015625
1445423949910;166.41342163085938;-106.10737609863281;-10.579757690429688;1.9093475341796875;-9.748779296875;-0.064727783203125
1445423949944;164.9747314453125;-103.44367980957031;-12.16817569732666;1.98779296875;-11.33746337890625;-0.123565673828125
1445423949977;164.20997619628906;-101.9808120727539;-12.561336517333984;0.5756378173828125;-10.905975341796875;-0.241241455078125
1445423950010;162.8994140625;-99.52828979492188;-12.660755157470703;0.2618255615234375;-10.5333251953125;-0.300079345703125
1445423950043;160.9869384765625;-97.02454376220703;-12.729254722595215;0.242218017578125;-9.984146118164062;-0.4766082763671875
1445423950078;159.9107666015625;-95.80487823486328;-12.840100288391113;0.595245361328125;-9.807632446289062;-0.574676513671875
1445423950109;158.9972381591797;-93.48690795898438;-12.978538513183594;1.6347503662109375;-8.94464111328125;-0.2216339111328125
1445423950142;159.09593200683594;-91.2400894165039;-13.736480712890625;2.635040283203125;-8.179718017578125;-0.3197021484375
1445423950176;158.7270050048828;-90.08541870117188;-14.392646789550781;2.3996734619140625;-8.238555908203125;-0.0451202392578125
1445423950208;158.5627899169922;-88.00363159179688;-15.756582260131836;1.98779296875;-9.219223022460938;0.3471527099609375
1445423950243;159.8374481201172;-86.1601333618164;-16.77098846435547;1.18365478515625;-11.33746337890625;-1.06500244140625
1445423950274;160.00466918945312;-85.05409240722656;-17.108627319335938;0.0656890869140625;-12.102386474609375;-1.75146484375
1445423950308;160.25621032714844;-83.8007583618164;-17.224584579467773;-1.5426025390625;-14.534439086914062;-0.633514404296875
1445423950339;160.3109588623047;-84.02606964111328;-16.87097930908203;-2.34674072265625;-15.88775634765625;-0.241241455078125
1445423950374;158.2425079345703;-85.7138442993164;-15.2988862991333;-2.739013671875;-13.926422119140625;-1.829925537109375
1445423950407;154.9840850830078;-89.68844604492188;-14.506227493286133;0.026458740234375;-10.396026611328125;-0.5550537109375
1445423950439;154.4298553466797;-92.5301513671875;-14.43184757232666;1.30133056640625;-10.552932739257812;-0.300079345703125
1445423950473;154.2562713623047;-98.97428131103516;-13.947321891784668;-0.267730712890625;-11.768951416015625;1.9358367919921875
1445423950504;153.2803497314453;-101.09715270996094;-13.15117359161377;-2.2094573974609375;-12.02392578125;2.504608154296875
1445423950537;149.87225341796875;-104.16072845458984;-11.122804641723633;-2.366363525390625;-12.573104858398438;2.151580810546875
1445423950570;142.49349975585938;-106.38064575195312;-8.723176002502441;-2.1898345947265625;-11.298233032226562;2.7399749755859375
1445423950604;138.0411376953125;-106.89834594726562;-7.6222615242004395;-0.9345855712890625;-10.356796264648438;2.3084869384765625
1445423950637;127.97311401367188;-108.06128692626953;-6.084354877471924;-0.5619354248046875;-10.788284301757812;2.1123504638671875
1445423950670;116.41448974609375;-108.52201843261719;-5.003588676452637;-0.4246368408203125;-10.552932739257812;2.5438385009765625
1445423950709;110.56954956054688;-108.61178588867188;-4.616672992706299;-0.01275634765625;-9.96453857421875;2.3084869384765625
1445423950735;99.94580078125;-108.99057006835938;-4.268113613128662;1.0855865478515625;-9.925308227539062;1.818145751953125
1445423950769;95.2518310546875;-109.14370727539062;-4.266880512237549;2.9488525390625;-10.042984008789062;0.4648284912109375
1445423950801;87.2254638671875;-109.55342864990234;-4.3897271156311035;3.556854248046875;-9.768402099609375;-0.0451202392578125
1445423950835;81.06689453125;-110.33285522460938;-4.146728038787842;3.4195709228515625;-8.042434692382812;-1.3984375
1445423950868;78.6888427734375;-110.83660888671875;-3.8737807273864746;1.5170745849609375;-6.7087249755859375;-3.3597564697265625
1445423950900;73.76968383789062;-111.5250473022461;-4.264389514923096;-0.032379150390625;-6.55181884765625;-4.2619781494140625
1445423950934;67.78427124023438;-111.2835693359375;-5.610133647918701;-3.7000579833984375;-7.3363494873046875;-5.477996826171875
1445423950967;65.30508422851562;-110.9511489868164;-5.936031341552734;-3.170501708984375;-9.788009643554688;-5.4583892822265625
1445423951000;60.999603271484375;-110.24137115478516;-5.632869720458984;-1.915252685546875;-10.7686767578125;-5.5760650634765625
1445423951033;57.61737060546875;-109.38558959960938;-5.6917243003845215;2.360443115234375;-20.555709838867188;-5.301483154296875
1445423951066;56.897613525390625;-109.35698699951172;-6.108152389526367;3.4587860107421875;-8.3758544921875;-0.2608642578125
1445423951099;57.051483154296875;-111.96417999267578;-5.976977348327637;5.773162841796875;-4.6885528564453125;1.9946746826171875
1445423951132;57.10400390625;-111.03260803222656;-6.425336837768555;-1.111114501953125;-6.689117431640625;3.465667724609375
1445423951165;59.502716064453125;-108.6864013671875;-5.866623878479004;-3.2685699462890625;-11.925857543945312;2.9361114501953125
1445423951198;62.3780517578125;-103.60508728027344;-6.485520362854004;-1.6210479736328125;-11.474761962890625;-0.4569854736328125
1445423951232;60.16204833984375;-100.90272521972656;-8.42410659790039;1.5170745849609375;-9.552658081054688;-0.005889892578125
1445423951264;59.453887939453125;-100.1112289428711;-9.364670753479004;1.615142822265625;-9.670333862304688;0.111785888671875
1445423951297;58.48406982421875;-98.37971496582031;-10.278509140014648;0.6148681640625;-9.944915771484375;-0.5550537109375
1445423951330;57.02410888671875;-95.91607666015625;-10.611076354980469;0.242218017578125;-9.395751953125;-0.2020263671875
1445423951363;56.99774169921875;-94.89346313476562;-10.589038848876953;0.418731689453125;-9.611495971679688;-0.1431732177734375
1445423951396;57.410064697265625;-92.69908905029297;-10.616171836853027;1.36016845703125;-9.45458984375;0.01373291015625
1445423951433;57.92425537109375;-90.53899383544922;-11.280645370483398;2.183929443359375;-8.964248657226562;1.26898193359375
1445423951462;58.3116455078125;-89.44877624511719;-11.723639488220215;2.125091552734375;-9.199615478515625;1.50433349609375
1445423951495;58.740264892578125;-86.596923828125;-12.477510452270508;2.1446990966796875;-9.846847534179688;-0.3393096923828125
1445423951529;58.8287353515625;-84.92826843261719;-12.722393035888672;0.418731689453125;-10.121444702148438;-1.2807464599609375
1445423951560;60.652008056640625;-82.46611022949219;-13.351402282714844;-1.2680206298828125;-10.690231323242188;-0.1627960205078125
1445423951593;61.97320556640625;-81.861083984375;-13.661014556884766;-2.542877197265625;-11.592437744140625;1.700469970703125
1445423951626;62.94085693359375;-81.10733032226562;-14.059986114501953;-1.20916748046875;-13.141891479492188;0.9747772216796875
1445423951659;63.912506103515625;-80.17655181884766;-14.34859561920166;0.1441497802734375;-14.377532958984375;0.6609649658203125
1445423951693;64.78570556640625;-80.330078125;-13.277255058288574;0.7325439453125;-14.80902099609375;-1.3003692626953125
1445423951726;65.39990234375;-81.26466369628906;-12.482442855834961;1.105194091796875;-12.847686767578125;-1.574951171875
1445423951760;66.58200073242188;-84.77076721191406;-11.001425743103027;2.7919464111328125;-10.101821899414062;-0.6727447509765625
1445423951792;66.88613891601562;-87.33523559570312;-10.319454193115234;4.6551971435546875;-10.494094848632812;0.36676025390625
1445423951827;68.39337158203125;-93.6143569946289;-9.456573486328125;4.6551971435546875;-11.612045288085938;1.38665771484375
1445423951858;71.16726684570312;-99.43325805664062;-8.732839584350586;4.145263671875;-11.651275634765625;-0.88848876953125
1445423951891;71.69393920898438;-101.6455307006836;-8.399859428405762;0.5560302734375;-10.690231323242188;-1.1042327880859375
1445423951924;69.52581787109375;-105.44947052001953;-7.349234580993652;0.359893798828125;-10.5333251953125;0.4059906005859375
1445423951957;67.62185668945312;-109.26478576660156;-6.198950290679932;1.615142822265625;-8.218948364257812;-0.1431732177734375
1445423951991;66.62945556640625;-111.24219512939453;-6.012336254119873;2.183929443359375;-7.944366455078125;-0.9865570068359375
1445423952025;64.61843872070312;-114.31611633300781;-5.072969436645508;1.9093475341796875;-7.885528564453125;-1.084625244140625
1445423952056;63.73785400390625;-115.17606353759766;-4.204115867614746;1.5759124755859375;-6.1595458984375;-0.4962158203125
1445423952089;61.824432373046875;-115.71678161621094;-2.891796112060547;1.47784423828125;-5.3161773681640625;-0.2020263671875
1445423952125;59.884063720703125;-114.81234741210938;-2.5422825813293457;0.5756378173828125;-5.0219879150390625;-1.0453948974609375
1445423952155;59.099822998046875;-113.70025634765625;-2.459442377090454;-0.4638671875;-7.1402130126953125;-4.6934661865234375
1445423952188;58.50982666015625;-110.63391876220703;-2.1806952953338623;-1.6210479736328125;-10.062606811523438;-7.2628021240234375
1445423952220;58.08740234375;-108.54402160644531;-1.8537395000457764;-0.4442596435546875;-11.945480346679688;-8.282699584960938
1445423952254;58.493408203125;-108.5075454711914;-1.5356667041778564;2.2819976806640625;-16.280014038085938;-5.7133636474609375
1445423952288;59.775390625;-109.09996795654297;-1.580123782157898;2.929229736328125;-16.417312622070312;-2.6732940673828125
1445423952320;62.7939453125;-110.31853485107422;-0.7680675387382507;3.9883575439453125;-5.0808258056640625;2.1123504638671875
1445423952354;64.0911865234375;-110.57247161865234;-0.5169874429702759;2.0270233154296875;-6.0026397705078125;3.38720703125
1445423952386;69.361328125;-107.43131256103516;-0.052107520401477814;-1.856414794921875;-12.35736083984375;2.3084869384765625
1445423952420;75.82308959960938;-101.7660140991211;-0.2305365651845932;-1.346466064453125;-11.10211181640625;-1.7906951904296875
1445423952453;76.68057250976562;-100.01005554199219;-0.7224448323249817;-0.150054931640625;-9.846847534179688;-0.6138916015625
1445423952484;79.76388549804688;-97.8946762084961;-1.558725357055664;1.556304931640625;-9.631103515625;1.523956298828125
1445423952518;82.67074584960938;-96.5029525756836;-1.8350884914398193;1.3405609130859375;-10.278350830078125;-0.1627960205078125
1445423952552;86.95053100585938;-92.81365966796875;-2.364522695541382;0.34027099609375;-10.337188720703125;0.01373291015625
1445423952584;87.31866455078125;-90.60533142089844;-3.052708387374878;0.6148681640625;-9.297683715820312;0.7198028564453125
1445423952616;89.06967163085938;-89.79728698730469;-3.470548152923584;0.8894500732421875;-9.68994140625;0.3471527099609375
1445423952649;93.42059326171875;-88.2338638305664;-4.542382717132568;0.7129364013671875;-9.768402099609375;0.36676025390625
1445423952683;95.31781005859375;-87.56036376953125;-5.071646213531494;-0.0716094970703125;-9.807632446289062;-0.005889892578125
1445423952715;98.91680908203125;-86.29051971435547;-5.749499797821045;-0.150054931640625;-9.631103515625;-0.692352294921875
1445423952749;100.691650390625;-84.16527557373047;-6.386795997619629;-1.3072357177734375;-10.08221435546875;-0.7904205322265625
1445423952783;101.97711181640625;-83.51876068115234;-6.496065139770508;-2.34674072265625;-11.984695434570312;0.2686920166015625
1445423952816;105.68374633789062;-83.51132202148438;-5.936149597167969;-1.346466064453125;-12.612335205078125;-0.123565673828125
1445423952848;109.74249267578125;-83.71831512451172;-4.25343132019043;1.6347503662109375;-13.573379516601562;-2.1829681396484375
1445423952881;111.20263671875;-84.28073120117188;-3.229485034942627;2.38006591796875;-12.376968383789062;-2.0456695556640625
1445423952914;112.5767822265625;-87.73210144042969;-1.9651713371276855;3.6549224853515625;-11.16094970703125;-1.5553436279296875
1445423952947;114.60711669921875;-93.57687377929688;-2.9551498889923096;6.1262054443359375;-11.553207397460938;-0.9669342041015625
1445423952980;117.24505615234375;-97.26614379882812;-3.849514961242676;5.8712310791015625;-12.082763671875;0.1706390380859375
1445423953012;121.10905456542969;-103.2315902709961;-4.277784824371338;4.1060333251953125;-11.710113525390625;0.7786407470703125
1445423953046;120.25971984863281;-107.64094543457031;-3.8570992946624756;0.9482879638671875;-11.886642456054688;-0.3393096923828125
1445423953080;119.76187133789062;-109.8405532836914;-3.411377429962158;1.18365478515625;-9.395751953125;-1.7906951904296875
1445423953113;119.03515625;-113.70620727539062;-2.7692768573760986;1.3405609130859375;-8.611221313476562;-1.96722412109375
1445423953145;118.23373413085938;-115.68084716796875;-2.9053456783294678;1.0659637451171875;-7.6501617431640625;-2.1241302490234375
1445423953178;116.83432006835938;-118.98441314697266;-3.5132977962493896;0.6148681640625;-7.316741943359375;-2.26141357421875
1445423953211;115.14892578125;-120.721435546875;-4.428596496582031;0.5560302734375;-6.2576141357421875;-2.398712158203125
1445423953244;113.738525390625;-121.13086700439453;-5.0789384841918945;0.536407470703125;-5.53192138671875;-2.8498077392578125
1445423953277;113.41033935546875;-120.88150787353516;-5.146368503570557;0.7325439453125;-5.4534759521484375;-3.144012451171875
1445423953309;113.00927734375;-119.1740951538086;-5.0982866287231445;0.8306121826171875;-6.120330810546875;-4.08544921875
1445423953344;113.1361083984375;-117.95863342285156;-5.026523113250732;1.928955078125;-8.297409057617188;-6.497894287109375
1445423953375;112.51031494140625;-115.32147979736328;-6.125253677368164;2.5761871337890625;-9.768402099609375;-7.6746826171875
1445423953409;109.417236328125;-114.44037628173828;-8.210558891296387;-0.0716094970703125;-11.867019653320312;-7.2039642333984375
1445423953442;108.37158203125;-114.5077896118164;-8.45759105682373;1.5759124755859375;-14.632492065429688;-5.7722015380859375
1445423953476;106.67495727539062;-114.73754119873047;-8.83215618133545;1.98779296875;-9.160385131835938;-3.28131103515625
1445423953508;105.68133544921875;-115.39419555664062;-9.060227394104004;3.6549224853515625;-5.9438018798828125;1.4258880615234375
1445423953547;105.82608032226562;-115.3434829711914;-9.153498649597168;-0.3657989501953125;-11.357070922851562;1.014007568359375
1445423953576;108.76718139648438;-111.45860290527344;-8.801931381225586;-1.6995086669921875;-12.35736083984375;1.4258880615234375
1445423953607;111.36929321289062;-109.45133972167969;-8.220860481262207;-1.03265380859375;-10.180282592773438;-1.496490478515625
1445423953640;112.432861328125;-105.1388931274414;-8.412188529968262;-1.0718841552734375;-9.3369140625;-1.51611328125
1445423953675;110.7833251953125;-102.51239776611328;-9.622247695922852;-0.6207733154296875;-9.591873168945312;-0.9080963134765625
1445423953706;110.69491577148438;-101.52425384521484;-10.158273696899414;0.6737060546875;-10.611770629882812;-1.18267822265625
1445423953740;109.98110961914062;-99.44593811035156;-10.90588665008545;0.7717742919921875;-10.5921630859375;-0.692352294921875
1445423953772;108.78387451171875;-97.43346405029297;-10.699251174926758;1.18365478515625;-9.68994140625;-0.4569854736328125
1445423953807;108.92282104492188;-95.46902465820312;-10.561501502990723;0.6344757080078125;-9.474197387695312;0.1510162353515625
1445423953838;108.53004455566406;-94.43108367919922;-10.595207214355469;0.7521514892578125;-9.434967041015625;0.7786407470703125
1445423953871;107.2423095703125;-92.06632232666016;-10.78540325164795;2.125091552734375;-9.180007934570312;1.0532379150390625
1445423953907;106.89692687988281;-90.68146514892578;-11.012838363647461;2.5958099365234375;-9.552658081054688;0.7198028564453125
1445423953936;107.162109375;-87.79156494140625;-11.677698135375977;2.10546875;-9.807632446289062;0.6021270751953125
1445423953969;106.78990173339844;-84.92289733886719;-12.079495429992676;1.2621002197265625;-10.415634155273438;-1.084625244140625
1445423954003;106.2286376953125;-83.56752014160156;-12.176850318908691;0.6933135986328125;-10.690231323242188;-1.810302734375
1445423954036;107.3477783203125;-81.8712158203125;-12.590292930603027;-0.640380859375;-11.043258666992188;-1.437652587890625
1445423954070;108.29705810546875;-81.45140838623047;-12.901028633117676;-1.5622100830078125;-12.53387451171875;-0.3393096923828125
1445423954102;107.51983642578125;-80.78043365478516;-13.367959976196289;-1.797576904296875;-12.9849853515625;-0.3393096923828125
1445423954134;107.64350891113281;-80.97623443603516;-13.077836990356445;-0.85614013671875;-14.397140502929688;-0.6531219482421875
1445423954169;107.09483337402344;-81.65464782714844;-12.482070922851562;-0.208892822265625;-12.376968383789062;-2.08489990234375
1445423954201;104.97802734375;-84.21669006347656;-11.293532371520996;0.28143310546875;-11.023651123046875;-1.574951171875
1445423954235;102.13015747070312;-89.3724594116211;-10.246228218078613;1.36016845703125;-9.96453857421875;0.5432891845703125
1445423954268;101.03347778320312;-92.50995635986328;-9.979828834533691;2.3996734619140625;-12.043548583984375;1.7397003173828125
1445423954300;101.1512451171875;-98.619384765625;-9.223698616027832;2.419281005859375;-12.102386474609375;1.1120758056640625
1445423954333;99.97412109375;-102.63245391845703;-7.466132164001465;0.3991241455078125;-12.220062255859375;-0.868865966796875
1445423954367;96.5155029296875;-103.85456848144531;-6.511649131774902;-0.3069610595703125;-12.161224365234375;-0.241241455078125
1445423954399;90.07113647460938;-106.94445037841797;-4.908073425292969;0.3795013427734375;-10.101821899414062;0.7198028564453125
1445423954432;87.13177490234375;-108.6451416015625;-4.344239711761475;1.24249267578125;-9.768402099609375;0.4844512939453125
1445423954465;79.66265869140625;-111.21290588378906;-3.5328497886657715;0.7913818359375;-9.533035278320312;-0.0451202392578125
1445423954498;71.78140258789062;-113.82073974609375;-2.8705599308013916;0.477569580078125;-6.5910491943359375;0.13140869140625
1445423954531;68.01626586914062;-114.91207122802734;-2.77586030960083;0.8502197265625;-5.6496124267578125;-0.0254974365234375
1445423954564;62.164886474609375;-115.9886703491211;-2.750807285308838;1.3797760009765625;-5.551544189453125;-0.4373779296875
1445423954597;58.69464111328125;-115.38697052001953;-2.6231093406677246;1.7720489501953125;-5.728057861328125;-2.4967803955078125
1445423954631;57.609832763671875;-114.5067367553711;-2.5229530334472656;1.0659637451171875;-9.238845825195312;-6.164459228515625
1445423954663;56.118255615234375;-111.90150451660156;-2.8236005306243896;0.654083251953125;-11.984695434570312;-8.30230712890625
1445423954696;51.91571044921875;-109.65010833740234;-3.649456739425659;-1.6995086669921875;-13.239959716796875;-8.537673950195312
1445423954728;49.6058349609375;-109.764892578125;-3.4225168228149414;-1.6602783203125;-11.082489013671875;-7.0078277587890625
1445423954763;44.853729248046875;-110.99624633789062;-2.8923585414886475;-0.1892852783203125;-11.043258666992188;-4.3796539306640625
1445423954795;42.58673095703125;-111.29425048828125;-2.9880151748657227;3.498016357421875;-13.887191772460938;-3.0067291259765625
1445423954828;41.90106201171875;-111.35956573486328;-3.283604145050049;4.125640869140625;-10.690231323242188;-0.88848876953125
1445423954861;43.36773681640625;-112.36579895019531;-3.5043399333953857;4.2237091064453125;-6.355682373046875;4.91705322265625
1445423954895;44.2200927734375;-111.69505310058594;-3.5803258419036865;-1.9936981201171875;-10.572540283203125;2.7399749755859375
1445423954928;49.701751708984375;-106.68218231201172;-2.2074124813079834;-1.915252685546875;-12.53387451171875;2.9164886474609375
1445423954960;53.646026611328125;-101.44583892822266;-1.965591549873352;-2.150604248046875;-10.415634155273438;-1.084625244140625
1445423954994;53.819854736328125;-99.55332946777344;-2.3992056846618652;-1.09149169921875;-10.042984008789062;-0.1431732177734375
1445423955027;54.320953369140625;-96.7933349609375;-3.9299869537353516;1.24249267578125;-9.650726318359375;0.621734619140625
1445423955059;54.2576904296875;-93.85816955566406;-4.836803913116455;1.6935882568359375;-9.258453369140625;0.2883148193359375
1445423955092;54.20001220703125;-92.74143981933594;-4.956872940063477;1.3797760009765625;-9.317291259765625;-0.0254974365234375
1445423955125;55.894989013671875;-91.03129577636719;-5.072064399719238;1.12481689453125;-10.042984008789062;-0.0254974365234375
1445423955158;58.76324462890625;-89.85875701904297;-5.362403392791748;0.3991241455078125;-9.474197387695312;0.1510162353515625
1445423955191;59.61871337890625;-89.41719055175781;-5.649564743041992;-0.1108245849609375;-9.748779296875;0.13140869140625
1445423955224;59.355255126953125;-87.7677001953125;-6.4169511795043945;-0.091217041015625;-9.631103515625;0.445220947265625
1445423955257;59.18896484375;-86.52912902832031;-6.8345561027526855;0.7717742919921875;-9.748779296875;-0.633514404296875
1445423955290;59.205413818359375;-83.69779205322266;-7.742790699005127;0.928680419921875;-9.925308227539062;-1.12384033203125
1445423955326;59.010223388671875;-81.41592407226562;-8.782150268554688;-0.0716094970703125;-10.6510009765625;-0.77081298828125
1445423955360;59.620697021484375;-80.86676025390625;-9.225350379943848;-0.6992340087890625;-11.51397705078125;0.1706390380859375
1445423955390;61.102142333984375;-80.75779724121094;-9.578526496887207;-0.6207733154296875;-11.670883178710938;0.30792236328125
1445423955424;61.93255615234375;-80.39542388916016;-9.606114387512207;-0.601165771484375;-13.436080932617188;-0.6531219482421875
1445423955459;61.580474853515625;-80.31573486328125;-9.286075592041016;-3.4647064208984375;-14.86785888671875;-0.9080963134765625
1445423955491;59.848358154296875;-81.83236694335938;-7.767932415008545;-3.052825927734375;-14.377532958984375;-1.18267822265625
1445423955522;58.73486328125;-83.68925476074219;-7.121781349182129;1.497467041015625;-10.376419067382812;-0.123565673828125
1445423955554;56.50750732421875;-88.90729522705078;-6.656224727630615;2.5173492431640625;-10.552932739257812;0.386383056640625
1445423955587;55.413330078125;-94.68916320800781;-7.067452907562256;2.1446990966796875;-12.376968383789062;1.2297515869140625
1445423955619;55.9642333984375;-97.46403503417969;-6.717192649841309;0.359893798828125;-12.41619873046875;0.24908447265625
1445423955653;52.8209228515625;-100.71890258789062;-4.498163223266602;-1.5622100830078125;-11.592437744140625;0.8374786376953125
1445423955686;45.554168701171875;-104.18865966796875;-2.6746044158935547;-0.7580718994140625;-9.846847534179688;0.6021270751953125
1445423955722;42.443756103515625;-106.24983978271484;-2.186349868774414;-0.150054931640625;-9.00347900390625;0.504058837890625
1445423955752;34.837127685546875;-109.75749969482422;-2.131791591644287;-0.228515625;-8.88580322265625;0.111785888671875
1445423955784;27.34173583984375;-112.97764587402344;-1.9120155572891235;0.04608154296875;-8.3170166015625;0.445220947265625
1445423955820;23.7938232421875;-114.1153335571289;-1.78496253490448;0.536407470703125;-7.316741943359375;0.36676025390625
1445423955852;17.34625244140625;-115.65924835205078;-1.7235114574432373;1.1444244384765625;-6.66949462890625;0.111785888671875
1445423955884;13.052947998046875;-116.1124038696289;-1.4755735397338867;1.850494384765625;-5.9045867919921875;-0.5942840576171875
1445423955918;11.577789306640625;-115.77015686035156;-1.4689947366714478;1.6347503662109375;-5.7672882080078125;-0.9865570068359375
1445423955950;9.499969482421875;-114.22777557373047;-1.7346317768096924;1.47784423828125;-7.610931396484375;-2.8302001953125
1445423955983;8.808074951171875;-113.2511215209961;-1.9656686782836914;1.5759124755859375;-11.592437744140625;-8.00811767578125
1445423956016;5.85272216796875;-111.63312530517578;-2.8905813694000244;-0.9345855712890625;-12.9261474609375;-10.283248901367188
1445423956049;359.61016845703125;-111.68880462646484;-3.2018322944641113;-3.229339599609375;-9.886077880859375;-7.2628021240234375
1445423956082;357.62261962890625;-112.61783599853516;-2.767418146133423;-1.7583465576171875;-7.7089996337890625;-5.654510498046875
1445423956115;352.5670166015625;-113.4231185913086;-2.8965978622436523;0.4383392333984375;-14.377532958984375;-3.85009765625
1445423956148;350.5458679199219;-112.60846710205078;-3.9634575843811035;4.066802978515625;-15.279739379882812;-4.4384918212890625
1445423956182;350.7084655761719;-112.99430847167969;-4.296267032623291;6.4203948974609375;-6.0222625732421875;3.465667724609375
1445423956214;351.1097717285156;-114.20093536376953;-4.786126613616943;2.5761871337890625;-5.1200408935546875;3.583343505859375
1445423956246;356.1981201171875;-110.17509460449219;-3.9070303440093994;-2.660552978515625;-10.494094848632812;4.6816864013671875
1445423956280;359.44146728515625;-107.3671875;-3.9714293479919434;-2.2094573974609375;-11.553207397460938;3.1714630126953125
1445423956313;0.81231689453125;-102.71437072753906;-5.430755138397217;-1.4837646484375;-11.592437744140625;-2.9478759765625
1445423956347;358.0456237792969;-99.63050842285156;-6.956573486328125;1.3209381103515625;-9.572265625;0.0333404541015625
1445423956379;358.2977600097656;-98.66510009765625;-7.22289514541626;1.811279296875;-9.238845825195312;0.4648284912109375
1445423956412;358.8005065917969;-95.73390197753906;-7.411619186401367;1.0267486572265625;-9.278060913085938;-0.182403564453125
1445423956445;358.61322021484375;-94.58123779296875;-7.54185676574707;-0.228515625;-9.748779296875;0.2883148193359375
1445423956478;359.4510498046875;-92.4339370727539;-7.472606182098389;-0.032379150390625;-9.631103515625;0.9159393310546875
1445423956511;0.84051513671875;-90.2524642944336;-7.407319068908691;1.12481689453125;-9.238845825195312;0.7001953125
1445423956544;0.172332763671875;-89.0451889038086;-7.666294574737549;1.47784423828125;-10.003753662109375;-0.5550537109375
1445423956576;358.0475158691406;-86.21240234375;-8.145247459411621;1.046356201171875;-10.121444702148438;-1.00616455078125
1445423956610;359.5132141113281;-84.13341522216797;-8.603631973266602;1.046356201171875;-9.96453857421875;-0.4569854736328125
1445423956643;0.28887939453125;-83.2439193725586;-8.901026725769043;0.6933135986328125;-10.042984008789062;-0.2020263671875
1445423956676;0.283355712890625;-81.59371948242188;-9.461199760437012;-1.15032958984375;-11.533599853515625;0.81787109375
1445423956709;1.254058837890625;-81.22691345214844;-9.577616691589355;-1.1307220458984375;-12.945755004882812;0.2098541259765625
1445423956742;2.36260986328125;-81.00273895263672;-9.592464447021484;-1.111114501953125;-13.73028564453125;0.19024658203125
1445423956775;2.355255126953125;-80.57479095458984;-9.322813034057617;-3.0135955810546875;-14.455978393554688;-1.3592071533203125
1445423956809;1.6258544921875;-80.74943542480469;-8.703446388244629;-1.0522613525390625;-12.47503662109375;-1.496490478515625
1445423956842;0.21051025390625;-82.96244812011719;-7.162496566772461;0.7717742919921875;-10.337188720703125;-0.515838623046875
1445423956875;358.03973388671875;-87.89179229736328;-6.034198760986328;3.498016357421875;-10.552932739257812;0.4844512939453125
1445423956910;357.3681945800781;-90.86982727050781;-5.858304977416992;3.8510589599609375;-12.180831909179688;0.955169677734375
1445423956943;357.6239929199219;-97.11206817626953;-5.791125297546387;3.3607330322265625;-12.200454711914062;0.504058837890625
1445423956975;357.6161193847656;-101.97798919677734;-4.570898532867432;0.6737060546875;-12.259292602539062;-0.0254974365234375
1445423957007;354.8771667480469;-103.72396850585938;-3.8119919300079346;-0.3069610595703125;-11.670883178710938;0.81787109375
1445423957040;349.208251953125;-107.66233825683594;-2.2877180576324463;-0.1892852783203125;-9.886077880859375;0.13140869140625
1445423957074;344.5599365234375;-111.8890151977539;-1.551657795906067;0.869842529296875;-8.866195678710938;-0.0254974365234375
1445423957105;341.63311767578125;-113.58001708984375;-1.5128288269042969;0.6737060546875;-8.218948364257812;-0.241241455078125
1445423957138;336.3118591308594;-116.2433853149414;-1.0437541007995605;0.6737060546875;-6.2772369384765625;0.13140869140625
1445423957170;333.8899841308594;-116.97425842285156;-0.8848862648010254;0.9678955078125;-5.5123138427734375;-0.005889892578125
1445423957204;329.8304748535156;-117.3480453491211;-0.8187951445579529;0.869842529296875;-5.3750152587890625;-0.4962158203125
1445423957241;326.2764892578125;-116.59170532226562;-0.864113986492157;0.595245361328125;-6.2576141357421875;-2.37908935546875
1445423957270;324.6993408203125;-115.90589141845703;-0.9124681949615479;0.0068511962890625;-9.140777587890625;-5.4583892822265625
1445423957303;321.6322021484375;-114.54934692382812;-1.5605547428131104;0.6933135986328125;-9.591873168945312;-6.3017578125
1445423957337;318.3159484863281;-113.83490753173828;-2.706514358520508;0.9678955078125;-10.062606811523438;-7.5373992919921875
1445423957377;314.2755432128906;-113.58805084228516;-3.2056524753570557;-0.150054931640625;-10.474472045898438;-6.850921630859375
1445423957403;312.8082580566406;-113.34779357910156;-2.769752025604248;-0.1304473876953125;-10.454864501953125;-7.0078277587890625
1445423957434;310.1627502441406;-112.62859344482422;-3.1585028171539307;2.811553955078125;-19.222015380859375;-4.5757904052734375
1445423957469;309.46978759765625;-112.4320068359375;-4.2466912269592285;3.1842041015625;-17.123382568359375;-5.3799285888671875
1445423957502;310.9423828125;-113.97502899169922;-4.352909564971924;4.753265380859375;-5.0219879150390625;3.3675994873046875
1445423957534;315.0082702636719;-113.5846176147461;-3.2383129596710205;1.438629150390625;-6.7087249755859375;3.26953125
1445423957567;318.3210754394531;-111.0584716796875;-2.274020195007324;-1.6995086669921875;-10.5921630859375;3.524505615234375
1445423957601;323.73028564453125;-105.67329406738281;-1.7049405574798584;-2.2486724853515625;-11.27862548828125;1.38665771484375
1445423957633;323.77703857421875;-103.53374481201172;-2.0449607372283936;-1.7779541015625;-9.631103515625;-0.4373779296875
1445423957666;322.3504638671875;-100.17411041259766;-2.782606363296509;-0.91497802734375;-9.219223022460938;0.4059906005859375
1445423957700;324.1618957519531;-97.30626678466797;-3.5168867111206055;1.3209381103515625;-10.08221435546875;-0.7315826416015625
1445423957733;325.34637451171875;-95.8578109741211;-3.690840721130371;1.3405609130859375;-9.709564208984375;-0.88848876953125
1445423957765;326.30303955078125;-93.5341796875;-4.381634712219238;0.04608154296875;-10.062606811523438;-0.77081298828125
1445423957797;326.98211669921875;-92.99595642089844;-4.788247585296631;-0.85614013671875;-10.513702392578125;-0.300079345703125
1445423957833;327.8843078613281;-92.21049499511719;-4.828348159790039;-0.4246368408203125;-9.768402099609375;0.5432891845703125
1445423957865;329.28533935546875;-91.29927825927734;-4.4524006843566895;0.6737060546875;-9.493820190429688;0.955169677734375
1445423957897;331.0487365722656;-89.86807250976562;-4.741915702819824;1.8897247314453125;-8.925033569335938;1.0924530029296875
1445423957930;331.2496643066406;-88.9803695678711;-5.2074127197265625;2.1446990966796875;-8.807342529296875;1.4258880615234375
1445423957963;332.02783203125;-86.71224212646484;-6.606341361999512;1.75244140625;-9.572265625;-0.4766082763671875
1445423957996;332.03985595703125;-84.28844451904297;-8.073081016540527;-0.6207733154296875;-10.749069213867188;0.876708984375
1445423958028;332.5876770019531;-83.6067123413086;-8.60196590423584;-1.2680206298828125;-10.905975341796875;0.8571014404296875
1445423958062;333.9879455566406;-82.91242980957031;-9.122234344482422;-1.287628173828125;-11.533599853515625;0.445220947265625
1445423958095;334.8505859375;-82.66741943359375;-9.308500289916992;-0.9345855712890625;-12.161224365234375;-0.241241455078125
1445423958128;336.55908203125;-82.10408020019531;-9.575254440307617;-1.6602783203125;-13.78912353515625;-0.4962158203125
1445423958160;335.26849365234375;-81.84321594238281;-8.629886627197266;-3.1901092529296875;-14.75018310546875;-0.4177703857421875
1445423958194;334.072998046875;-82.26300048828125;-7.710440635681152;-0.91497802734375;-13.61260986328125;-1.437652587890625
1445423958227;332.51873779296875;-85.17610168457031;-5.634363651275635;2.301605224609375;-9.90570068359375;0.1510162353515625
1445423958260;331.4770202636719;-90.37035369873047;-4.251265048980713;4.8513336181640625;-10.552932739257812;0.386383056640625
1445423958292;331.21551513671875;-93.24052429199219;-4.010593414306641;4.9886322021484375;-11.749343872070312;0.4844512939453125
1445423958327;332.0418701171875;-98.63225555419922;-3.2023792266845703;3.5960845947265625;-11.533599853515625;0.052947998046875
1445423958361;331.5606994628906;-102.20663452148438;-1.259315013885498;2.2035369873046875;-12.180831909179688;0.30792236328125
1445423958392;329.041259765625;-103.66654205322266;-0.5471901297569275;1.2817230224609375;-11.474761962890625;0.896331787109375
1445423958426;324.1825866699219;-107.94708251953125;0.6265133023262024;1.3797760009765625;-9.474197387695312;-0.241241455078125
1445423958460;320.5293273925781;-112.7006607055664;0.1941775232553482;2.2035369873046875;-8.022811889648438;-1.3395843505859375
1445423958495;318.7228698730469;-114.78253936767578;-0.28641149401664734;2.0270233154296875;-8.218948364257812;-2.08489990234375
1445423958525;314.7579040527344;-117.67051696777344;-0.8143994212150574;1.0855865478515625;-8.513153076171875;-2.2418060302734375
1445423958557;312.4681091308594;-118.76545715332031;-1.059212565422058;0.6933135986328125;-8.571990966796875;-2.339874267578125
1445423958590;307.82879638671875;-120.95133209228516;-1.848913311958313;-0.1696624755859375;-7.57171630859375;-3.1832427978515625
1445423958623;304.6334228515625;-122.49227905273438;-2.860041856765747;0.8306121826171875;-5.6888275146484375;-3.536285400390625
1445423958657;303.85479736328125;-122.6628646850586;-3.1521036624908447;1.811279296875;-5.3358001708984375;-3.4185943603515625
1445423958690;303.9367980957031;-121.58075714111328;-3.346769332885742;2.9684600830078125;-6.414520263671875;-3.791259765625
1445423958722;304.9933166503906;-119.34563446044922;-3.627467393875122;3.0076904296875;-7.74822998046875;-4.71307373046875
1445423958759;305.38995361328125;-118.08844757080078;-3.870306968688965;3.0665283203125;-8.4346923828125;-4.8699798583984375
1445423958787;305.5617370605469;-115.57372283935547;-4.581162452697754;2.6546478271484375;-8.650436401367188;-4.3208160400390625
1445423958823;304.8760681152344;-113.58259582519531;-4.951451778411865;1.12481689453125;-8.042434692382812;-4.4384918212890625
1445423958854;304.3308410644531;-112.82807159423828;-5.07958459854126;1.811279296875;-11.553207397460938;-5.4976043701171875
1445423958887;304.99700927734375;-111.62950897216797;-6.097845554351807;3.1449737548828125;-14.92669677734375;-6.6940155029296875
1445423958920;305.6413879394531;-111.21561431884766;-6.87617826461792;0.987518310546875;-9.042709350585938;-2.5948486328125
1445423958953;307.62847900390625;-112.81304931640625;-6.387576103210449;1.3405609130859375;-5.3750152587890625;3.210693359375
1445423958986;312.863037109375;-110.30911254882812;-3.819690227508545;-2.150604248046875;-11.200164794921875;-0.1431732177734375
1445423959019;315.63983154296875;-107.60505676269531;-3.4225990772247314;-3.0135955810546875;-11.768951416015625;0.6021270751953125
1445423959052;319.9271545410156;-104.18262481689453;-3.931370258331299;-2.2486724853515625;-10.003753662109375;0.2883148193359375
1445423959086;320.2506408691406;-102.80320739746094;-4.474127292633057;0.2029876708984375;-10.121444702148438;-0.4177703857421875
1445423959118;318.70904541015625;-100.14098358154297;-5.723033428192139;0.8894500732421875;-10.356796264648438;-0.0843353271484375
1445423959150;318.8680114746094;-97.49740600585938;-5.891669273376465;1.105194091796875;-9.68994140625;-0.3785400390625
1445423959184;319.7515563964844;-96.2568130493164;-5.640501976013184;0.7129364013671875;-8.983871459960938;0.641357421875
1445423959216;322.7935791015625;-93.9210205078125;-5.457365989685059;0.8502197265625;-8.94464111328125;1.072845458984375
1445423959250;325.2872009277344;-91.31954193115234;-5.783607482910156;0.7521514892578125;-10.788284301757812;-1.0453948974609375
1445423959284;325.630126953125;-90.49681091308594;-5.944952964782715;0.654083251953125;-10.494094848632812;-2.32025146484375
1445423959316;324.9252624511719;-89.19989013671875;-6.4070658683776855;0.04608154296875;-10.121444702148438;-1.319976806640625
1445423959349;326.72320556640625;-88.60398864746094;-6.82374906539917;-0.1108245849609375;-9.572265625;-0.1431732177734375
1445423959384;327.7690124511719;-88.12709045410156;-6.997469902038574;0.7717742919921875;-9.513427734375;0.111785888671875
1445423959415;326.6678161621094;-86.45360565185547;-7.500937461853027;0.536407470703125;-9.984146118164062;-0.810028076171875
1445423959448;325.0681457519531;-85.36620330810547;-7.783957481384277;-0.228515625;-10.631378173828125;-0.574676513671875
1445423959483;325.3015441894531;-84.34024047851562;-8.369545936584473;0.28143310546875;-11.16094970703125;0.3471527099609375
1445423959514;327.47247314453125;-84.77925109863281;-8.564581871032715;0.7129364013671875;-11.827789306640625;-0.0451202392578125
1445423959548;326.8497314453125;-84.6782455444336;-8.522965431213379;-1.169952392578125;-14.220611572265625;-0.8492584228515625
1445423959580;325.423095703125;-85.1113052368164;-8.091038703918457;-2.5624847412109375;-14.299072265625;-1.8495330810546875
1445423959613;322.51092529296875;-87.88241577148438;-6.896229267120361;-1.7583465576171875;-11.965087890625;-1.12384033203125
1445423959648;319.48602294921875;-92.69239807128906;-6.557258605957031;1.222869873046875;-10.219512939453125;-0.4373779296875
1445423959679;318.6614685058594;-95.54302215576172;-6.673401355743408;2.1446990966796875;-11.141326904296875;0.36676025390625
1445423959712;319.36334228515625;-101.28609466552734;-5.942175388336182;0.9090576171875;-12.59271240234375;1.44549560546875
1445423959748;319.9059753417969;-103.2498550415039;-4.761990070343018;-0.228515625;-13.396865844726562;0.2294769287109375
1445423959778;314.1108093261719;-105.86893463134766;-2.698986053466797;-0.7972869873046875;-12.141616821289062;0.7786407470703125
1445423959810;306.8977355957031;-108.8758773803711;-1.0377776622772217;-0.34619140625;-9.729171752929688;0.4844512939453125
1445423959845;303.3159484863281;-110.62237548828125;-0.6688750982284546;0.2029876708984375;-9.278060913085938;0.5432891845703125
1445423959878;295.5325927734375;-114.01461029052734;-0.6415115594863892;0.0656890869140625;-8.120880126953125;-0.3785400390625
1445423959912;292.0179443359375;-115.36920166015625;-0.8099149465560913;0.0853118896484375;-8.101272583007812;0.07257080078125
1445423959943;285.57171630859375;-117.44706726074219;-1.2270724773406982;0.4971771240234375;-7.8462982177734375;0.19024658203125
1445423959975;280.88494873046875;-118.70889282226562;-1.2548589706420898;1.615142822265625;-6.2183990478515625;-1.00616455078125
1445423960009;279.11676025390625;-118.79583740234375;-1.1315046548843384;1.3405609130859375;-6.414520263671875;-2.281036376953125
1445423960044;276.3245544433594;-117.80656433105469;-1.0906814336776733;1.046356201171875;-7.4540252685546875;-3.28131103515625
1445423960075;274.4660949707031;-115.69878387451172;-1.5749274492263794;1.47784423828125;-9.827239990234375;-5.3799285888671875
1445423960109;273.7042236328125;-114.57860565185547;-2.1473679542541504;-0.1892852783203125;-11.200164794921875;-8.321929931640625
1445423960141;270.0630187988281;-112.95955657958984;-3.279803514480591;-1.7191162109375;-10.690231323242188;-7.811981201171875
1445423960175;265.8144836425781;-113.35059356689453;-3.777147054672241;-2.28790283203125;-8.611221313476562;-4.8896026611328125
1445423960208;264.0106506347656;-113.3581314086914;-3.8976852893829346;1.615142822265625;-16.652664184570312;-2.692901611328125
1445423960240;262.5077209472656;-112.58649444580078;-4.775992393493652;3.4784088134765625;-16.397689819335938;-5.1837921142578125
1445423960273;262.2612609863281;-112.15837860107422;-5.501406669616699;4.0471954345703125;-7.669769287109375;2.1711883544921875
1445423960310;262.6934814453125;-113.7367172241211;-6.167555332183838;3.8510589599609375;-5.8849639892578125;2.896881103515625
1445423960340;264.9036865234375;-112.26761627197266;-5.936972141265869;-2.11138916015625;-9.356521606445312;1.56317138671875
1445423960372;267.5610656738281;-109.99893951416016;-5.612096309661865;-2.22906494140625;-11.239395141601562;1.38665771484375
1445423960405;271.16510009765625;-106.39568328857422;-6.556324005126953;-1.3072357177734375;-10.749069213867188;-0.3981475830078125
1445423960440;270.05169677734375;-103.62252807617188;-8.188706398010254;0.5167999267578125;-10.101821899414062;-0.77081298828125
1445423960471;269.7217102050781;-102.47392272949219;-8.6688814163208;1.98779296875;-9.788009643554688;-0.123565673828125
1445423960504;271.4606628417969;-100.42278289794922;-8.656466484069824;2.0074005126953125;-9.807632446289062;-0.6727447509765625
1445423960537;271.5475769042969;-99.04365539550781;-8.852692604064941;-0.1108245849609375;-9.68994140625;-0.0843353271484375
1445423960571;270.7474670410156;-97.0247802734375;-9.25704574584961;-0.542327880859375;-9.944915771484375;-0.123565673828125
1445423960602;270.836669921875;-95.06585693359375;-9.112044334411621;0.654083251953125;-9.709564208984375;-0.3981475830078125
1445423960636;271.33795166015625;-94.1220474243164;-8.993719100952148;1.4582366943359375;-9.06231689453125;0.01373291015625
1445423960669;272.0728454589844;-92.384033203125;-9.316963195800781;1.438629150390625;-9.552658081054688;0.1510162353515625
1445423960702;271.81646728515625;-90.50479125976562;-9.83496379852295;1.105194091796875;-10.02337646484375;-0.3393096923828125
1445423960735;271.5945739746094;-89.35708618164062;-10.01375961303711;0.7325439453125;-9.96453857421875;-1.0257720947265625
1445423960768;271.10546875;-87.26289367675781;-10.295235633850098;-0.01275634765625;-10.356796264648438;-1.1630706787109375
1445423960800;272.3208923339844;-86.07933807373047;-10.29658317565918;-1.1895599365234375;-11.082489013671875;-0.515838623046875
1445423960834;272.71051025390625;-85.82808685302734;-10.23078727722168;-0.228515625;-13.61260986328125;0.5432891845703125
1445423960867;271.19940185546875;-85.45256805419922;-9.921544075012207;-0.5619354248046875;-14.455978393554688;-0.0843353271484375
1445423960901;267.7677001953125;-85.6883544921875;-9.186993598937988;-1.15032958984375;-13.55377197265625;-1.51611328125
1445423960935;266.78369140625;-86.46617889404297;-9.092574119567871;-0.4442596435546875;-12.47503662109375;-1.4768829345703125
1445423960966;264.74700927734375;-90.00992584228516;-9.71487808227539;0.16375732421875;-10.121444702148438;-2.1829681396484375
1445423960999;264.0413513183594;-92.83735656738281;-10.108209609985352;0.3795013427734375;-10.003753662109375;0.504058837890625
1445423961032;263.4073486328125;-98.8752670288086;-10.210838317871094;0.359893798828125;-10.5333251953125;1.8573760986328125
1445423961065;263.56170654296875;-103.327880859375;-8.92640495300293;-0.287353515625;-12.02392578125;0.01373291015625
1445423961099;262.02410888671875;-104.9418716430664;-8.139370918273926;-0.8169097900390625;-11.141326904296875;0.07257080078125
1445423961132;256.7635498046875;-107.4158706665039;-6.579354763031006;-0.2481231689453125;-10.396026611328125;-0.123565673828125
1445423961165;251.7718505859375;-109.88262176513672;-5.518896102905273;0.595245361328125;-9.788009643554688;0.07257080078125
1445423961197;248.83349609375;-111.01655578613281;-5.214463233947754;0.6933135986328125;-9.06231689453125;-0.0843353271484375
1445423961230;242.51220703125;-113.12345886230469;-4.823182582855225;0.9090576171875;-8.611221313476562;-0.005889892578125
1445423961263;239.4222412109375;-113.91825866699219;-4.642892360687256;1.53668212890625;-7.23828125;-0.1039581298828125
1445423961296;234.30264282226562;-114.81623077392578;-4.360005855560303;1.8308868408203125;-6.865631103515625;-0.4177703857421875
1445423961329;230.415283203125;-114.71305847167969;-4.179067134857178;1.53668212890625;-6.3360748291015625;-1.3003692626953125
1445423961362;227.46435546875;-113.79415893554688;-4.1954345703125;1.24249267578125;-7.2775115966796875;-3.3205413818359375
1445423961395;226.22366333007812;-113.0658187866211;-4.3112359046936035;1.5955352783203125;-8.709274291992188;-4.65423583984375
1445423961428;222.5755615234375;-111.52725982666016;-5.353012561798096;-0.1892852783203125;-12.043548583984375;-7.94927978515625
1445423961461;219.74432373046875;-111.16061401367188;-5.817451000213623;-1.9936981201171875;-9.827239990234375;-6.18408203125
1445423961494;215.4573974609375;-112.0533447265625;-5.4803924560546875;-1.5622100830078125;-8.76812744140625;-5.4583892822265625
1445423961527;212.72723388671875;-112.56937408447266;-4.571378707885742;0.9090576171875;-14.730560302734375;-5.0661163330078125
1445423961561;211.6162109375;-112.37357330322266;-4.763542175292969;3.9098968505859375;-9.631103515625;-1.6141815185546875
1445423961593;211.6746826171875;-113.38379669189453;-5.359701633453369;6.2438812255859375;-8.101272583007812;1.6220245361328125
1445423961627;214.04266357421875;-113.00477600097656;-6.471781253814697;2.360443115234375;-8.670059204101562;0.8374786376953125
1445423961662;216.0380859375;-111.4148178100586;-6.553858757019043;-3.170501708984375;-11.10211181640625;3.38720703125
1445423961693;222.14263916015625;-107.06082916259766;-5.446919918060303;-2.993988037109375;-10.690231323242188;1.876983642578125
1445423961725;223.08306884765625;-104.95703887939453;-5.462281227111816;-2.032928466796875;-10.572540283203125;-1.1042327880859375
1445423961761;222.2196044921875;-101.46270751953125;-6.287992000579834;1.2032623291015625;-9.827239990234375;-0.3589324951171875
1445423961792;222.45489501953125;-99.42430114746094;-7.389920234680176;2.0270233154296875;-9.670333862304688;-0.2804718017578125
1445423961825;222.60635375976562;-97.00981140136719;-7.680226802825928;1.53668212890625;-9.631103515625;-0.8492584228515625
1445423961857;223.239501953125;-95.94451141357422;-7.772818565368652;0.7913818359375;-9.709564208984375;-0.3785400390625
1445423961893;226.30795288085938;-94.31668853759766;-7.664829730987549;0.10491943359375;-10.003753662109375;0.0333404541015625
1445423961923;227.42486572265625;-93.41860961914062;-7.590661525726318;0.477569580078125;-9.631103515625;0.07257080078125
1445423961958;228.87835693359375;-91.72335052490234;-7.739202976226807;0.6933135986328125;-9.160385131835938;0.6021270751953125
1445423961991;230.91482543945312;-90.13992309570312;-8.198897361755371;1.0267486572265625;-9.729171752929688;0.4648284912109375
1445423962024;230.9793701171875;-89.12823486328125;-8.427593231201172;1.497467041015625;-10.003753662109375;-0.7904205322265625
1445423962055;230.94686889648438;-86.76260375976562;-8.779281616210938;1.5170745849609375;-9.827239990234375;-1.2807464599609375
1445423962090;232.86676025390625;-85.24150085449219;-9.210758209228516;0.242218017578125;-10.14105224609375;-0.2608642578125
1445423962121;234.4105224609375;-84.74235534667969;-9.301116943359375;-0.287353515625;-10.180282592773438;0.1706390380859375
1445423962155;236.7593994140625;-83.89654541015625;-9.233219146728516;-0.4638671875;-10.631378173828125;1.2297515869140625
1445423962186;238.0035400390625;-83.48905944824219;-9.184562683105469;0.6933135986328125;-11.90625;0.7198028564453125
1445423962220;240.81387329101562;-82.74597930908203;-9.45285415649414;0.1833648681640625;-13.1026611328125;0.641357421875
1445423962253;241.78729248046875;-82.11185455322266;-9.574736595153809;-2.7782440185546875;-14.4755859375;-0.3785400390625
1445423962286;241.74252319335938;-81.95765686035156;-9.237950325012207;-0.777679443359375;-12.965362548828125;-1.829925537109375
1445423962319;241.64816284179688;-83.24479675292969;-8.352447509765625;0.2029876708984375;-11.572830200195312;-1.692626953125
1445423962352;241.15582275390625;-87.16255187988281;-7.6075849533081055;2.0270233154296875;-9.160385131835938;-0.064727783203125
1445423962385;240.75338745117188;-89.82698059082031;-7.311717510223389;2.8311614990234375;-10.5333251953125;0.81787109375
1445423962419;239.98556518554688;-95.40156555175781;-7.013816833496094;2.419281005859375;-11.317855834960938;0.759033203125
1445423962451;241.755615234375;-100.74763488769531;-5.978687763214111;0.6344757080078125;-11.808181762695312;-0.064727783203125
1445423962484;241.10906982421875;-102.52125549316406;-5.210413455963135;-0.4638671875;-11.90625;0.13140869140625
1445423962518;236.61920166015625;-105.60435485839844;-3.9822604656219482;-0.4834747314453125;-10.19989013671875;0.13140869140625
1445423962549;234.68374633789062;-107.4522705078125;-3.4862866401672363;0.9678955078125;-9.533035278320312;-0.300079345703125
1445423962582;230.08993530273438;-110.51234436035156;-3.0595545768737793;0.7717742919921875;-9.434967041015625;-0.3393096923828125
1445423962616;224.88458251953125;-112.99144744873047;-2.890805959701538;1.046356201171875;-8.2581787109375;-0.123565673828125
1445423962649;222.5457763671875;-113.91303253173828;-2.814194440841675;1.556304931640625;-7.2186737060546875;-0.2020263671875
1445423962681;218.43057250976562;-114.83621978759766;-2.981308937072754;1.6935882568359375;-6.8264007568359375;-0.5550537109375
1445423962715;215.87384033203125;-114.99679565429688;-2.965399742126465;1.5170745849609375;-6.865631103515625;-1.6141815185546875
1445423962748;215.2601318359375;-114.63627624511719;-2.9362521171569824;0.9482879638671875;-7.35595703125;-3.28131103515625
1445423962781;215.10015869140625;-113.18882751464844;-3.013547897338867;0.8502197265625;-8.611221313476562;-4.4384918212890625
1445423962814;214.5574951171875;-111.30289459228516;-3.6612071990966797;0.1833648681640625;-11.572830200195312;-6.92938232421875
1445423962847;213.19305419921875;-110.5986328125;-4.066483497619629;-0.405029296875;-12.02392578125;-7.16473388671875
1445423962880;210.14144897460938;-110.26779174804688;-3.865175247192383;-1.346466064453125;-10.003753662109375;-5.5172271728515625
1445423962913;207.8258056640625;-110.66454315185547;-3.4325485229492188;0.2029876708984375;-13.122268676757812;-5.2034149169921875
1445423962946;206.50830078125;-110.59841918945312;-3.9962105751037598;0.9678955078125;-14.632492065429688;-4.3208160400390625
1445423962979;205.0416259765625;-111.32359313964844;-4.679426193237305;2.3996734619140625;-7.9835968017578125;-1.5553436279296875
1445423963012;205.46392822265625;-112.2391586303711;-4.331634521484375;4.262939453125;-5.9438018798828125;2.58306884765625
1445423963045;208.718017578125;-111.36640167236328;-3.5356669425964355;2.635040283203125;-8.395462036132812;0.876708984375
1445423963078;214.07147216796875;-107.20198059082031;-3.1819498538970947;-0.895355224609375;-11.298233032226562;1.308197021484375
1445423963113;216.33367919921875;-105.60877227783203;-3.259300470352173;-1.9348602294921875;-9.650726318359375;0.621734619140625
1445423963145;218.10443115234375;-102.41349792480469;-3.3783092498779297;-2.3271331787109375;-10.160659790039062;-0.064727783203125
1445423963178;218.64324951171875;-99.27272033691406;-3.3886189460754395;-0.4442596435546875;-9.984146118164062;-0.3981475830078125
1445423963211;219.83349609375;-98.07337951660156;-3.6623361110687256;1.41900634765625;-9.670333862304688;-0.3589324951171875
1445423963242;223.08251953125;-95.96569061279297;-4.170586109161377;0.654083251953125;-9.68994140625;-0.0254974365234375
1445423963276;223.96337890625;-93.78318786621094;-4.4161553382873535;-0.2481231689453125;-9.984146118164062;0.24908447265625
1445423963308;223.79611206054688;-92.82337188720703;-4.470757484436035;0.16375732421875;-9.650726318359375;0.13140869140625
1445423963342;225.577880859375;-91.23011779785156;-4.51078987121582;0.6148681640625;-9.356521606445312;0.2686920166015625
1445423963376;227.98138427734375;-90.02749633789062;-4.842947959899902;0.28143310546875;-9.866470336914062;0.30792236328125
1445423963408;228.55682373046875;-89.42475128173828;-5.0182085037231445;0.3206634521484375;-9.729171752929688;0.30792236328125
1445423963444;229.42449951171875;-87.80392456054688;-5.410078048706055;0.8109893798828125;-9.317291259765625;0.386383056640625
1445423963475;229.80230712890625;-86.73634338378906;-5.671061992645264;0.242218017578125;-10.101821899414062;-0.2804718017578125
1445423963507;230.72479248046875;-84.4785385131836;-6.3094096183776855;-0.267730712890625;-10.611770629882812;0.4059906005859375
1445423963543;233.49786376953125;-83.47918701171875;-6.522088527679443;-0.1892852783203125;-11.121719360351562;0.2686920166015625
1445423963576;235.08920288085938;-83.12240600585938;-6.487005233764648;0.10491943359375;-12.965362548828125;0.3471527099609375
1445423963607;237.2095947265625;-82.53428649902344;-6.400261402130127;-1.15032958984375;-13.73028564453125;0.759033203125
1445423963640;237.74176025390625;-82.44911193847656;-5.563559055328369;-1.2483978271484375;-13.396865844726562;-0.3197021484375
1445423963673;237.56982421875;-82.7205581665039;-5.093358039855957;0.3991241455078125;-11.494369506835938;-1.437652587890625
1445423963705;237.34442138671875;-84.78515625;-4.496251583099365;1.046356201171875;-10.474472045898438;-0.868865966796875
1445423963746;236.9732666015625;-89.02119445800781;-4.560173511505127;3.1449737548828125;-9.00347900390625;-0.1431732177734375
1445423963771;236.85858154296875;-91.58931732177734;-4.8305182456970215;3.92950439453125;-9.650726318359375;0.1510162353515625
1445423963806;239.2410888671875;-97.20512390136719;-5.255833625793457;4.0864105224609375;-11.45513916015625;0.562896728515625
1445423963838;240.73773193359375;-99.75474548339844;-5.075893878936768;1.438629150390625;-12.082763671875;-0.1039581298828125
1445423963870;238.98355102539062;-103.42333984375;-4.438118934631348;-0.1304473876953125;-11.847412109375;-0.692352294921875
1445423963903;236.31173706054688;-107.17268371582031;-3.4308977127075195;-0.287353515625;-10.14105224609375;-1.2219085693359375
1445423963936;235.59426879882812;-108.83029174804688;-2.8011298179626465;0.7325439453125;-8.846572875976562;-1.574951171875
1445423963969;233.04833984375;-111.52979278564453;-1.9803893566131592;0.7913818359375;-8.356246948242188;-1.5553436279296875
1445423964001;231.68719482421875;-112.74273681640625;-1.7264138460159302;0.928680419921875;-7.4540252685546875;-1.6533966064453125
1445423964037;229.7056884765625;-114.4422836303711;-1.2972832918167114;1.046356201171875;-6.865631103515625;-2.065277099609375
1445423964068;227.869873046875;-115.11153411865234;-1.11609947681427;0.6344757080078125;-6.9636993408203125;-2.4379425048828125
1445423964101;225.75201416015625;-114.97716522216797;-1.1451832056045532;-0.4246368408203125;-6.9636993408203125;-2.8498077392578125
1445423964133;224.58056640625;-114.60317993164062;-1.3119224309921265;-0.4638671875;-6.806793212890625;-3.28131103515625
1445423964166;222.73052978515625;-113.44962310791016;-1.7825981378555298;0.1833648681640625;-8.513153076171875;-4.9876708984375
1445423964200;221.65634155273438;-112.78258514404297;-2.1542489528656006;1.5170745849609375;-11.082489013671875;-7.2824249267578125
1445423964234;218.33169555664062;-111.92398834228516;-3.2970409393310547;0.987518310546875;-11.180557250976562;-7.5570068359375
1445423964266;215.76434326171875;-112.08865356445312;-3.675198793411255;-0.3657989501953125;-15.240509033203125;-6.360595703125
1445423964301;214.60992431640625;-112.68478393554688;-3.8435027599334717;3.4784088134765625;-5.728057861328125;0.641357421875
1445423964331;214.23870849609375;-114.26296997070312;-3.607120990753174;4.007965087890625;-6.7675628662109375;1.0336151123046875
1445423964365;217.154296875;-111.89878845214844;-3.684231996536255;0.4971771240234375;-11.945480346679688;0.5432891845703125
1445423964400;219.83026123046875;-110.04689025878906;-3.5210626125335693;-0.9345855712890625;-10.180282592773438;0.19024658203125
1445423964431;225.21990966796875;-106.29991149902344;-2.7431693077087402;-1.4837646484375;-9.709564208984375;-0.7315826416015625
1445423964464;225.98086547851562;-104.27622985839844;-2.8356759548187256;-2.28790283203125;-9.846847534179688;-0.1431732177734375
1445423964497;226.1995849609375;-100.99620056152344;-3.0144975185394287;-1.8367919921875;-10.101821899414062;-0.2804718017578125
1445423964529;227.24871826171875;-98.0365982055664;-3.2540700435638428;0.4579620361328125;-10.5333251953125;-0.5942840576171875
1445423964564;228.9473876953125;-95.4458999633789;-3.7767162322998047;1.24249267578125;-9.925308227539062;0.2686920166015625
1445423964596;229.867431640625;-94.18955993652344;-3.9207067489624023;1.046356201171875;-9.670333862304688;0.7394256591796875
1445423964629;230.25885009765625;-91.67552185058594;-4.197899341583252;1.41900634765625;-9.258453369140625;0.680572509765625
1445423964662;231.29583740234375;-90.48908996582031;-4.298092842102051;1.18365478515625;-9.45458984375;1.014007568359375
1445423964694;234.59686279296875;-88.59127044677734;-4.869344711303711;1.105194091796875;-9.729171752929688;1.3670501708984375
1445423964727;235.85354614257812;-87.73616790771484;-5.219559669494629;0.6933135986328125;-9.729171752929688;1.26898193359375
1445423964761;237.47125244140625;-85.98395538330078;-5.820199012756348;0.7129364013671875;-9.748779296875;0.7394256591796875
1445423964793;237.9754638671875;-83.44385528564453;-6.394235610961914;0.987518310546875;-10.101821899414062;-0.7119598388671875
1445423964827;238.46047973632812;-82.21913146972656;-6.758765697479248;-0.2481231689453125;-10.8275146484375;-0.633514404296875
1445423964865;240.24005126953125;-80.66634368896484;-7.457268714904785;-0.7580718994140625;-11.435531616210938;-0.182403564453125
1445423964893;242.47415161132812;-80.22453308105469;-7.75802755355835;-0.9934234619140625;-11.945480346679688;-0.0843353271484375
1445423964926;243.61044311523438;-80.0960464477539;-7.852499961853027;-0.836517333984375;-12.29852294921875;-0.1431732177734375
1445423964959;245.38623046875;-79.92924499511719;-7.933290958404541;-1.09149169921875;-12.945755004882812;-0.005889892578125
1445423964992;245.06326293945312;-80.31922912597656;-7.19338846206665;-1.464141845703125;-13.49493408203125;-1.51611328125
1445423965026;244.5433349609375;-80.85956573486328;-6.688009738922119;-0.3854217529296875;-11.21978759765625;-0.9277191162109375
1445423965058;243.71755981445312;-84.13028717041016;-5.878795623779297;0.987518310546875;-9.748779296875;-0.2020263671875
1445423965093;242.7142333984375;-89.67750549316406;-5.877508640289307;3.262664794921875;-10.552932739257812;0.3471527099609375
1445423965126;243.14361572265625;-92.86837768554688;-6.1660943031311035;3.1645965576171875;-11.90625;1.1120758056640625
1445423965156;246.1832275390625;-98.79824829101562;-5.76000452041626;2.2819976806640625;-12.435806274414062;0.7001953125
1445423965190;243.94876098632812;-101.98477172851562;-4.2100043296813965;-0.4442596435546875;-12.35736083984375;0.0921783447265625
1445423965227;241.69964599609375;-103.62662506103516;-3.3540492057800293;-0.1892852783203125;-10.003753662109375;-0.182403564453125
1445423965259;238.57568359375;-107.50927734375;-2.0048303604125977;0.5560302734375;-9.317291259765625;-0.0843353271484375
1445423965289;234.3681640625;-110.56010437011719;-1.6473170518875122;1.2032623291015625;-8.1405029296875;-0.4962158203125
1445423965327;232.203857421875;-111.98058319091797;-1.6740853786468506;0.9090576171875;-7.3951873779296875;0.07257080078125
1445423965361;228.73492431640625;-114.26319885253906;-1.837381362915039;1.30133056640625;-6.9636993408203125;-0.005889892578125
1445423965388;227.629638671875;-115.02559661865234;-1.8877447843551636;2.0858612060546875;-6.0026397705078125;-1.261138916015625
1445423965421;227.232177734375;-115.21778869628906;-1.6974068880081177;1.811279296875;-6.120330810546875;-1.96722412109375
1445423965456;228.21218872070312;-113.88532257080078;-1.329986333847046;0.595245361328125;-7.493255615234375;-4.3011932373046875
1445423965487;228.82086181640625;-112.87181854248047;-1.2606812715530396;-1.169952392578125;-11.180557250976562;-8.282699584960938
1445423965520;228.14337158203125;-110.51109313964844;-1.7031726837158203;-2.542877197265625;-12.455429077148438;-8.537673950195312
1445423965553;225.61663818359375;-109.74513244628906;-1.6664766073226929;-1.6602783203125;-10.396026611328125;-6.556732177734375
1445423965587;224.82257080078125;-110.02875518798828;-1.3809623718261719;-0.1108245849609375;-12.29852294921875;-4.909210205078125
1445423965619;222.96783447265625;-110.35601806640625;-2.22309947013855;2.183929443359375;-13.691055297851562;-4.4973297119140625
1445423965652;222.69534301757812;-110.95899963378906;-3.092214822769165;3.7333831787109375;-7.042144775390625;0.7982635498046875
1445423965685;223.55023193359375;-111.51549530029297;-2.962214946746826;3.3411102294921875;-6.3949127197265625;2.1907958984375
1445423965718;227.86795043945312;-109.06706237792969;-2.2229886054992676;-0.6207733154296875;-10.435256958007812;1.5435638427734375
1445423965751;230.80703735351562;-106.6222915649414;-1.8953545093536377;-1.6798858642578125;-10.807907104492188;0.8374786376953125
1445423965784;234.08709716796875;-101.8923110961914;-2.4768755435943604;-1.5818328857421875;-10.180282592773438;-0.300079345703125
1445423965816;234.07794189453125;-98.53398895263672;-3.7483320236206055;-0.9345855712890625;-9.788009643554688;0.5432891845703125
1445423965849;234.51861572265625;-97.2470932006836;-4.184208869934082;1.3405609130859375;-9.748779296875;0.13140869140625
1445423965883;237.00521850585938;-94.61524200439453;-4.689152717590332;1.8897247314453125;-9.748779296875;-0.241241455078125
1445423965916;238.20294189453125;-92.07038879394531;-4.9611945152282715;1.24249267578125;-9.984146118164062;0.2686920166015625
1445423965949;238.16986083984375;-91.00212860107422;-4.901078701019287;1.2032623291015625;-9.670333862304688;0.504058837890625
1445423965982;240.669921875;-89.52523040771484;-4.794008255004883;1.18365478515625;-9.513427734375;0.2098541259765625
1445423966015;241.35513305664062;-88.8753890991211;-4.925840377807617;-0.1108245849609375;-9.886077880859375;0.58251953125
1445423966048;242.12847900390625;-87.5788803100586;-5.084940433502197;-0.3069610595703125;-9.846847534179688;0.562896728515625
1445423966082;242.98263549804688;-85.88680267333984;-5.205893516540527;0.5560302734375;-9.376129150390625;-0.005889892578125
1445423966115;242.89691162109375;-84.83920288085938;-5.3965983390808105;0.8894500732421875;-9.768402099609375;-0.4373779296875
1445423966147;243.07827758789062;-83.02255249023438;-6.002065181732178;0.1441497802734375;-10.5921630859375;-0.064727783203125
1445423966181;244.67190551757812;-82.29405975341797;-5.907250881195068;-0.895355224609375;-11.39630126953125;-0.2216339111328125
1445423966213;245.82208251953125;-82.0457763671875;-5.607537269592285;0.5167999267578125;-12.906524658203125;-0.123565673828125
1445423966246;247.305908203125;-81.73471069335938;-5.029611587524414;0.10491943359375;-13.867584228515625;-0.1431732177734375
1445423966279;246.0325927734375;-82.39404296875;-3.7093772888183594;-1.5622100830078125;-14.279464721679688;-1.202301025390625
1445423966314;245.49615478515625;-83.45463562011719;-3.186279535293579;0.8894500732421875;-11.533599853515625;-1.0453948974609375
1445423966345;243.47695922851562;-87.2972183227539;-3.2635674476623535;2.0858612060546875;-9.96453857421875;-1.1042327880859375
1445423966377;242.69015502929688;-89.81968688964844;-3.865650177001953;3.4587860107421875;-9.768402099609375;0.111785888671875
1445423966412;244.33770751953125;-96.35899353027344;-5.074924945831299;3.0665283203125;-10.631378173828125;0.5432891845703125
1445423966444;244.98797607421875;-101.24354553222656;-5.3969197273254395;1.75244140625;-11.51397705078125;0.9159393310546875
1445423966477;243.2745361328125;-102.95450592041016;-5.728011608123779;-0.0716094970703125;-10.572540283203125;-0.241241455078125
1445423966510;239.20443725585938;-106.23947143554688;-6.720349311828613;0.5560302734375;-9.493820190429688;-0.3981475830078125
1445423966543;236.33230590820312;-109.44771575927734;-7.48902702331543;1.2621002197265625;-8.297409057617188;-0.810028076171875
1445423966576;234.9031982421875;-110.76016235351562;-7.827826499938965;1.3405609130859375;-8.4346923828125;-1.06500244140625
1445423966611;232.267822265625;-112.87903594970703;-7.9823126792907715;1.3209381103515625;-8.1405029296875;-1.2219085693359375
1445423966643;229.74676513671875;-113.7833480834961;-7.647311687469482;1.6543731689453125;-7.042144775390625;-1.319976806640625
1445423966676;228.55328369140625;-113.91303253173828;-7.448697090148926;1.75244140625;-6.8460235595703125;-2.1829681396484375
1445423966709;226.8712158203125;-113.6380615234375;-6.828187942504883;1.53668212890625;-7.12060546875;-2.6144561767578125
1445423966741;225.58868408203125;-112.50675201416016;-6.345613479614258;0.8894500732421875;-8.081649780273438;-4.3011932373046875
1445423966776;225.0146484375;-111.86186981201172;-6.339907169342041;1.0267486572265625;-9.081939697265625;-6.1448516845703125
1445423966807;223.66439819335938;-110.69258117675781;-6.470600128173828;1.2817230224609375;-9.493820190429688;-6.5959625244140625
1445423966841;220.15560913085938;-109.63431549072266;-7.086482524871826;1.41900634765625;-10.337188720703125;-6.242919921875
1445423966873;218.23635864257812;-109.53463745117188;-7.315274238586426;1.36016845703125;-10.31756591796875;-5.85064697265625
1445423966907;216.33798217773438;-109.74259948730469;-6.746103763580322;2.8899993896484375;-15.240509033203125;-5.2622528076171875
1445423966939;215.46258544921875;-110.05994415283203;-6.71108865737915;3.3999481201171875;-10.121444702148438;-3.45782470703125
1445423966973;214.09951782226562;-111.54193115234375;-7.1088690757751465;3.556854248046875;-6.1595458984375;1.2297515869140625
1445423967007;215.63543701171875;-112.75167846679688;-6.5285491943359375;4.6551971435546875;-6.9048614501953125;2.151580810546875
1445423967039;217.6768798828125;-111.4958724975586;-6.601103782653809;-0.7580718994140625;-12.65155029296875;0.7001953125
1445423967073;223.56500244140625;-107.39978790283203;-5.818305015563965;-2.307525634765625;-11.553207397460938;1.072845458984375
1445423967104;227.41485595703125;-103.77152252197266;-4.103738307952881;-1.7191162109375;-9.846847534179688;-0.7904205322265625
1445423967137;228.41754150390625;-101.92176055908203;-3.3810770511627197;-0.7580718994140625;-9.768402099609375;-0.7119598388671875
1445423967169;231.0694580078125;-98.66304016113281;-2.417888879776001;0.242218017578125;-10.08221435546875;-0.94732666015625
1445423967202;233.39501953125;-95.9646987915039;-2.590399980545044;1.8308868408203125;-9.709564208984375;-0.94732666015625
1445423967235;234.76779174804688;-94.90062713623047;-2.6687257289886475;1.438629150390625;-9.611495971679688;-0.6138916015625
1445423967268;237.701904296875;-93.09265899658203;-2.62357759475708;-0.032379150390625;-9.68994140625;0.386383056640625
1445423967303;239.41903686523438;-91.2987060546875;-2.517808675765991;-0.228515625;-10.180282592773438;-0.3785400390625
1445423967335;240.27520751953125;-90.40447235107422;-2.5230865478515625;-0.0716094970703125;-9.768402099609375;-0.2020263671875
1445423967368;243.38623046875;-88.73814392089844;-2.7982983589172363;-0.208892822265625;-10.003753662109375;0.327545166015625
1445423967401;245.16513061523438;-87.90117645263672;-2.9929018020629883;0.0853118896484375;-9.729171752929688;0.4648284912109375
1445423967434;247.986328125;-86.1973876953125;-3.5123534202575684;0.5560302734375;-9.356521606445312;0.58251953125
1445423967467;249.8203125;-84.37177276611328;-4.525164604187012;0.9482879638671875;-9.434967041015625;0.1706390380859375
1445423967500;250.64166259765625;-83.46351623535156;-5.031915664672852;-0.5619354248046875;-10.8275146484375;-0.5354461669921875
1445423967533;252.92153930664062;-82.18565368652344;-5.748034477233887;-0.6796112060546875;-11.376693725585938;0.052947998046875
1445423967566;254.20263671875;-81.87584686279297;-5.928631782531738;0.0656890869140625;-12.337738037109375;0.01373291015625
1445423967600;256.2665100097656;-80.9822006225586;-6.168639183044434;-0.97381591796875;-13.514541625976562;0.6609649658203125
1445423967632;256.4304504394531;-80.67686462402344;-5.6094818115234375;-2.22906494140625;-15.397415161132812;-1.4768829345703125
1445423967665;255.12747192382812;-80.9966812133789;-4.882381439208984;-0.208892822265625;-12.063156127929688;-1.6337890625
