sep=;
timestamp;gyro-alpha;gyro-beta;gyro-gamma;accel-x;accel-y;accel-z
1445424015582;26.15673828125;-83.49507141113281;4.847040176391602;-1.0718841552734375;-10.415634155273438;-0.005889892578125
1445424015611;26.539947509765625;-83.86344909667969;4.908717632293701;-0.091217041015625;-9.827239990234375;0.81787109375
1445424015644;27.03521728515625;-84.27314758300781;5.0601606369018555;0.04608154296875;-9.238845825195312;0.7982635498046875
1445424015678;25.846954345703125;-84.96227264404297;5.1201934814453125;-0.660003662109375;-9.238845825195312;0.621734619140625
1445424015709;24.390045166015625;-85.15206909179688;4.977353096008301;-0.326568603515625;-10.239120483398438;-0.4569854736328125
1445424015745;23.97943115234375;-85.01871490478516;4.8993659019470215;0.359893798828125;-10.964813232421875;-2.08489990234375
1445424015777;23.714630126953125;-84.91190338134766;4.772976875305176;0.359893798828125;-11.062881469726562;-2.692901611328125
1445424015809;24.8231201171875;-85.67186737060547;4.793365478515625;0.0656890869140625;-10.31756591796875;-3.261688232421875
1445424015843;25.063934326171875;-88.1797866821289;5.000307559967041;-0.287353515625;-8.630828857421875;-2.9282684326171875
1445424015876;24.99835205078125;-90.22937774658203;5.158607006072998;0.0853118896484375;-7.5128631591796875;-2.281036376953125
1445424015908;25.412933349609375;-95.78999328613281;5.219205856323242;2.5369720458984375;-8.866195678710938;-0.241241455078125
1445424015941;24.999481201171875;-98.77191925048828;5.045354843139648;2.6546478271484375;-10.121444702148438;-0.751190185546875
1445424015977;23.444244384765625;-101.89522552490234;4.906233310699463;0.1833648681640625;-12.121994018554688;-3.0459442138671875
1445424016010;23.042388916015625;-102.78315734863281;4.81365442276001;0.9482879638671875;-9.180007934570312;-3.28131103515625
1445424016040;22.23828125;-102.98283386230469;4.576515197753906;1.6543731689453125;-9.12115478515625;-2.9478759765625
1445424016073;22.05523681640625;-102.23332977294922;4.303219795227051;4.32177734375;-10.984420776367188;-2.967498779296875
1445424016106;23.050933837890625;-99.84088897705078;4.072000026702881;4.439453125;-11.298233032226562;-1.9279937744140625
1445424016140;23.699188232421875;-98.2481918334961;3.9625351428985596;3.9098968505859375;-10.494094848632812;-0.77081298828125
1445424016176;24.7369384765625;-94.28495025634766;3.2277915477752686;2.066253662109375;-9.023101806640625;0.2883148193359375
1445424016206;24.25970458984375;-89.73487091064453;2.073796033859253;2.125091552734375;-9.023101806640625;-0.241241455078125
1445424016238;24.245574951171875;-87.62020874023438;1.473929524421692;2.046630859375;-9.415359497070312;-1.202301025390625
1445424016271;25.60791015625;-84.24732971191406;0.47311294078826904;2.0074005126953125;-8.846572875976562;-1.4768829345703125
1445424016303;26.8546142578125;-83.14311218261719;-0.03094417229294777;0.9482879638671875;-8.297409057617188;-0.5354461669921875
1445424016338;28.524749755859375;-82.6667251586914;-0.9019389748573303;-0.3069610595703125;-12.161224365234375;-2.0456695556640625
1445424016371;31.95721435546875;-83.56880187988281;-1.8541632890701294;-1.0718841552734375;-12.769241333007812;-0.5550537109375
1445424016404;33.46795654296875;-84.7743148803711;-2.1300837993621826;-2.601715087890625;-10.572540283203125;1.5435638427734375
1445424016436;35.86962890625;-87.51116180419922;-1.8834819793701172;-2.8959197998046875;-10.278350830078125;1.7985382080078125
1445424016469;36.790435791015625;-88.53327941894531;-1.2981458902359009;-0.660003662109375;-10.474472045898438;0.13140869140625
1445424016502;36.61102294921875;-88.53263854980469;-1.2527786493301392;0.10491943359375;-10.729446411132812;-0.633514404296875
1445424016535;35.53753662109375;-88.60597229003906;-1.3934874534606934;0.595245361328125;-10.278350830078125;-1.2219085693359375
1445424016568;34.99127197265625;-89.37444305419922;-1.4227995872497559;0.8109893798828125;-9.572265625;-1.771087646484375
1445424016601;34.532440185546875;-90.21025085449219;-1.3612327575683594;0.477569580078125;-9.219223022460938;-2.2221832275390625
1445424016634;33.217803955078125;-92.95244598388672;-1.0906370878219604;0.7325439453125;-8.160110473632812;-2.5948486328125
1445424016668;32.8499755859375;-94.5873031616211;-1.0031771659851074;0.16375732421875;-7.86590576171875;-2.9282684326171875
1445424016700;32.59002685546875;-98.31407165527344;-0.6778762340545654;-0.85614013671875;-8.650436401367188;-2.7909698486328125
1445424016733;30.119384765625;-102.03353118896484;0.6282525062561035;-0.7972869873046875;-7.5128631591796875;-2.7909698486328125
1445424016766;28.03448486328125;-103.55294799804688;1.1176400184631348;0.242218017578125;-8.630828857421875;-4.6150054931640625
1445424016799;25.094970703125;-106.4290771484375;1.9124794006347656;1.41900634765625;-10.101821899414062;-5.7133636474609375
1445424016832;24.826934814453125;-109.8016357421875;2.672208786010742;6.0673675537109375;-13.55377197265625;-7.6550750732421875
1445424016865;25.16796875;-111.5389175415039;3.223295211791992;6.851898193359375;-13.985260009765625;-7.694305419921875
1445424016899;23.912872314453125;-114.97102355957031;3.440958023071289;4.380615234375;-12.082763671875;-7.16473388671875
1445424016931;19.719024658203125;-118.18222045898438;1.9886068105697632;1.53668212890625;-6.865631103515625;-5.7722015380859375
1445424016964;17.959686279296875;-119.34054565429688;1.2402807474136353;1.8701171875;-6.1987762451171875;-4.9484405517578125
1445424016998;15.2213134765625;-119.57220458984375;-0.3025066554546356;2.183929443359375;-5.492706298828125;-3.2420806884765625
1445424017030;13.839508056640625;-118.77266693115234;-1.0578289031982422;1.6543731689453125;-4.923919677734375;-2.2221832275390625
1445424017064;11.16864013671875;-115.61946868896484;-1.628139615058899;1.673980712890625;-4.8846893310546875;-1.9868316650390625
1445424017097;9.3006591796875;-110.68488311767578;-0.8121935129165649;0.987518310546875;-6.37530517578125;-1.75146484375
1445424017130;8.828582763671875;-107.81942749023438;0.026848621666431427;-0.4834747314453125;-9.768402099609375;-2.9478759765625
1445424017163;6.552093505859375;-101.50125885009766;1.6094616651535034;-0.8169097900390625;-10.690231323242188;-3.3009185791015625
1445424017196;2.6162109375;-95.99705505371094;2.691122531890869;1.7132110595703125;-9.709564208984375;-6.105621337890625
1445424017229;2.42877197265625;-95.0410385131836;2.6230835914611816;4.5963592529296875;-6.9636993408203125;-5.3406982421875
1445424017261;2.60467529296875;-95.79805755615234;1.1107815504074097;2.4781341552734375;-9.493820190429688;-0.0451202392578125
1445424017295;1.730133056640625;-97.64097595214844;0.13076430559158325;-2.091766357421875;-14.86785888671875;-1.5553436279296875
1445424017327;1.828399658203125;-98.3442611694336;0.33684638142585754;-3.3470306396484375;-12.220062255859375;0.6021270751953125
1445424017360;1.499176025390625;-99.71503448486328;1.56551194190979;-2.91552734375;-11.553207397460938;1.1512908935546875
1445424017393;0.382476806640625;-99.43106842041016;2.1574933528900146;-1.4837646484375;-12.65155029296875;0.36676025390625
1445424017430;358.6199645996094;-98.29210662841797;2.9481563568115234;-1.228790283203125;-12.612335205078125;0.504058837890625
1445424017460;358.0430603027344;-96.6582260131836;3.827479362487793;0.6933135986328125;-11.78857421875;0.7786407470703125
1445424017493;358.3107604980469;-95.40457153320312;4.213249206542969;2.2035369873046875;-9.3369140625;0.327545166015625
1445424017526;0.16705322265625;-92.30858612060547;4.150760173797607;1.6935882568359375;-8.179718017578125;-0.1039581298828125
1445424017558;0.215087890625;-89.09163665771484;3.419067144393921;-1.3268585205078125;-7.2186737060546875;-1.4768829345703125
1445424017595;359.7066345214844;-87.63162231445312;3.1574344635009766;-2.425201416015625;-7.6501617431640625;-2.457550048828125
1445424017626;356.9749450683594;-85.53081512451172;3.2336604595184326;-2.425201416015625;-9.258453369140625;-4.8307647705078125
1445424017657;351.6416320800781;-85.38611602783203;3.6306796073913574;-5.01416015625;-13.338027954101562;-6.497894287109375
1445424017690;347.7545471191406;-86.9443359375;3.9341652393341064;-6.2105712890625;-12.180831909179688;-4.6346282958984375
1445424017723;341.8304443359375;-91.66246032714844;5.177122116088867;-3.8961944580078125;-8.2581787109375;4.5247802734375
1445424017757;340.13787841796875;-95.6224594116211;5.734138488769531;4.1648712158203125;-11.710113525390625;4.5247802734375
1445424017791;338.8652038574219;-96.09913635253906;5.47346830368042;5.00823974609375;-14.907089233398438;2.896881103515625
1445424017823;339.27728271484375;-95.4369125366211;4.798367977142334;6.008514404296875;-16.29962158203125;0.7001953125
1445424017855;340.1607360839844;-95.23857879638672;4.126603603363037;3.7333831787109375;-12.9261474609375;0.680572509765625
1445424017888;342.2924499511719;-95.06963348388672;2.37451434135437;3.0665283203125;-10.847137451171875;0.994384765625
1445424017928;344.7750244140625;-95.19465637207031;0.8378503322601318;2.55657958984375;-8.728897094726562;0.8374786376953125
1445424017955;346.13262939453125;-95.32109069824219;0.1003214418888092;2.0858612060546875;-7.9639739990234375;0.3471527099609375
1445424017987;348.8178405761719;-95.94135284423828;-1.470472812652588;2.0074005126953125;-7.3951873779296875;-0.1039581298828125
1445424018021;350.639892578125;-97.38489532470703;-3.0404186248779297;1.3797760009765625;-6.8460235595703125;-1.261138916015625
1445424018053;350.3577575683594;-98.46238708496094;-3.957775354385376;1.0659637451171875;-7.0813751220703125;-2.634063720703125
1445424018086;349.9604187011719;-101.94857788085938;-5.909754276275635;0.6933135986328125;-8.336624145507812;-1.6337890625
1445424018119;351.6038818359375;-104.56689453125;-5.967005729675293;-1.6406707763671875;-10.5333251953125;-2.4967803955078125
1445424018152;354.13726806640625;-109.82801055908203;-4.891578197479248;-0.091217041015625;-10.9451904296875;-3.4185943603515625
1445424018186;358.0764465332031;-116.2852783203125;-3.977146625518799;4.83172607421875;-8.983871459960938;-7.8315887451171875
1445424018217;358.7509765625;-119.05911254882812;-3.0833840370178223;1.0071258544921875;-9.023101806640625;-7.988494873046875
1445424018251;359.2826843261719;-121.9043960571289;-0.5726309418678284;0.418731689453125;-9.925308227539062;-7.5177764892578125
1445424018284;1.8309326171875;-121.80931854248047;1.2396060228347778;2.811553955078125;-11.082489013671875;-4.2031402587890625
1445424018318;2.557373046875;-120.90194702148438;1.7206385135650635;3.2430419921875;-10.101821899414062;-2.37908935546875
1445424018350;3.04876708984375;-118.49340057373047;2.166348934173584;3.0861358642578125;-9.023101806640625;-1.5945587158203125
1445424018384;4.26873779296875;-115.39557647705078;1.7789963483810425;1.5955352783203125;-7.2186737060546875;-0.868865966796875
1445424018416;4.92864990234375;-113.2834701538086;1.4677854776382446;1.850494384765625;-7.3951873779296875;-1.1042327880859375
1445424018449;5.83453369140625;-108.4757308959961;0.40338897705078125;2.3408355712890625;-7.4148101806640625;-2.2418060302734375
1445424018482;5.783843994140625;-104.11514282226562;-1.1125950813293457;1.0071258544921875;-5.8849639892578125;-3.4970550537109375
1445424018515;5.262908935546875;-102.01898193359375;-1.9246716499328613;-0.150054931640625;-5.9634246826171875;-3.6147308349609375
1445424018548;3.987030029296875;-97.71829223632812;-3.423917770385742;-1.3268585205078125;-8.081649780273438;-3.3205413818359375
1445424018581;3.796783447265625;-95.77901458740234;-4.161825180053711;0.9482879638671875;-12.337738037109375;-3.7520294189453125
1445424018614;5.54876708984375;-93.60851287841797;-4.5542778968811035;2.693878173828125;-11.847412109375;-4.340423583984375
1445424018647;11.17205810546875;-92.57703399658203;-4.539750576019287;2.8899993896484375;-13.90679931640625;-2.7713623046875
1445424018681;13.477325439453125;-92.31795501708984;-5.047230243682861;-1.1895599365234375;-11.27862548828125;-2.14373779296875
1445424018712;14.461181640625;-92.27574157714844;-5.3753862380981445;-3.7785186767578125;-10.8275146484375;-2.08489990234375
1445424018746;12.59002685546875;-92.14883422851562;-4.061826229095459;-4.4649810791015625;-11.10211181640625;-3.4185943603515625
1445424018779;10.991973876953125;-91.97569274902344;-3.310696840286255;-3.5235443115234375;-10.866744995117188;-3.791259765625
1445424018812;6.64630126953125;-91.81842803955078;-2.2527177333831787;-1.6014404296875;-10.239120483398438;-4.5757904052734375
1445424018845;4.3123779296875;-92.02572631835938;-1.8689887523651123;-2.17022705078125;-8.94464111328125;-3.6343536376953125
1445424018879;358.39007568359375;-93.3012466430664;-1.1719201803207397;-3.0920562744140625;-8.277786254882812;-2.14373779296875
1445424018911;351.4759826660156;-95.5180892944336;-0.596771240234375;-2.9547576904296875;-7.179443359375;-0.1039581298828125
1445424018944;347.829345703125;-96.65475463867188;-0.41993531584739685;-2.091766357421875;-8.787734985351562;2.3477020263671875
1445424018978;341.816650390625;-97.82450103759766;-0.027387352660298347;-0.660003662109375;-11.200164794921875;1.759307861328125
1445424019011;335.73577880859375;-96.6710433959961;1.1380892992019653;-0.7580718994140625;-12.435806274414062;-0.123565673828125
1445424019044;330.87469482421875;-96.07711029052734;1.7975329160690308;-3.1312713623046875;-9.160385131835938;2.7988128662109375
1445424019078;322.4671630859375;-96.73645782470703;2.8768770694732666;-1.6014404296875;-8.689666748046875;2.975341796875
1445424019109;319.11785888671875;-99.04413604736328;2.4800033569335938;3.4195709228515625;-10.807907104492188;3.2303009033203125
1445424019143;318.9418029785156;-100.57806396484375;2.19734263420105;5.2828216552734375;-12.29852294921875;2.896881103515625
1445424019176;318.438720703125;-102.37258911132812;1.9606058597564697;4.94940185546875;-13.61260986328125;1.50433349609375
1445424019208;317.3970031738281;-102.9832763671875;2.297844171524048;1.9485626220703125;-13.2791748046875;0.7198028564453125
1445424019241;316.89996337890625;-102.95707702636719;2.4979562759399414;0.869842529296875;-13.063430786132812;0.4256134033203125
1445424019275;316.7085266113281;-102.54771423339844;2.6954574584960938;0.654083251953125;-12.278900146484375;0.052947998046875
1445424019306;316.803466796875;-101.91087341308594;2.943171262741089;0.7325439453125;-11.004043579101562;-0.574676513671875
1445424019340;317.4905090332031;-99.81269073486328;3.8456742763519287;0.3206634521484375;-10.121444702148438;-0.6727447509765625
1445424019373;318.47088623046875;-97.20006561279297;4.882717609405518;0.7129364013671875;-8.3758544921875;-1.18267822265625
1445424019406;318.4690246582031;-96.11244201660156;5.182955741882324;2.125091552734375;-7.23828125;-2.7321319580078125
1445424019442;316.5583190917969;-94.824951171875;4.732731819152832;1.732818603515625;-7.1402130126953125;-3.791259765625
1445424019473;312.85150146484375;-95.49579620361328;3.176503896713257;0.477569580078125;-7.375579833984375;-4.8111419677734375
1445424019505;310.274658203125;-96.98372650146484;1.9095330238342285;0.928680419921875;-7.493255615234375;-3.9677734375
1445424019539;308.41876220703125;-101.91153717041016;-0.7517538666725159;0.04608154296875;-7.80706787109375;-0.300079345703125
1445424019571;310.140869140625;-105.3226318359375;-1.944952368736267;0.0068511962890625;-11.16094970703125;-1.3395843505859375
1445424019604;309.9146728515625;-105.99786376953125;-2.610393762588501;-0.777679443359375;-12.514266967773438;-1.5945587158203125
1445424019637;311.58526611328125;-107.43307495117188;-2.6686043739318848;-0.6796112060546875;-14.259841918945312;-0.3393096923828125
1445424019670;313.067626953125;-108.13999938964844;-2.4624178409576416;3.7137603759765625;-13.083053588867188;-0.005889892578125
1445424019702;315.1788635253906;-108.49188995361328;-3.1037282943725586;4.3021697998046875;-12.514266967773438;-0.77081298828125
1445424019736;318.855712890625;-108.1871337890625;-3.9080517292022705;1.7132110595703125;-12.063156127929688;-0.300079345703125
1445424019769;320.8633728027344;-107.62089538574219;-4.230044841766357;0.418731689453125;-11.21978759765625;-0.0451202392578125
1445424019803;324.4100341796875;-106.0643539428711;-4.748388290405273;0.3206634521484375;-10.964813232421875;0.0921783447265625
1445424019835;329.3951416015625;-104.32770538330078;-4.765467643737793;0.16375732421875;-10.219512939453125;0.7786407470703125
1445424019868;331.73748779296875;-103.40754699707031;-4.761412620544434;0.1245269775390625;-8.670059204101562;-0.1627960205078125
1445424019901;336.70159912109375;-101.49030303955078;-4.674108982086182;0.2029876708984375;-7.885528564453125;-1.0257720947265625
1445424019934;339.9634094238281;-100.74285125732422;-4.582049369812012;1.0071258544921875;-8.415084838867188;-5.419158935546875
1445424019968;346.655517578125;-100.51461791992188;-4.595414161682129;-2.05255126953125;-9.68994140625;-7.125518798828125
1445424020001;347.4095764160156;-102.4820556640625;-4.718498229980469;-4.6611175537109375;-10.788284301757812;-7.988494873046875
1445424020034;344.6168518066406;-106.3226318359375;-4.408580303192139;-1.287628173828125;-8.120880126953125;-5.1641845703125
1445424020066;344.2803039550781;-108.85128784179688;-4.351124286651611;0.477569580078125;-8.238555908203125;-4.281585693359375
1445424020098;344.513671875;-112.36338806152344;-4.969440937042236;3.9098968505859375;-11.141326904296875;-5.4387664794921875
1445424020132;344.17987060546875;-113.43331909179688;-5.650691032409668;4.2237091064453125;-8.160110473632812;-5.9487152099609375
1445424020165;342.2403869628906;-114.71703338623047;-6.639016628265381;3.7333831787109375;-6.4537506103515625;-4.9484405517578125
1445424020198;339.0677795410156;-114.1540756225586;-7.470494747161865;2.3996734619140625;-5.9045867919921875;-3.8108673095703125
1445424020232;337.6426086425781;-113.40866088867188;-7.988093852996826;1.3993988037109375;-7.3951873779296875;-2.8694305419921875
1445424020264;335.4875183105469;-111.69292449951172;-9.114596366882324;1.36016845703125;-8.336624145507812;-2.3006439208984375
1445424020296;333.3575439453125;-109.46294403076172;-9.971671104431152;1.9093475341796875;-7.6501617431640625;-1.457275390625
1445424020329;332.2906494140625;-108.17758178710938;-10.003530502319336;2.183929443359375;-6.296844482421875;-0.9865570068359375
1445424020363;330.4305419921875;-105.31009674072266;-9.543153762817383;1.9485626220703125;-6.2576141357421875;-0.9080963134765625
1445424020395;329.783447265625;-103.61750030517578;-9.086647987365723;2.9096221923828125;-8.591598510742188;-1.378814697265625
1445424020429;330.1680603027344;-100.46392059326172;-7.530080318450928;4.1648712158203125;-10.003753662109375;-1.712249755859375
1445424020462;332.20166015625;-98.58709716796875;-6.008007049560547;6.4792327880859375;-12.043548583984375;-1.75146484375
1445424020497;333.9488525390625;-98.32186889648438;-5.467265605926514;4.9690093994140625;-12.847686767578125;-0.692352294921875
1445424020528;336.2117919921875;-98.15168762207031;-4.807685375213623;2.67425537109375;-14.279464721679688;-1.6337890625
1445424020561;333.0487976074219;-97.02107238769531;-4.826040744781494;-1.0718841552734375;-14.946304321289062;-2.2221832275390625
1445424020597;331.7573547363281;-96.35714721679688;-4.695128917694092;0.6737060546875;-12.02392578125;-0.7315826416015625
1445424020627;329.2256774902344;-94.6285171508789;-4.2813873291015625;0.869842529296875;-10.239120483398438;-0.064727783203125
1445424020659;325.472412109375;-92.77095794677734;-3.5098023414611816;0.7913818359375;-7.5913238525390625;0.4844512939453125
1445424020693;323.99505615234375;-91.88169860839844;-3.037292957305908;0.7913818359375;-7.257904052734375;0.955169677734375
1445424020726;320.5146789550781;-90.20270538330078;-2.07267689704895;1.046356201171875;-7.3951873779296875;1.3474273681640625
1445424020758;318.3563232421875;-89.32970428466797;-1.598680019378662;1.105194091796875;-8.297409057617188;0.7394256591796875
1445424020792;314.5429992675781;-87.7690658569336;-0.7637163400650024;1.0659637451171875;-8.4346923828125;0.9159393310546875
1445424020825;311.59600830078125;-86.86832427978516;-0.03136252239346504;1.30133056640625;-9.258453369140625;0.386383056640625
1445424020858;309.18682861328125;-86.7828140258789;0.2571028470993042;1.3405609130859375;-8.630828857421875;-0.2804718017578125
1445424020894;303.6359558105469;-87.90473175048828;0.19636321067810059;1.615142822265625;-9.140777587890625;-1.437652587890625
1445424020924;296.94866943359375;-90.73475646972656;-0.14013342559337616;-1.4837646484375;-12.847686767578125;-3.4970550537109375
1445424020957;297.21087646484375;-92.73267364501953;0.03230508789420128;-2.3271331787109375;-11.043258666992188;1.4062652587890625
1445424020990;299.5751037597656;-96.28177642822266;0.5959361791610718;-1.8171844482421875;-11.39630126953125;1.876983642578125
1445424021022;298.6979064941406;-97.37248992919922;0.6118326187133789;-0.3657989501953125;-13.2203369140625;0.01373291015625
1445424021057;299.93560791015625;-97.58273315429688;0.8714939951896667;0.1833648681640625;-11.612045288085938;0.7001953125
1445424021090;303.5271301269531;-97.31360626220703;1.406332015991211;-0.032379150390625;-10.905975341796875;0.5236663818359375
1445424021122;304.89825439453125;-96.23339080810547;1.730512261390686;-1.4445343017578125;-10.278350830078125;-0.1039581298828125
1445424021159;305.2430419921875;-95.3488540649414;2.034710645675659;0.2029876708984375;-9.199615478515625;-1.1042327880859375
1445424021190;307.18896484375;-92.97534942626953;2.405496597290039;1.47784423828125;-8.5523681640625;-1.457275390625
1445424021221;308.19537353515625;-91.82040405273438;2.1584525108337402;1.046356201171875;-7.885528564453125;-1.810302734375
1445424021254;309.9094543457031;-90.676025390625;1.0579897165298462;0.418731689453125;-7.86590576171875;-2.692901611328125
1445424021287;311.3100280761719;-90.44005584716797;0.4728047549724579;0.242218017578125;-9.611495971679688;-3.0067291259765625
1445424021319;311.0621032714844;-90.79080200195312;0.17994846403598785;-2.5232696533203125;-9.925308227539062;0.562896728515625
1445424021353;310.5855407714844;-92.75655364990234;-0.5844336152076721;-3.033203125;-9.768402099609375;0.9747772216796875
1445424021385;311.774658203125;-94.73204040527344;-1.036365270614624;-0.9934234619140625;-11.298233032226562;1.50433349609375
1445424021420;313.0022277832031;-95.39410400390625;-1.378453254699707;0.6148681640625;-12.749618530273438;1.2297515869140625
1445424021452;316.1502685546875;-95.99109649658203;-2.1307759284973145;1.9093475341796875;-14.397140502929688;1.0532379150390625
1445424021485;319.6850280761719;-95.72868347167969;-2.445432662963867;1.164031982421875;-13.083053588867188;0.5236663818359375
1445424021519;321.3962707519531;-95.48627471923828;-2.4204065799713135;1.24249267578125;-11.847412109375;0.052947998046875
1445424021551;324.581787109375;-95.0385971069336;-2.6184823513031006;1.6347503662109375;-10.042984008789062;-0.574676513671875
1445424021584;327.1867370605469;-95.18012237548828;-3.3693273067474365;0.6737060546875;-7.9835968017578125;-0.3393096923828125
1445424021618;328.4181823730469;-95.54877471923828;-3.7401299476623535;0.2618255615234375;-7.12060546875;-0.4373779296875
1445424021650;331.4808044433594;-96.7936782836914;-4.275340557098389;0.7521514892578125;-7.2775115966796875;-1.2807464599609375
1445424021684;333.31707763671875;-97.58317565917969;-4.498927116394043;1.0267486572265625;-6.689117431640625;-1.829925537109375
1445424021716;337.79010009765625;-99.59889221191406;-4.545334339141846;0.8894500732421875;-6.3360748291015625;-1.3592071533203125
1445424021749;338.990966796875;-102.14002227783203;-4.307124137878418;0.595245361328125;-6.37530517578125;-1.51611328125
1445424021783;338.22918701171875;-103.4925765991211;-3.821535110473633;0.3206634521484375;-6.8264007568359375;-2.516387939453125
1445424021815;336.89813232421875;-106.57565307617188;-3.385295867919922;0.1833648681640625;-11.298233032226562;-4.3796539306640625
1445424021848;335.853759765625;-110.71247863769531;-4.9317474365234375;2.3408355712890625;-16.946868896484375;-9.479110717773438
1445424021882;336.78485107421875;-113.37631225585938;-5.549509048461914;3.7137603759765625;-16.946868896484375;-9.812530517578125
1445424021913;338.3389892578125;-116.94468688964844;-4.650203227996826;2.5369720458984375;-10.631378173828125;-5.987945556640625
1445424021947;337.87359619140625;-117.70502471923828;-4.449405193328857;0.928680419921875;-7.8462982177734375;-4.7523040771484375
1445424021980;337.68121337890625;-118.13111114501953;-4.764762878417969;1.3993988037109375;-7.297119140625;-4.6934661865234375
1445424022013;335.81884765625;-117.90770721435547;-6.00962495803833;1.3797760009765625;-6.1987762451171875;-2.8498077392578125
1445424022046;334.921630859375;-117.39187622070312;-6.349947929382324;1.53668212890625;-4.3747406005859375;-2.6144561767578125
1445424022079;334.791259765625;-116.11947631835938;-6.038700103759766;1.2032623291015625;-3.8059539794921875;-2.1241302490234375
1445424022112;336.9622802734375;-113.92140197753906;-5.252508163452148;1.2032623291015625;-4.27667236328125;-0.868865966796875
1445424022148;338.3524169921875;-112.4910659790039;-5.1536993980407715;2.4781341552734375;-4.7670135498046875;-0.6531219482421875
1445424022178;341.4205017089844;-109.92987060546875;-5.809250831604004;4.066802978515625;-7.297119140625;-1.96722412109375
1445424022211;342.8873596191406;-109.07636260986328;-6.4824442863464355;4.3021697998046875;-20.300735473632812;-7.9100494384765625
1445424022244;341.2276916503906;-107.52921295166016;-8.325424194335938;2.61541748046875;-20.0457763671875;-8.380767822265625
1445424022277;338.4151611328125;-107.50090789794922;-7.886413097381592;0.28143310546875;-15.652389526367188;-7.94927978515625
1445424022309;32.321685791015625;-107.8175277709961;-7.510896682739258;0.3795013427734375;-11.357070922851562;-4.968048095703125
1445424022344;31.35162353515625;-109.10907745361328;-7.411672592163086;1.2817230224609375;-10.08221435546875;-3.8697052001953125
1445424022376;28.669586181640625;-110.25887298583984;-8.058394432067871;1.7132110595703125;-6.5125885009765625;-1.692626953125
1445424022410;26.121856689453125;-110.41018676757812;-8.446526527404785;0.1833648681640625;-4.1786041259765625;-0.4373779296875
1445424022442;20.8450927734375;-109.55558776855469;-8.57927131652832;-0.4834747314453125;-4.080535888671875;0.0921783447265625
1445424022475;18.89739990234375;-107.59374237060547;-7.1338067054748535;0.1441497802734375;-5.1396636962890625;0.896331787109375
1445424022510;19.292205810546875;-106.09684753417969;-6.274043083190918;3.380340576171875;-9.278060913085938;-1.2219085693359375
1445424022543;18.720703125;-102.37763214111328;-5.7296881675720215;4.0275726318359375;-9.90570068359375;-2.08489990234375
1445424022578;15.367034912109375;-99.07186889648438;-6.0603437423706055;2.73309326171875;-10.02337646484375;-0.3393096923828125
1445424022610;15.106353759765625;-97.64985656738281;-6.15142822265625;2.32122802734375;-13.239959716796875;-0.3785400390625
1445424022643;16.208984375;-94.94200897216797;-5.734947204589844;1.9485626220703125;-11.925857543945312;0.562896728515625
1445424022673;14.047149658203125;-93.28472137451172;-5.69062614440918;0.6737060546875;-13.141891479492188;-1.947601318359375
1445424022712;11.837188720703125;-93.08734893798828;-6.032109260559082;-0.542327880859375;-12.749618530273438;0.8571014404296875
1445424022742;10.36456298828125;-93.78721618652344;-5.45791482925415;-0.3069610595703125;-12.690780639648438;0.5432891845703125
1445424022773;10.75701904296875;-93.828369140625;-4.368268966674805;0.22259521484375;-11.90625;0.3471527099609375
1445424022807;8.3182373046875;-92.31424713134766;-2.900981903076172;-0.0519866943359375;-10.729446411132812;-0.3981475830078125
1445424022840;5.9869384765625;-91.25505828857422;-2.400237560272217;-0.34619140625;-8.356246948242188;-0.751190185546875
1445424022871;5.842071533203125;-91.0807113647461;-2.1680407524108887;0.4579620361328125;-7.4148101806640625;-0.0451202392578125
1445424022905;4.968414306640625;-90.68833923339844;-1.694284200668335;0.5756378173828125;-7.669769287109375;0.111785888671875
1445424022938;2.25738525390625;-89.98318481445312;-1.1459217071533203;0.6933135986328125;-7.493255615234375;-0.1431732177734375
1445424022970;1.34954833984375;-89.60086059570312;-0.8587656021118164;0.9482879638671875;-7.3363494873046875;0.2883148193359375
1445424023004;359.3194274902344;-89.04376983642578;-0.5408218502998352;0.987518310546875;-7.63055419921875;-0.123565673828125
1445424023036;355.26666259765625;-89.24657440185547;-1.185287594795227;2.9488525390625;-17.397979736328125;-3.9677734375
1445424023069;352.1963195800781;-89.31755065917969;-1.7887868881225586;-0.777679443359375;-15.6719970703125;-1.6337890625
1445424023102;351.1700439453125;-91.37153625488281;-2.324763536453247;-0.34619140625;-9.199615478515625;3.1126251220703125
1445424023134;350.8260192871094;-93.22368621826172;-2.664052963256836;0.1245269775390625;-11.965087890625;4.2501983642578125
1445424023168;349.5216369628906;-94.83208465576172;-2.5968589782714844;1.2032623291015625;-12.9261474609375;3.6814117431640625
1445424023201;350.9629821777344;-94.22982788085938;-2.2114131450653076;1.222869873046875;-10.5921630859375;0.896331787109375
1445424023234;351.7326354980469;-93.83090209960938;-2.2391819953918457;-0.6207733154296875;-9.395751953125;-0.2020263671875
1445424023267;353.01165771484375;-93.19200134277344;-2.058274507522583;-1.111114501953125;-9.023101806640625;-0.4177703857421875
1445424023300;353.6163024902344;-92.6005630493164;-1.7923916578292847;-0.2481231689453125;-8.748504638671875;-0.574676513671875
1445424023333;354.5159912109375;-91.10191345214844;-1.6318036317825317;2.242767333984375;-9.00347900390625;-1.496490478515625
1445424023366;356.28485107421875;-89.68987274169922;-2.155088424682617;2.9096221923828125;-9.3369140625;-1.574951171875
1445424023400;356.98175048828125;-88.45288848876953;-3.5731711387634277;1.75244140625;-11.435531616210938;-0.6531219482421875
1445424023432;356.64495849609375;-87.70933532714844;-4.294975280761719;0.5560302734375;-11.749343872070312;-0.0254974365234375
1445424023465;358.0159912109375;-85.79090118408203;-4.884400367736816;-1.522979736328125;-10.356796264648438;-0.0843353271484375
1445424023498;359.054443359375;-84.85601806640625;-5.05613899230957;-1.7779541015625;-9.984146118164062;2.52423095703125
1445424023531;359.1095886230469;-83.84246826171875;-6.012520790100098;-1.2483978271484375;-11.180557250976562;3.289154052734375
1445424023564;359.8125915527344;-83.76678466796875;-6.665092945098877;1.3405609130859375;-9.650726318359375;0.7786407470703125
1445424023597;0.868988037109375;-84.05160522460938;-6.93904447555542;2.2623748779296875;-9.670333862304688;-0.574676513671875
1445424023630;3.555419921875;-84.72160339355469;-7.7371368408203125;1.18365478515625;-10.062606811523438;-0.5942840576171875
1445424023663;6.0445556640625;-85.27310943603516;-8.557404518127441;0.0853118896484375;-11.082489013671875;-0.94732666015625
1445424023696;6.916748046875;-86.02340698242188;-8.951603889465332;0.9678955078125;-12.161224365234375;-1.12384033203125
1445424023731;9.009979248046875;-88.6373291015625;-9.760833740234375;2.693878173828125;-12.41619873046875;-0.9080963134765625
1445424023762;10.97088623046875;-89.902587890625;-10.051602363586426;3.81182861328125;-11.043258666992188;-1.202301025390625
1445424023798;14.75274658203125;-91.71443939208984;-10.476120948791504;3.2430419921875;-10.180282592773438;-1.2415313720703125
1445424023828;18.229522705078125;-93.37710571289062;-10.608301162719727;2.164306640625;-8.88580322265625;-1.261138916015625
1445424023862;22.462890625;-95.4316635131836;-10.035804748535156;1.8897247314453125;-7.669769287109375;-2.4771575927734375
1445424023895;24.87738037109375;-96.6814193725586;-9.474530220031738;1.47784423828125;-7.0225372314453125;-2.692901611328125
1445424023927;29.929779052734375;-99.8028335571289;-7.640425682067871;0.22259521484375;-5.5711517333984375;-1.6730194091796875
1445424023960;32.670989990234375;-101.44686126708984;-6.238097667694092;0.3991241455078125;-5.6888275146484375;-1.6337890625
1445424023995;36.4478759765625;-104.07505798339844;-3.8398220539093018;1.2621002197265625;-6.9048614501953125;-1.9868316650390625
1445424024026;37.06109619140625;-106.34544372558594;-2.6401586532592773;2.5958099365234375;-11.082489013671875;-3.085174560546875
1445424024060;36.567718505859375;-107.5376968383789;-2.249603748321533;1.3797760009765625;-13.808746337890625;-4.0070037841796875
1445424024092;34.558502197265625;-110.48316955566406;-2.349271774291992;1.3209381103515625;-13.0438232421875;-4.4973297119140625
1445424024125;32.285797119140625;-113.8111343383789;-3.9734389781951904;2.0858612060546875;-12.47503662109375;-5.0465087890625
1445424024158;31.4127197265625;-115.12215423583984;-4.711495399475098;3.2430419921875;-12.004318237304688;-4.6150054931640625
1445424024193;30.4989013671875;-116.21463012695312;-5.432657241821289;3.1057586669921875;-10.984420776367188;-4.026611328125
1445424024225;28.79034423828125;-115.86560821533203;-6.363499641418457;1.8897247314453125;-9.297683715820312;-2.634063720703125
1445424024256;27.764739990234375;-115.37547302246094;-6.899135589599609;1.732818603515625;-8.336624145507812;-2.1829681396484375
1445424024292;26.1976318359375;-113.97509765625;-7.896800994873047;1.6935882568359375;-6.2183990478515625;-1.810302734375
1445424024323;25.868133544921875;-112.9992446899414;-8.266186714172363;1.046356201171875;-5.8065185546875;-1.96722412109375
1445424024357;25.6905517578125;-110.58074951171875;-8.95808219909668;0.8502197265625;-5.8653564453125;-1.574951171875
1445424024393;25.61566162109375;-108.02571105957031;-9.37687873840332;0.5167999267578125;-7.0813751220703125;-1.261138916015625
1445424024423;25.871734619140625;-106.6595687866211;-9.279417991638184;1.41900634765625;-5.9241943359375;-1.319976806640625
1445424024455;26.206329345703125;-104.1888198852539;-8.770040512084961;2.752716064453125;-6.8852386474609375;-1.00616455078125
1445424024490;27.435028076171875;-102.76092529296875;-8.392571449279785;5.9300689697265625;-11.553207397460938;-2.7125244140625
1445424024524;28.458892822265625;-102.60983276367188;-8.322842597961426;4.7336578369140625;-15.770065307617188;-3.6735687255859375
1445424024556;27.766754150390625;-102.56971740722656;-8.591960906982422;0.987518310546875;-17.49603271484375;-4.53656005859375
1445424024587;24.980010986328125;-102.29021453857422;-8.3243989944458;-1.8760223388671875;-15.142440795898438;-3.771636962890625
1445424024622;23.55780029296875;-102.0525894165039;-7.972293376922607;-1.5622100830078125;-12.769241333007812;-2.5359954833984375
1445424024653;21.82989501953125;-101.45421600341797;-7.243350982666016;0.8502197265625;-9.748779296875;-0.7904205322265625
1445424024686;20.901947021484375;-100.81944274902344;-6.8931708335876465;2.3996734619140625;-7.885528564453125;-0.3785400390625
1445424024719;18.397491455078125;-98.91780090332031;-6.242448806762695;2.38006591796875;-7.1009979248046875;-0.2216339111328125
1445424024752;16.198944091796875;-96.59523010253906;-5.535099506378174;2.1446990966796875;-6.1987762451171875;-0.0451202392578125
1445424024785;15.23809814453125;-95.31546783447266;-5.172266006469727;2.10546875;-7.0225372314453125;0.111785888671875
1445424024818;13.21063232421875;-92.73980712890625;-4.585426330566406;2.3408355712890625;-7.6501617431640625;-0.0843353271484375
1445424024851;10.678985595703125;-90.38997650146484;-4.2206268310546875;1.8308868408203125;-7.7286224365234375;-0.3393096923828125
1445424024887;9.369537353515625;-89.3239517211914;-4.0460524559021;0.6344757080078125;-7.68939208984375;1.190521240234375
1445424024917;6.722900390625;-87.64302062988281;-3.6435163021087646;0.5167999267578125;-8.925033569335938;1.50433349609375
1445424024950;6.06915283203125;-86.30684661865234;-3.4110019207000732;2.8311614990234375;-13.083053588867188;0.4059906005859375
1445424024984;5.731842041015625;-86.41934967041016;-3.8155548572540283;2.693878173828125;-17.08416748046875;-3.6147308349609375
1445424025016;6.00518798828125;-89.39666748046875;-4.065027236938477;-2.6409454345703125;-13.67144775390625;1.56317138671875
1445424025049;8.930908203125;-93.25399017333984;-2.9414939880371094;-1.8956451416015625;-11.827789306640625;3.524505615234375
1445424025082;9.19927978515625;-94.0170669555664;-2.2228167057037354;-0.8757476806640625;-12.180831909179688;3.15185546875
1445424025116;8.89959716796875;-93.42913055419922;-1.9839211702346802;1.3993988037109375;-11.768951416015625;-0.0843353271484375
1445424025148;9.488525390625;-93.07373809814453;-2.2314505577087402;0.6148681640625;-11.004043579101562;-1.12384033203125
1445424025182;11.88250732421875;-92.60460662841797;-2.776365041732788;0.1245269775390625;-9.807632446289062;-1.0257720947265625
1445424025214;12.150909423828125;-92.41047668457031;-3.377798557281494;-0.8757476806640625;-7.9051361083984375;-1.202301025390625
1445424025247;11.55487060546875;-92.24512481689453;-3.6904382705688477;-0.91497802734375;-6.8264007568359375;-2.14373779296875
1445424025280;9.863983154296875;-91.82881927490234;-4.3981451988220215;-1.0130462646484375;-6.2772369384765625;-2.37908935546875
1445424025313;7.71636962890625;-91.65660095214844;-4.867684841156006;-1.7191162109375;-6.179168701171875;-0.9277191162109375
1445424025347;6.83477783203125;-91.37002563476562;-4.770884990692139;-1.7191162109375;-7.7678375244140625;0.386383056640625
1445424025379;6.43804931640625;-89.73103332519531;-4.281043529510498;1.24249267578125;-14.92669677734375;-0.123565673828125
1445424025413;5.433837890625;-88.66026306152344;-4.869906902313232;-0.5030975341796875;-15.358184814453125;-1.1630706787109375
1445424025444;4.01324462890625;-88.92131805419922;-5.4854817390441895;-1.856414794921875;-12.965362548828125;2.328094482421875
1445424025479;3.682891845703125;-91.91365051269531;-6.7542033195495605;0.6344757080078125;-13.357635498046875;4.1913604736328125
1445424025513;4.5712890625;-94.04424285888672;-7.290148735046387;3.7725982666015625;-11.925857543945312;1.6024017333984375
1445424025544;5.38885498046875;-94.61463928222656;-7.75741720199585;4.262939453125;-10.631378173828125;0.8571014404296875
1445424025578;8.87615966796875;-96.31934356689453;-8.661235809326172;3.2822723388671875;-8.415084838867188;-0.692352294921875
1445424025613;10.57110595703125;-97.57123565673828;-9.028532981872559;1.53668212890625;-6.8460235595703125;-1.1630706787109375
1445424025643;14.622802734375;-101.14640045166016;-9.49165153503418;1.24249267578125;-6.806793212890625;-1.084625244140625
1445424025676;20.2789306640625;-105.4869155883789;-9.35727310180664;0.5167999267578125;-7.4736480712890625;-1.6533966064453125
1445424025710;22.239349365234375;-107.59578704833984;-9.02588176727295;-0.4834747314453125;-8.473922729492188;-2.281036376953125
1445424025743;23.896026611328125;-111.1240234375;-8.815890312194824;0.1245269775390625;-8.925033569335938;-2.02606201171875
1445424025776;24.583953857421875;-115.38931274414062;-9.102616310119629;-0.1696624755859375;-5.9438018798828125;-2.9478759765625
1445424025808;24.8302001953125;-117.50628662109375;-9.094836235046387;-0.287353515625;-4.4924163818359375;-4.105072021484375
1445424025840;25.33428955078125;-120.67424774169922;-9.149157524108887;3.3607330322265625;-7.826690673828125;-5.1053466796875
1445424025874;29.6373291015625;-121.62960052490234;-8.51746940612793;7.2637786865234375;-10.7098388671875;-7.0274505615234375
1445424025911;30.923675537109375;-121.15441131591797;-8.334855079650879;4.9690093994140625;-10.003753662109375;-4.36004638671875
1445424025942;31.644683837890625;-118.96873474121094;-8.593295097351074;3.5372467041015625;-10.19989013671875;-4.41888427734375
1445424025974;32.042236328125;-117.93897247314453;-8.981224060058594;2.5958099365234375;-9.925308227539062;-3.595123291015625
1445424026008;32.995147705078125;-115.33259582519531;-9.440160751342773;2.8311614990234375;-9.670333862304688;-3.0655670166015625
1445424026040;33.6173095703125;-111.50973510742188;-8.9754056930542;3.87066650390625;-11.651275634765625;-3.1047821044921875
1445424026075;34.24658203125;-109.4934310913086;-8.56990909576416;4.5375213623046875;-9.748779296875;-1.8495330810546875
1445424026109;34.106201171875;-105.38514709472656;-8.551053047180176;4.184478759765625;-8.473922729492188;-1.2807464599609375
1445424026138;31.76983642578125;-100.96147918701172;-9.619651794433594;3.4784088134765625;-7.061767578125;-1.712249755859375
1445424026171;31.10919189453125;-98.95956420898438;-10.319304466247559;3.2038116455078125;-6.49298095703125;-1.5357208251953125
1445424026206;30.502593994140625;-95.59222412109375;-11.854385375976562;3.8510589599609375;-7.8462982177734375;-1.692626953125
1445424026237;29.957244873046875;-92.83506774902344;-12.727953910827637;1.556304931640625;-10.925582885742188;-3.712799072265625
1445424026271;30.374908447265625;-91.82052612304688;-12.598352432250977;-1.346466064453125;-10.062606811523438;-2.8694305419921875
1445424026303;37.1204833984375;-90.94735717773438;-12.638568878173828;-2.40557861328125;-9.101547241210938;-1.96722412109375
1445424026337;34.5679931640625;-90.11766815185547;-13.579564094543457;-1.5033721923828125;-15.162063598632812;-0.7315826416015625
1445424026369;33.424560546875;-90.52093505859375;-13.432767868041992;-3.0920562744140625;-15.4366455078125;-0.2216339111328125
1445424026402;31.519805908203125;-91.92755126953125;-12.29373836517334;-3.562774658203125;-11.631668090820312;3.77947998046875
1445424026435;29.89154052734375;-92.98200225830078;-11.368185997009277;-1.15032958984375;-11.749343872070312;2.386932373046875
1445424026467;28.26519775390625;-93.94317626953125;-9.790616989135742;3.2234344482421875;-13.1614990234375;0.327545166015625
1445424026501;27.470428466796875;-94.73358917236328;-9.375985145568848;4.5375213623046875;-11.474761962890625;-2.1633453369140625
1445424026535;26.614593505859375;-95.4019775390625;-9.543845176696777;2.7723236083984375;-10.101821899414062;-2.4183197021484375
1445424026567;27.61676025390625;-98.3780288696289;-9.765135765075684;1.8701171875;-9.160385131835938;-2.4379425048828125
1445424026600;31.0068359375;-102.67158508300781;-8.730673789978027;0.0068511962890625;-6.1987762451171875;-2.457550048828125
1445424026633;33.574615478515625;-105.14647674560547;-7.82658052444458;0.242218017578125;-5.5123138427734375;-2.4379425048828125
1445424026666;40.296539306640625;-110.92337799072266;-6.1299872398376465;1.3797760009765625;-6.1007080078125;-4.909210205078125
1445424026699;42.581817626953125;-114.2966079711914;-5.705460071563721;1.18365478515625;-6.1987762451171875;-3.0459442138671875
1445424026732;41.920684814453125;-122.391845703125;-5.515336513519287;1.7132110595703125;-6.8264007568359375;-1.143463134765625
1445424026765;39.036407470703125;-130.1790008544922;-6.229189395904541;-0.1696624755859375;-8.160110473632812;-4.2423553466796875
1445424026798;39.11761474609375;-133.4386749267578;-5.940018653869629;2.301605224609375;-6.4537506103515625;-7.8512115478515625
1445424026831;41.176788330078125;-137.94705200195312;-5.313191890716553;5.4593505859375;-6.1399383544921875;-8.341537475585938
1445424026864;43.50726318359375;-139.4650115966797;-4.224056243896484;6.1654205322265625;-8.1405029296875;-6.9686126708984375
1445424026897;44.53948974609375;-138.90904235839844;-3.465048313140869;4.2041015625;-8.5523681640625;-7.635467529296875
1445424026930;46.857421875;-136.528076171875;-3.8671576976776123;3.4587860107421875;-9.572265625;-7.5962371826171875
1445424026963;47.844451904296875;-132.58001708984375;-5.414117813110352;2.9684600830078125;-9.513427734375;-5.55645751953125
1445424026995;47.9879150390625;-130.22154235839844;-6.387424468994141;2.5173492431640625;-8.728897094726562;-5.1249542236328125
1445424027029;47.920166015625;-125.46784210205078;-8.40757942199707;1.791656494140625;-8.532760620117188;-4.2619781494140625
1445424027062;47.30084228515625;-122.68988037109375;-9.111271858215332;1.3209381103515625;-7.7874603271484375;-2.516387939453125
1445424027095;45.09320068359375;-115.89325714111328;-9.71339225769043;1.105194091796875;-6.4537506103515625;-1.4768829345703125
1445424027128;40.70867919921875;-108.14082336425781;-10.483258247375488;1.0855865478515625;-5.23773193359375;0.386383056640625
1445424027163;37.245147705078125;-100.51628112792969;-10.554702758789062;3.1057586669921875;-5.41424560546875;-0.1039581298828125
1445424027193;36.881134033203125;-96.87122344970703;-10.482610702514648;3.57647705078125;-6.49298095703125;-0.9865570068359375
1445424027228;39.72149658203125;-91.1629867553711;-10.419569969177246;4.32177734375;-11.043258666992188;-4.2423553466796875
1445424027268;42.25738525390625;-89.91592407226562;-11.003145217895508;0.10491943359375;-11.749343872070312;-0.9669342041015625
1445424027293;41.30194091796875;-90.6506576538086;-11.166730880737305;0.5756378173828125;-15.279739379882812;-2.7713623046875
1445424027326;40.612213134765625;-93.15802001953125;-10.875009536743164;-1.3856964111328125;-15.6719970703125;-0.3981475830078125
1445424027358;41.20758056640625;-94.57325744628906;-10.281517028808594;-2.601715087890625;-13.867584228515625;1.4062652587890625
1445424027392;40.41302490234375;-95.21063995361328;-8.924958229064941;-1.915252685546875;-13.455703735351562;1.1120758056640625
1445424027425;40.34967041015625;-93.79803466796875;-8.218353271484375;0.7521514892578125;-12.690780639648438;-0.5550537109375
1445424027459;40.407379150390625;-93.11076354980469;-8.168627738952637;0.7913818359375;-13.083053588867188;-1.810302734375
1445424027492;39.840057373046875;-92.33097839355469;-8.27662467956543;-0.4834747314453125;-12.161224365234375;-2.4967803955078125
1445424027524;39.47235107421875;-92.42133331298828;-8.129448890686035;-0.3854217529296875;-10.415634155273438;-2.692901611328125
1445424027557;38.53521728515625;-93.760009765625;-7.456982135772705;0.1441497802734375;-8.101272583007812;-2.37908935546875
1445424027590;38.33380126953125;-96.61376190185547;-7.362569808959961;0.28143310546875;-6.3164520263671875;-3.3205413818359375
1445424027624;38.556884765625;-98.66827392578125;-7.47622013092041;1.0659637451171875;-6.296844482421875;-3.45782470703125
1445424027659;42.06866455078125;-103.92140197753906;-6.599192142486572;3.3999481201171875;-6.296844482421875;-2.02606201171875
1445424027689;43.517822265625;-109.7950439453125;-6.192667484283447;1.5170745849609375;-8.336624145507812;0.386383056640625
1445424027724;38.8734130859375;-113.49795532226562;-6.940666198730469;-0.5619354248046875;-9.68994140625;0.1510162353515625
1445424027759;26.99493408203125;-123.12689208984375;-10.293967247009277;0.4579620361328125;-13.063430786132812;-4.47772216796875
1445424027791;23.8404541015625;-132.8288116455078;-13.871866226196289;6.14581298828125;-10.788284301757812;-10.753982543945312
1445424027825;24.285552978515625;-135.62184143066406;-15.473176002502441;7.0480194091796875;-9.376129150390625;-8.282699584960938
1445424027855;22.201171875;-136.17442321777344;-14.208130836486816;3.57647705078125;-9.493820190429688;-5.536834716796875
1445424027887;22.056610107421875;-133.97052001953125;-12.16028881072998;3.498016357421875;-4.472808837890625;-3.0655670166015625
1445424027919;25.034332275390625;-127.76837921142578;-7.861600875854492;1.222869873046875;-3.98248291015625;-2.2418060302734375
1445424027953;25.378509521484375;-119.78128051757812;-3.114178419113159;-7.0539398193359375;-2.766448974609375;2.5634613037109375
1445424027986;24.447265625;-114.78864288330078;-0.31161099672317505;-0.0519866943359375;-0.255950927734375;1.1512908935546875
1445424028020;26.266845703125;-104.8906021118164;0.8646024465560913;2.49774169921875;0.50897216796875;-3.7324066162109375
1445424028053;18.89080810546875;-100.72258758544922;-4.595578670501709;2.5958099365234375;1.7249908447265625;3.3675994873046875
1445424028086;20.455841064453125;-99.64766693115234;-3.5254621505737305;12.539749145507812;-23.948822021484375;-5.085723876953125
1445424028118;27.15185546875;-98.55615234375;-4.393351078033447;-0.8169097900390625;-29.636672973632812;-4.0658416748046875
1445424028151;26.26959228515625;-97.8203125;-4.480999946594238;-5.327972412109375;-22.6739501953125;-6.2625274658203125
1445424028184;27.940185546875;-98.05098724365234;-4.001411437988281;-1.0130462646484375;-20.3399658203125;-9.616409301757812
1445424028217;34.4100341796875;-101.42695617675781;-3.3459157943725586;2.3408355712890625;-8.2581787109375;-8.106185913085938
1445424028250;38.97662353515625;-105.46678161621094;-2.5880019664764404;0.4579620361328125;-4.923919677734375;-0.77081298828125
1445424028283;36.637969970703125;-114.73872375488281;-3.294910192489624;-1.974090576171875;-2.0407562255859375;4.720916748046875
1445424028316;32.366241455078125;-125.92684936523438;-6.483291149139404;-0.660003662109375;1.0777587890625;-4.9876708984375
1445424028349;30.92620849609375;-131.44969177246094;-8.575389862060547;-4.9553070068359375;-9.866470336914062;-8.851486206054688
1445424028382;25.291717529296875;-137.46604919433594;-15.206099510192871;1.5759124755859375;-8.277786254882812;-6.92938232421875
1445424028415;22.53070068359375;-137.27920532226562;-15.726282119750977;4.2237091064453125;-8.356246948242188;-6.3409881591796875
1445424028448;21.811798095703125;-134.42047119140625;-13.415592193603516;1.8308868408203125;-5.3161773681640625;-2.8105926513671875
1445424028481;19.4749755859375;-125.0200424194336;-9.19813060760498;-0.5619354248046875;-4.6297149658203125;-1.2807464599609375
1445424028514;16.07086181640625;-115.01660919189453;-5.30935525894165;-4.1511688232421875;-4.2570648193359375;3.1126251220703125
1445424028548;17.857421875;-109.7871322631836;-3.415210008621216;-1.915252685546875;-3.2960052490234375;4.91705322265625
1445424028580;21.068084716796875;-99.44703674316406;-3.012775182723999;3.4587860107421875;-0.883575439453125;0.6021270751953125
1445424028613;23.03314208984375;-94.969970703125;-0.9372965693473816;13.20660400390625;-23.478103637695312;-5.55645751953125
1445424028646;26.367767333984375;-93.19493865966797;-2.1032118797302246;-4.73956298828125;-25.2432861328125;-3.4382171630859375
1445424028678;33.31463623046875;-93.25052642822266;-3.0277814865112305;-4.2100067138671875;-22.320907592773438;-8.223861694335938
1445424028711;32.954498291015625;-93.43587493896484;-3.265939712524414;2.2231597900390625;-11.631668090820312;-13.519454956054688
1445424028746;35.318328857421875;-95.88288879394531;-3.9056079387664795;0.8502197265625;-5.9438018798828125;-7.753143310546875
1445424028779;33.764862060546875;-105.66441345214844;-5.043048858642578;-2.8174591064453125;-5.1200408935546875;5.466217041015625
1445424028811;27.3795166015625;-110.17465209960938;-7.0295186042785645;-2.307525634765625;-3.9432525634765625;5.7015838623046875
1445424028845;18.964996337890625;-120.69921112060547;-11.313738822937012;-4.1707763671875;-1.452362060546875;1.700469970703125
1445424028878;12.703399658203125;-124.62236022949219;-14.985048294067383;-0.405029296875;-9.180007934570312;1.0924530029296875
1445424028911;7.276336669921875;-126.68331909179688;-18.583608627319336;1.9485626220703125;-8.964248657226562;1.32781982421875
1445424028943;7.097503662109375;-121.59593200683594;-13.174922943115234;1.53668212890625;-8.3758544921875;-1.06500244140625
1445424028976;6.714935302734375;-111.3051986694336;-4.988699913024902;-3.60198974609375;-7.297119140625;3.093017578125
1445424029009;8.9285888671875;-105.76779174804688;-1.2296533584594727;-0.1892852783203125;-4.8258514404296875;-2.8498077392578125
1445424029043;13.744110107421875;-98.013427734375;2.25490403175354;9.891952514648438;-3.786346435546875;-1.0453948974609375
1445424029076;19.996185302734375;-96.40904998779297;2.4678494930267334;4.8709564208984375;-22.713180541992188;-7.2628021240234375
1445424029108;27.2540283203125;-94.57674407958984;-0.744500458240509;-2.91552734375;-31.146896362304688;-1.947601318359375
1445424029142;31.421417236328125;-95.765869140625;-1.3989455699920654;-5.386810302734375;-23.909591674804688;-7.9100494384765625
1445424029174;29.052337646484375;-96.52559661865234;-1.7013659477233887;1.0855865478515625;-12.906524658203125;-9.400650024414062
1445424029206;30.488433837890625;-102.80780792236328;-3.089142322540283;3.439178466796875;-6.8852386474609375;-7.360870361328125
1445424029240;30.791839599609375;-112.18598175048828;-5.128266334533691;-3.170501708984375;-6.061492919921875;1.32781982421875
1445424029275;25.66326904296875;-116.0215835571289;-6.630125045776367;-2.2486724853515625;-4.1197662353515625;2.58306884765625
1445424029309;17.820831298828125;-125.14756774902344;-11.071133613586426;-0.522705078125;-4.590484619140625;-6.615570068359375
1445424029342;14.799072265625;-130.2086639404297;-14.038578033447266;1.24249267578125;-14.240234375;-3.712799072265625
1445424029379;10.05731201171875;-134.93429565429688;-19.69757652282715;5.9300689697265625;-9.493820190429688;-0.5354461669921875
1445424029407;9.8251953125;-132.0995330810547;-14.29634952545166;3.3607330322265625;-7.23828125;0.896331787109375
1445424029441;12.375885009765625;-122.80781555175781;-5.600205898284912;-0.9934234619140625;-2.766448974609375;0.2098541259765625
1445424029473;13.16070556640625;-117.33692932128906;-3.1180531978607178;-2.150604248046875;0.0186309814453125;1.44549560546875
1445424029504;18.1136474609375;-106.05787658691406;1.2672075033187866;0.7913818359375;2.4114532470703125;-1.692626953125
1445424029539;20.225189208984375;-101.01439666748047;1.9691170454025269;8.793609619140625;-6.61065673828125;-4.3796539306640625
1445424029569;21.819000244140625;-95.68162536621094;0.945307731628418;14.265716552734375;-23.321197509765625;-12.185745239257812
1445424029603;30.025421142578125;-94.86571502685547;-0.6965590119361877;-6.2301788330078125;-25.204071044921875;-11.871932983398438
1445424029636;32.4227294921875;-97.68026733398438;-0.36024191975593567;-5.7790679931640625;-22.340530395507812;-11.185470581054688
1445424029669;25.218902587890625;-106.6628189086914;-3.327857255935669;-3.0135955810546875;-8.689666748046875;-5.1053466796875
1445424029702;20.820556640625;-111.68795013427734;-6.121827602386475;-3.0724334716796875;5.667266845703125;-0.4373779296875
1445424029735;17.506683349609375;-122.90316009521484;-10.935335159301758;-5.7202301025390625;-2.1780548095703125;-3.536285400390625
1445424029768;11.136474609375;-130.10479736328125;-16.221004486083984;2.4781341552734375;-19.182785034179688;0.07257080078125
1445424029801;9.365203857421875;-131.41221618652344;-16.24435043334961;4.1648712158203125;-12.004318237304688;-0.4177703857421875
1445424029834;7.35968017578125;-128.1280975341797;-11.81523323059082;2.752716064453125;-5.7084503173828125;-2.08489990234375
1445424029866;6.29736328125;-121.37474060058594;-6.438666820526123;0.3795013427734375;3.902069091796875;-2.26141357421875
1445424029901;7.578521728515625;-117.3353042602539;-3.384246349334717;1.3993988037109375;7.059814453125;0.111785888671875
1445424029933;13.079010009765625;-108.01795196533203;1.2222734689712524;0.3206634521484375;5.843780517578125;-0.9865570068359375
1445424029966;17.78173828125;-99.61502838134766;2.266228675842285;1.1444244384765625;-20.712615966796875;-0.3589324951171875
1445424030001;21.65277099609375;-96.85948181152344;1.0153061151504517;-5.58294677734375;-21.536376953125;-3.9481658935546875
1445424030032;24.54266357421875;-93.27936553955078;-0.16181421279907227;-0.58154296875;-20.379196166992188;-3.791259765625
1445424030065;26.210418701171875;-94.21371459960938;-0.991191029548645;-1.6014404296875;-13.84796142578125;-13.440994262695312
1445424030099;25.148406982421875;-96.16131591796875;-1.6667662858963013;-4.2688446044921875;-7.944366455078125;-11.499282836914062
1445424030131;25.800689697265625;-103.41851043701172;-0.3701689541339874;-2.935150146484375;0.56781005859375;-2.339874267578125
1445424030164;22.018585205078125;-107.25968170166016;-1.5605692863464355;0.3206634521484375;4.961181640625;8.486679077148438
1445424030197;13.30816650390625;-115.85462188720703;-10.57736587524414;-1.1307220458984375;1.2150421142578125;5.3681640625
1445424030230;11.608123779296875;-125.51251220703125;-16.558982849121094;1.0071258544921875;-17.182220458984375;-2.065277099609375
1445424030263;11.2957763671875;-128.33995056152344;-17.042949676513672;4.007965087890625;-12.671173095703125;-2.575225830078125
1445424030296;9.860076904296875;-126.30335998535156;-13.026132583618164;2.5761871337890625;-9.650726318359375;-0.88848876953125
1445424030329;10.961395263671875;-118.8199462890625;-6.609621047973633;-0.91497802734375;-6.7871856689453125;-0.300079345703125
1445424030365;10.602783203125;-113.69683837890625;-3.7657809257507324;-5.4848785400390625;-3.8844146728515625;2.6026763916015625
1445424030395;8.664794921875;-102.3991470336914;1.8549695014953613;-3.111663818359375;-2.00152587890625;1.190521240234375
1445424030428;10.39080810546875;-92.98503112792969;4.3668036460876465;6.26348876953125;-3.6098175048828125;-2.516387939453125
1445424030460;11.87640380859375;-91.7154312133789;5.220623016357422;11.755218505859375;-15.358184814453125;-7.6746826171875
1445424030494;21.39910888671875;-88.56929779052734;1.7384037971496582;2.38006591796875;-30.068161010742188;-7.3412628173828125
1445424030527;25.78424072265625;-89.64382934570312;-0.5897358059883118;-5.64178466796875;-22.379745483398438;-8.537673950195312
1445424030560;24.33966064453125;-93.87263488769531;-2.315760850906372;-5.053375244140625;-17.907913208007812;-10.106735229492188
1445424030594;25.127105712890625;-102.38130950927734;-6.645456314086914;5.832000732421875;-6.8460235595703125;-5.1445770263671875
1445424030627;29.30755615234375;-107.73604583740234;-8.43779468536377;4.9886322021484375;-4.1393890380859375;-4.0658416748046875
1445424030659;27.1976318359375;-114.54019165039062;-9.724922180175781;-5.6025543212890625;-1.393524169921875;5.230865478515625
1445424030692;19.622650146484375;-120.84976959228516;-13.735386848449707;-3.0724334716796875;-5.6888275146484375;-4.47772216796875
1445424030727;17.27105712890625;-124.06005096435547;-17.16803741455078;2.9488525390625;-14.495208740234375;-3.4970550537109375
1445424030758;13.911102294921875;-124.29911041259766;-20.14576530456543;6.910736083984375;-14.240234375;-1.4180450439453125
1445424030791;13.26959228515625;-118.9463882446289;-15.405710220336914;1.615142822265625;-8.513153076171875;1.1120758056640625
1445424030824;13.85321044921875;-115.13859558105469;-12.00162410736084;-0.9934234619140625;-8.454315185546875;-3.0459442138671875
1445424030860;12.762054443359375;-106.96737670898438;-6.129328727722168;-4.62188720703125;-2.825286865234375;1.014007568359375
1445424030890;13.613433837890625;-100.61649322509766;-0.7452988624572754;1.98779296875;-1.5308074951171875;-3.202850341796875
1445424030923;14.4549560546875;-97.82349395751953;0.8582829236984253;5.8712310791015625;-1.001251220703125;-3.3009185791015625
1445424030956;15.53643798828125;-94.1906967163086;0.6105203628540039;12.12786865234375;-12.769241333007812;-3.9677734375
1445424030989;18.225555419921875;-93.87519836425781;-0.41474637389183044;3.615692138671875;-30.754623413085938;-0.4177703857421875
1445424031023;27.810302734375;-92.30170440673828;-5.356024265289307;-5.2299041748046875;-31.833358764648438;-0.4962158203125
1445424031059;28.453857421875;-91.93611145019531;-5.548224449157715;-12.526046752929688;-19.065109252929688;-2.7321319580078125
1445424031089;24.86785888671875;-91.43323516845703;-3.8106272220611572;-4.190399169921875;-8.807342529296875;-3.908935546875
1445424031121;21.1270751953125;-91.37190246582031;-1.808434009552002;0.1441497802734375;-5.6888275146484375;-2.967498779296875
1445424031154;23.753814697265625;-93.09162139892578;-3.0192086696624756;3.498016357421875;0.195159912109375;-1.261138916015625
1445424031188;24.54949951171875;-93.47834777832031;-3.3198070526123047;1.046356201171875;1.509246826171875;1.0924530029296875
1445424031220;26.0440673828125;-93.54409790039062;-3.091921091079712;1.0659637451171875;1.0777587890625;1.6808624267578125
1445424031253;28.494384765625;-93.86803436279297;-3.5470669269561768;2.5173492431640625;-1.88385009765625;2.1319580078125
1445424031286;30.578155517578125;-94.02806091308594;-3.739304542541504;6.0477447509765625;-17.7706298828125;2.75958251953125
1445424031319;30.61181640625;-93.30594635009766;-7.598860263824463;0.28143310546875;-28.538330078125;-2.9871063232421875
1445424031351;26.9017333984375;-93.22850799560547;-9.744696617126465;-1.405303955078125;-16.162338256835938;-5.419158935546875
1445424031385;27.918548583984375;-95.39372253417969;-10.095025062561035;-0.6796112060546875;-12.59271240234375;-3.889312744140625
1445424031418;27.1607666015625;-93.31513977050781;-8.793543815612793;-2.091766357421875;-6.43414306640625;-2.457550048828125
1445424031452;25.647735595703125;-92.5066909790039;-8.863385200500488;0.2029876708984375;-1.060089111328125;-1.0257720947265625
1445424031484;27.580474853515625;-93.92749786376953;-10.521419525146484;1.1444244384765625;-0.4128570556640625;-0.0843353271484375
1445424031517;31.623565673828125;-96.65630340576172;-11.936728477478027;-0.287353515625;1.5484771728515625;2.0535125732421875
1445424031550;31.77978515625;-97.25000762939453;-12.334986686706543;-0.8169097900390625;2.470306396484375;3.0341796875
1445424031583;33.080810546875;-97.30963897705078;-12.772640228271484;0.9090576171875;1.6073150634765625;4.2305908203125
1445424031616;34.464813232421875;-96.56914520263672;-12.651581764221191;-0.150054931640625;-10.239120483398438;0.896331787109375
1445424031649;28.700103759765625;-91.16014862060547;-10.719603538513184;-1.1307220458984375;-18.770904541015625;3.5048980712890625
1445424031681;20.7164306640625;-85.47464752197266;-9.024065971374512;6.7734375;-34.04966735839844;-10.793197631835938
1445424031715;17.645721435546875;-83.60813903808594;-7.537031650543213;12.677047729492188;-18.908203125;-1.8495330810546875
1445424031748;23.32562255859375;-84.4687271118164;-8.533536911010742;12.4613037109375;-16.888031005859375;1.50433349609375
1445424031781;31.9544677734375;-88.14996337890625;-11.547650337219238;-1.3660736083984375;-13.063430786132812;-2.8105926513671875
1445424031816;30.718048095703125;-89.80968475341797;-11.740979194641113;-2.150604248046875;-7.4540252685546875;0.07257080078125
1445424031846;28.863311767578125;-93.96514129638672;-11.379913330078125;-2.2486724853515625;-4.3159027099609375;-1.12384033203125
1445424031881;27.07373046875;-100.46984100341797;-12.046723365783691;1.6543731689453125;-0.314788818359375;-0.633514404296875
1445424031915;27.06353759765625;-104.52833557128906;-13.624627113342285;-0.150054931640625;2.9998626708984375;-0.0843353271484375
1445424031946;23.27142333984375;-109.82884979248047;-16.264251708984375;-1.8956451416015625;3.3136749267578125;0.6021270751953125
1445424031979;23.186004638671875;-109.48764038085938;-14.548789978027344;-2.425201416015625;2.019195556640625;1.8377685546875
1445424032013;26.46722412109375;-108.13099670410156;-12.54294490814209;-2.91552734375;-1.8446197509765625;1.21014404296875
1445424032045;33.74810791015625;-103.83654022216797;-6.518194198608398;4.1060333251953125;-30.48004150390625;-5.0465087890625
1445424032078;35.07037353515625;-100.06328582763672;-4.468846321105957;5.3416748046875;-25.419815063476562;-5.870269775390625
1445424032111;26.9102783203125;-95.43853759765625;-4.165444850921631;3.8510589599609375;-21.654052734375;-4.1246795654296875
1445424032144;32.931396484375;-91.98026275634766;-2.9324865341186523;3.1449737548828125;-13.063430786132812;-2.32025146484375
1445424032177;38.93585205078125;-91.06864166259766;-3.341205358505249;0.026458740234375;-6.3164520263671875;-2.1829681396484375
1445424032210;45.361724853515625;-90.37916564941406;-4.422434329986572;-1.522979736328125;-4.8258514404296875;1.1512908935546875
1445424032244;42.531982421875;-90.38883209228516;-4.481029987335205;-0.895355224609375;-4.021697998046875;-1.2807464599609375
1445424032280;39.219970703125;-89.6678237915039;-4.693672180175781;0.6148681640625;-1.7269439697265625;-0.300079345703125
1445424032310;36.968719482421875;-89.85132598876953;-5.422572135925293;0.7129364013671875;-0.4128570556640625;-0.82965087890625
1445424032342;37.714324951171875;-90.44701385498047;-5.789034843444824;1.2817230224609375;1.0777587890625;-1.319976806640625
1445424032380;37.82769775390625;-92.32203674316406;-7.018821716308594;-0.6207733154296875;1.2346649169921875;3.7010345458984375
1445424032409;43.155487060546875;-95.27922821044922;-7.813421249389648;-0.7384490966796875;0.7835540771484375;2.838043212890625
1445424032444;46.173828125;-95.2825698852539;-7.791270732879639;-0.4442596435546875;-0.39324951171875;2.3477020263671875
1445424032474;44.673583984375;-91.23362731933594;-4.869907379150391;4.32177734375;-25.537490844726562;-0.4962158203125
1445424032508;38.441680908203125;-86.1939697265625;-1.2362065315246582;4.9101715087890625;-16.927261352539062;3.8775482177734375
1445424032540;42.375;-84.17715454101562;-2.1979081630706787;2.3408355712890625;-10.474472045898438;-2.908660888671875
1445424032577;51.99462890625;-83.00247955322266;-5.266259670257568;-0.6796112060546875;-8.670059204101562;0.1510162353515625
1445424032606;51.69293212890625;-85.42332458496094;-4.849834442138672;-0.97381591796875;-4.33551025390625;0.13140869140625
1445424032642;48.95892333984375;-85.4886703491211;-4.413943290710449;0.6933135986328125;-2.3349609375;-0.0254974365234375
1445424032675;41.97259521484375;-87.56661224365234;-4.887253761291504;0.9482879638671875;-1.3739013671875;0.58251953125
1445424032705;42.78570556640625;-90.9737319946289;-6.1540117263793945;0.1833648681640625;0.6070404052734375;1.465118408203125
1445424032739;45.791900634765625;-92.64076232910156;-6.321439743041992;-0.032379150390625;0.881622314453125;1.1120758056640625
1445424032771;49.1224365234375;-95.05403137207031;-6.497309684753418;-0.091217041015625;1.0385284423828125;0.504058837890625
1445424032805;49.371307373046875;-95.37007141113281;-6.253809928894043;0.5167999267578125;-0.0009765625;0.994384765625
1445424032836;48.428558349609375;-96.44500732421875;-4.827341079711914;1.36016845703125;-1.687713623046875;-0.2608642578125
1445424032870;40.184967041015625;-96.71597290039062;-5.967362880706787;3.0861358642578125;-23.674224853515625;-4.673858642578125
1445424032903;37.918487548828125;-96.80274200439453;-7.3674798011779785;3.7137603759765625;-30.872314453125;-7.2039642333984375
1445424032936;42.05657958984375;-97.28333282470703;-6.273533821105957;4.4198455810546875;-29.205184936523438;-3.3597564697265625
1445424032969;45.51556396484375;-95.6274642944336;-5.12476110458374;2.7919464111328125;-15.691619873046875;-3.712799072265625
1445424033002;45.592864990234375;-93.47065734863281;-4.842983245849609;2.8311614990234375;-11.670883178710938;-4.0658416748046875
1445424033035;42.5880126953125;-90.21285247802734;-4.230704307556152;0.987518310546875;-4.78662109375;-3.9677734375
1445424033068;41.96649169921875;-89.70763397216797;-3.939164638519287;0.0853118896484375;-1.4131317138671875;-1.96722412109375
1445424033100;42.359588623046875;-89.76240539550781;-3.9190263748168945;-0.6796112060546875;-0.942413330078125;-0.9277191162109375
1445424033134;42.2711181640625;-90.18421173095703;-4.438453197479248;-1.20916748046875;-1.1385498046875;-0.182403564453125
1445424033167;41.8782958984375;-90.65235900878906;-4.37743616104126;1.164031982421875;-0.62860107421875;-1.5553436279296875
1445424033200;42.05853271484375;-90.7864990234375;-4.334356784820557;1.30133056640625;-0.2363433837890625;-2.14373779296875
1445424033233;43.274505615234375;-91.52145385742188;-4.597214221954346;0.6344757080078125;0.2932281494140625;-1.8495330810546875
1445424033265;43.67645263671875;-92.1673812866211;-4.681747913360596;-0.150054931640625;-0.707061767578125;0.8374786376953125
1445424033299;43.666168212890625;-93.0724868774414;-4.499823093414307;-0.777679443359375;-1.88385009765625;2.46539306640625
1445424033332;48.169921875;-92.90953063964844;-3.8109045028686523;1.41900634765625;-11.670883178710938;3.857940673828125
1445424033366;52.175628662109375;-92.42342376708984;-4.165319442749023;5.3024444580078125;-32.81402587890625;-2.02606201171875
1445424033399;47.589202880859375;-89.54312896728516;-5.617329120635986;2.2231597900390625;-32.3629150390625;-7.870819091796875
1445424033431;44.41937255859375;-86.1300277709961;-4.387053966522217;-1.8171844482421875;-24.929473876953125;-2.7909698486328125
1445424033463;48.18157958984375;-85.65081024169922;-3.4971821308135986;0.869842529296875;-18.241348266601562;-0.5550537109375
1445424033497;50.8978271484375;-85.5970687866211;-3.485109806060791;3.439178466796875;-9.278060913085938;1.2885894775390625
1445424033530;50.559600830078125;-86.48429870605469;-4.208536624908447;-0.228515625;-4.2374420166015625;-0.300079345703125
1445424033563;48.286865234375;-87.75605010986328;-5.01889181137085;-0.97381591796875;-3.6882781982421875;-1.2807464599609375
1445424033596;47.28759765625;-88.83467102050781;-4.9084296226501465;-0.660003662109375;-3.5509796142578125;-1.4768829345703125
1445424033629;47.338043212890625;-89.72929382324219;-4.750772476196289;0.1441497802734375;-2.2368927001953125;-0.2608642578125
1445424033663;47.246978759765625;-91.21910095214844;-4.402641773223877;0.4971771240234375;-1.2954559326171875;1.7789306640625
1445424033695;49.38720703125;-91.75493621826172;-4.746673583984375;0.654083251953125;-0.5305328369140625;2.2496490478515625
1445424033728;50.979949951171875;-91.84375;-5.163200855255127;0.3991241455078125;-0.9031829833984375;1.3670501708984375
1445424033761;52.23626708984375;-91.66165924072266;-5.523149013519287;1.438629150390625;-3.98248291015625;1.5435638427734375
1445424033794;51.7252197265625;-90.88823699951172;-5.642061710357666;7.7933349609375;-19.02587890625;1.8966064453125
1445424033827;48.66119384765625;-90.12122344970703;-6.221405029296875;0.1245269775390625;-24.61566162109375;-5.9487152099609375
1445424033860;41.21466064453125;-88.44485473632812;-6.234261989593506;-1.4445343017578125;-25.262908935546875;-8.557281494140625
1445424033892;46.38360595703125;-88.90441131591797;-5.50230073928833;0.5167999267578125;-22.968154907226562;-3.1047821044921875
1445424033926;47.551666259765625;-89.21720123291016;-4.863117694854736;2.49774169921875;-18.967041015625;-1.084625244140625
1445424033959;47.2000732421875;-88.98970794677734;-4.365811824798584;2.9684600830078125;-10.513702392578125;0.0333404541015625
1445424033992;47.20574951171875;-89.5240249633789;-4.9037885665893555;1.3993988037109375;-6.5910491943359375;1.131683349609375
1445424034025;47.67633056640625;-89.78825378417969;-5.1290059089660645;1.18365478515625;-5.3161773681640625;1.3474273681640625
1445424034058;48.5252685546875;-90.15593719482422;-5.108558177947998;-0.6796112060546875;-2.7468414306640625;0.13140869140625
1445424034091;48.419036865234375;-90.03628540039062;-5.017650604248047;0.5167999267578125;-2.531097412109375;-0.692352294921875
1445424034123;48.44195556640625;-89.28386688232422;-4.886302947998047;0.242218017578125;-2.079986572265625;-0.633514404296875
1445424034159;47.95928955078125;-88.45274353027344;-4.558205604553223;-0.6207733154296875;-1.7269439697265625;-0.123565673828125
1445424034191;48.115081787109375;-88.24834442138672;-4.405195713043213;-1.346466064453125;-3.2960052490234375;0.445220947265625
1445424034224;47.943389892578125;-87.43082427978516;-3.5324790477752686;-0.150054931640625;-5.3946380615234375;1.582794189453125
1445424034256;47.533477783203125;-85.82219696044922;-2.8582892417907715;3.380340576171875;-12.867294311523438;2.2300262451171875
1445424034291;48.49664306640625;-85.14248657226562;-3.1226227283477783;2.5369720458984375;-19.967315673828125;-1.319976806640625
1445424034328;51.59454345703125;-83.45339965820312;-3.497469663619995;0.1833648681640625;-23.223129272460938;-4.222747802734375
1445424034356;50.6734619140625;-82.56546020507812;-3.317748785018921;-0.091217041015625;-24.851028442382812;-4.8896026611328125
1445424034393;50.2818603515625;-82.96379089355469;-3.8613526821136475;1.75244140625;-18.378631591796875;-0.3197021484375
1445424034421;53.2730712890625;-85.56228637695312;-5.693082809448242;1.3405609130859375;-14.063705444335938;0.4256134033203125
1445424034454;53.28369140625;-86.45431518554688;-6.165745735168457;0.04608154296875;-9.023101806640625;-0.810028076171875
1445424034486;53.14013671875;-87.03650665283203;-6.269073963165283;0.10491943359375;-8.179718017578125;-1.5553436279296875
1445424034520;53.348419189453125;-87.49433135986328;-6.370596885681152;0.5167999267578125;-7.1009979248046875;-0.2804718017578125
1445424034553;53.8848876953125;-88.42893981933594;-6.740861892700195;0.987518310546875;-3.0018157958984375;1.6220245361328125
1445424034586;54.213836669921875;-90.38129425048828;-7.158689022064209;-0.326568603515625;-1.2169952392578125;2.269256591796875
1445424034619;53.815521240234375;-91.22021484375;-6.440026760101318;-0.836517333984375;0.430511474609375;1.9554443359375
1445424034652;54.13983154296875;-91.52490997314453;-5.70719575881958;-0.3854217529296875;-0.2755584716796875;1.249359130859375
1445424034685;53.950653076171875;-91.88528442382812;-4.750194549560547;0.536407470703125;-3.099884033203125;-0.6727447509765625
1445424034718;52.840301513671875;-92.45330810546875;-4.718575954437256;-0.1696624755859375;-8.081649780273438;2.7399749755859375
1445424034751;55.2225341796875;-94.98065185546875;-3.9333832263946533;3.7137603759765625;-15.201278686523438;4.034454345703125
1445424034784;57.294952392578125;-94.89250183105469;-5.32541561126709;3.4195709228515625;-19.751571655273438;0.2294769287109375
1445424034818;56.16259765625;-94.1772689819336;-6.643590927124023;2.360443115234375;-24.007659912109375;-0.7119598388671875
1445424034850;57;-92.8689193725586;-6.5560832023620605;2.8507843017578125;-23.968429565429688;-2.006439208984375
1445424034883;58.16162109375;-90.35363006591797;-5.59517240524292;1.8308868408203125;-16.613449096679688;-2.8694305419921875
1445424034916;59.06500244140625;-89.66227722167969;-5.318428993225098;3.380340576171875;-9.709564208984375;-2.3006439208984375
1445424034949;60.19012451171875;-88.98104095458984;-5.9880876541137695;1.8308868408203125;-7.885528564453125;-1.888763427734375
1445424034982;59.64453125;-88.92161560058594;-6.8164849281311035;-0.8757476806640625;-5.9045867919921875;-0.810028076171875
1445424035017;58.88006591796875;-89.19603729248047;-6.7769455909729;-1.797576904296875;-4.15899658203125;-0.574676513671875
1445424035048;56.77288818359375;-90.22158813476562;-6.016482830047607;-1.6602783203125;-3.8647918701171875;-0.9865570068359375
1445424035081;55.76995849609375;-90.40110778808594;-5.57279634475708;-1.228790283203125;-3.217559814453125;-1.9868316650390625
1445424035115;55.0615234375;-90.78023529052734;-5.098370552062988;2.2623748779296875;-4.8258514404296875;0.621734619140625
1445424035148;55.82843017578125;-92.44670104980469;-5.346271514892578;4.262939453125;-9.081939697265625;-0.5942840576171875
1445424035180;54.64501953125;-93.78734588623047;-5.971100330352783;2.61541748046875;-14.12255859375;-0.94732666015625
1445424035213;54.48602294921875;-95.24451446533203;-6.162614345550537;1.9681854248046875;-14.455978393554688;-2.065277099609375
1445424035246;56.285247802734375;-100.03245544433594;-5.903628826141357;-1.7583465576171875;-16.633056640625;-3.51666259765625
1445424035280;54.911529541015625;-101.57144927978516;-6.254462718963623;-2.1309967041015625;-19.182785034179688;-3.7324066162109375
1445424035312;53.118804931640625;-102.07135009765625;-5.93319845199585;0.1441497802734375;-18.241348266601562;-3.9285430908203125
1445424035345;52.91424560546875;-99.86833190917969;-5.205013751983643;4.4786834716796875;-13.573379516601562;-3.8108673095703125
1445424035381;53.061981201171875;-98.91170501708984;-5.3049702644348145;3.2038116455078125;-8.513153076171875;-3.6735687255859375
1445424035411;54.076904296875;-98.1343994140625;-6.182042598724365;2.242767333984375;-7.23828125;-3.22247314453125
1445424035444;55.816986083984375;-99.16840362548828;-7.013881206512451;-0.6207733154296875;-6.1987762451171875;-1.437652587890625
1445424035477;55.81365966796875;-99.91118621826172;-7.143993854522705;-1.4445343017578125;-5.610382080078125;-0.8492584228515625
1445424035509;54.495330810546875;-101.4708251953125;-7.352082252502441;-1.0522613525390625;-3.7667236328125;-1.2807464599609375
1445424035544;53.4034423828125;-103.1440200805664;-7.722587585449219;0.28143310546875;-2.1780548095703125;-0.6138916015625
1445424035582;53.67230224609375;-104.0512466430664;-7.735656261444092;1.3797760009765625;-1.903472900390625;0.36676025390625
1445424035630;55.678924560546875;-106.2236099243164;-7.220845699310303;0.595245361328125;-2.256500244140625;3.5048980712890625
1445424035642;55.678924560546875;-106.2236099243164;-7.220845699310303;1.36016845703125;-4.8062286376953125;3.347991943359375
1445424035685;56.94384765625;-107.95166778564453;-6.3072967529296875;4.459075927734375;-16.711502075195312;-1.437652587890625
1445424035723;53.410186767578125;-108.29138946533203;-7.928564548492432;4.066802978515625;-22.928924560546875;-8.557281494140625
1445424035745;44.889892578125;-107.9300765991211;-11.903938293457031;5.1847686767578125;-23.007369995117188;-8.87109375
1445424035785;44.8914794921875;-107.7369384765625;-12.098481178283691;3.1842041015625;-20.477264404296875;-5.6349029541015625
1445424035826;43.0374755859375;-105.74847412109375;-12.120097160339355;1.8897247314453125;-14.612884521484375;-4.399261474609375
1445424035842;43.0374755859375;-105.74847412109375;-12.120097160339355;1.24249267578125;-11.670883178710938;-3.7520294189453125
1445424035885;42.076507568359375;-100.96302032470703;-10.161652565002441;0.6148681640625;-5.7672882080078125;-2.634063720703125
1445424035907;42.38995361328125;-99.67679595947266;-9.404211044311523;0.9678955078125;-3.2371673583984375;-2.2418060302734375
1445424035952;40.647705078125;-97.52600860595703;-8.377623558044434;0.4971771240234375;-0.883575439453125;-2.5359954833984375
1445424035980;39.383453369140625;-96.90914154052734;-7.917487144470215;1.3797760009765625;-1.8446197509765625;-4.105072021484375
1445424036021;37.162261962890625;-96.17769622802734;-7.076167106628418;-0.1108245849609375;-0.6089935302734375;0.2098541259765625
1445424036038;36.95452880859375;-96.21820068359375;-6.629732608795166;-0.1108245849609375;-0.6089935302734375;0.2098541259765625
1445424036087;39.645477294921875;-95.65332794189453;-4.591087818145752;0.5560302734375;-1.0797119140625;1.4062652587890625
1445424036104;39.645477294921875;-95.65332794189453;-4.591087818145752;1.615142822265625;-3.2567901611328125;0.876708984375
1445424036138;38.176239013671875;-95.9042739868164;-3.9097189903259277;3.0076904296875;-9.709564208984375;-1.06500244140625
1445424036170;32.6214599609375;-99.32347106933594;-6.824604034423828;6.6165313720703125;-19.869247436523438;-4.791534423828125
1445424036206;28.35504150390625;-106.49039459228516;-12.880884170532227;8.970123291015625;-23.556549072265625;-6.223297119140625
1445424036236;29.02239990234375;-109.76962280273438;-14.44384765625;6.08697509765625;-16.966476440429688;-5.0661163330078125
1445424036284;31.245208740234375;-112.82661437988281;-15.247780799865723;3.63531494140625;-13.024200439453125;-2.634063720703125
1445424036303;31.66680908203125;-113.00403594970703;-15.352974891662598;3.63531494140625;-13.024200439453125;-2.634063720703125
1445424036365;32.56884765625;-107.42992401123047;-12.560511589050293;-0.1108245849609375;-9.611495971679688;-1.9279937744140625
1445424036368;32.56884765625;-107.42992401123047;-12.560511589050293;-1.915252685546875;-7.4540252685546875;-1.3395843505859375
1445424036401;29.8486328125;-101.63658142089844;-9.611032485961914;-2.5624847412109375;-5.7476806640625;-0.2020263671875
1445424036434;23.569915771484375;-95.55445098876953;-6.2355217933654785;-1.6406707763671875;-3.8647918701171875;2.4261627197265625
1445424036467;21.009979248046875;-92.55671691894531;-4.407529830932617;1.732818603515625;-3.4333038330078125;-0.515838623046875
1445424036500;21.94866943359375;-88.31024169921875;-0.26074764132499695;4.2237091064453125;-4.531646728515625;-3.144012451171875
1445424036533;25.915985107421875;-84.5386734008789;4.127753257751465;10.93145751953125;-4.15899658203125;-0.9277191162109375
1445424036567;28.990478515625;-83.34945678710938;4.152379989624023;3.9883575439453125;-5.610382080078125;-2.281036376953125
1445424036599;34.37799072265625;-84.4894027709961;2.3698976039886475;1.2817230224609375;-9.474197387695312;-2.398712158203125
1445424036633;38.118988037109375;-87.64854431152344;0.7844051718711853;-4.7787933349609375;-12.161224365234375;0.562896728515625
1445424036666;41.635467529296875;-88.9695053100586;0.5058879256248474;-6.524383544921875;-15.6131591796875;3.406829833984375
1445424036699;41.97796630859375;-90.9256362915039;1.6843043565750122;-5.308349609375;-29.303253173828125;-7.6746826171875
1445424036731;39.15167236328125;-91.94133758544922;1.7512104511260986;-3.36663818359375;-14.828628540039062;-1.6141815185546875
1445424036765;42.203216552734375;-92.84092712402344;2.066335916519165;-2.8959197998046875;-14.4755859375;-1.6533966064453125
1445424036797;44.567047119140625;-93.6192855834961;2.8697493076324463;-5.58294677734375;-13.1026611328125;-1.457275390625
1445424036830;43.350067138671875;-93.2284164428711;3.0126185417175293;-1.8956451416015625;-10.8275146484375;-2.7125244140625
1445424036863;41.719482421875;-92.13209533691406;2.2191572189331055;-1.3072357177734375;-9.356521606445312;-2.6732940673828125
1445424036897;40.786895751953125;-91.44830322265625;1.1804084777832031;-2.1898345947265625;-7.042144775390625;-2.1045074462890625
1445424036928;40.67230224609375;-91.25807189941406;0.8397096395492554;-1.6210479736328125;-5.7476806640625;-1.1630706787109375
1445424036962;40.51702880859375;-91.54175567626953;0.5094107985496521;-0.954193115234375;-5.6888275146484375;-1.7318572998046875
1445424036996;36.636505126953125;-92.53684997558594;0.06325098127126694;-0.640380859375;-6.3360748291015625;-4.2619781494140625
1445424037029;33.5185546875;-93.6202392578125;-0.6088083982467651;0.4383392333984375;-6.49298095703125;-4.1246795654296875
1445424037061;30.595672607421875;-98.45882415771484;-2.9779582023620605;0.1441497802734375;-5.7672882080078125;0.0921783447265625
1445424037094;25.39483642578125;-105.05868530273438;-6.8724846839904785;2.0270233154296875;-9.827239990234375;0.955169677734375
1445424037128;21.454559326171875;-108.105224609375;-9.4243745803833;2.419281005859375;-13.828353881835938;-0.82965087890625
1445424037160;16.490478515625;-114.28372192382812;-13.50717830657959;1.75244140625;-13.808746337890625;-0.751190185546875
1445424037194;15.81988525390625;-120.30562591552734;-16.77960968017578;4.9690093994140625;-10.435256958007812;-7.066680908203125
1445424037227;17.918975830078125;-123.02603149414062;-17.3612060546875;7.7933349609375;-8.160110473632812;-8.36114501953125
1445424037259;19.990264892578125;-124.63943481445312;-16.459318161010742;6.008514404296875;-9.00347900390625;-5.8310394287109375
1445424037293;18.78338623046875;-121.4561538696289;-14.502872467041016;1.98779296875;-9.00347900390625;-3.771636962890625
1445424037325;17.62860107421875;-119.11878204345703;-13.769797325134277;2.360443115234375;-6.9636993408203125;-3.51666259765625
1445424037358;16.200531005859375;-114.38258361816406;-11.451129913330078;0.3991241455078125;-5.551544189453125;-2.575225830078125
1445424037395;16.9937744140625;-109.4617919921875;-8.054825782775879;-1.9544830322265625;-5.1396636962890625;0.24908447265625
1445424037426;17.9786376953125;-107.11784362792969;-6.1634345054626465;-2.6409454345703125;-5.6299896240234375;1.3474273681640625
1445424037457;20.1234130859375;-101.92298126220703;-1.9518085718154907;-2.5232696533203125;-5.845733642578125;1.072845458984375
1445424037491;20.3995361328125;-98.98677062988281;0.08726082742214203;-0.2481231689453125;-4.923919677734375;1.21014404296875
1445424037526;21.159759521484375;-93.49615478515625;4.493587017059326;1.30133056640625;-6.5322113037109375;-0.0254974365234375
1445424037556;24.467193603515625;-90.67340087890625;6.702742576599121;8.401336669921875;-11.27862548828125;-5.67413330078125
1445424037590;31.796905517578125;-85.57695007324219;8.315800666809082;4.380615234375;-14.299072265625;-5.419158935546875
1445424037623;34.93902587890625;-85.95970153808594;6.169464588165283;-5.386810302734375;-16.083877563476562;-5.2034149169921875
1445424037655;35.98779296875;-87.66468048095703;5.729413032531738;-6.700897216796875;-15.3778076171875;-1.574951171875
1445424037688;36.25555419921875;-92.0109634399414;7.444954872131348;-6.700897216796875;-16.103500366210938;1.38665771484375
1445424037721;34.58001708984375;-93.40416717529297;8.458309173583984;-1.3072357177734375;-18.672836303710938;-0.005889892578125
1445424037755;33.877227783203125;-92.60009002685547;8.231024742126465;-1.1307220458984375;-14.730560302734375;-1.888763427734375
1445424037787;31.70751953125;-91.18839263916016;7.2826247215271;-3.6412200927734375;-12.239669799804688;-1.2219085693359375
1445424037820;26.9005126953125;-90.51155090332031;6.841331958770752;-5.7790679931640625;-7.4736480712890625;-2.3006439208984375
1445424037853;23.44622802734375;-89.92019653320312;6.840823650360107;-5.3475799560546875;-6.179168701171875;-3.085174560546875
1445424037886;15.5902099609375;-88.97962188720703;6.445696830749512;-4.876861572265625;-5.8653564453125;-3.1047821044921875
1445424037918;11.051971435546875;-89.0419921875;6.146517753601074;-4.73956298828125;-5.8653564453125;-2.634063720703125
1445424037952;0.60711669921875;-89.88961791992188;5.2555060386657715;-5.053375244140625;-5.41424560546875;-2.6536865234375
1445424037985;347.3980712890625;-91.4044189453125;3.315979480743408;-5.58294677734375;-4.6689453125;-2.1829681396484375
1445424038018;340.26287841796875;-92.72882843017578;1.906461238861084;-6.132110595703125;-3.6098175048828125;-0.182403564453125
1445424038051;326.7966003417969;-96.90725708007812;-0.22393003106117249;-5.4064178466796875;-5.17889404296875;0.955169677734375
1445424038083;315.9745178222656;-103.1325912475586;-0.40491917729377747;-4.935699462890625;-10.19989013671875;5.0739593505859375
1445424038117;311.8228759765625;-105.4873275756836;0.12830008566379547;-0.91497802734375;-17.241073608398438;1.9750518798828125
1445424038150;304.2837219238281;-108.5915756225586;-1.1358307600021362;2.5173492431640625;-23.262344360351562;0.13140869140625
1445424038183;298.6990966796875;-111.90967559814453;-5.185366153717041;6.6753692626953125;-23.478103637695312;-2.339874267578125
1445424038216;297.4660339355469;-113.9345932006836;-5.268119812011719;4.5375213623046875;-22.085556030273438;-3.026336669921875
1445424038249;296.33917236328125;-116.17597961425781;-4.838968276977539;2.8507843017578125;-16.436920166015625;-0.94732666015625
1445424038289;295.5826416015625;-116.58391571044922;-4.992863655090332;2.7919464111328125;-9.611495971679688;0.01373291015625
1445424038315;295.86639404296875;-116.18890380859375;-5.06660795211792;2.5958099365234375;-6.6498870849609375;0.5236663818359375
1445424038348;299.242431640625;-114.0461654663086;-4.203696250915527;2.183929443359375;-2.884124755859375;0.8374786376953125
1445424038390;306.47314453125;-111.25138092041016;-1.4889609813690186;0.6933135986328125;-2.138824462890625;0.386383056640625
1445424038414;309.0504150390625;-110.16949462890625;0.8653085827827454;-2.5624847412109375;-2.5507049560546875;-7.5766143798828125
1445424038447;312.97747802734375;-108.62149047851562;6.83774471282959;-1.3660736083984375;1.76422119140625;-7.4393310546875
1445424038480;313.52490234375;-108.352294921875;9.438111305236816;-2.542877197265625;1.5484771728515625;-4.3796539306640625
1445424038513;311.6878356933594;-109.33440399169922;12.205750465393066;-2.5624847412109375;-2.531097412109375;-7.0078277587890625
1445424038546;310.79071044921875;-110.66789245605469;11.389193534851074;-1.8171844482421875;-17.633331298828125;-4.77191162109375
1445424038578;310.30609130859375;-112.35257720947266;9.576225280761719;0.1245269775390625;-17.358749389648438;-4.2619781494140625
1445424038612;310.7633972167969;-116.13292694091797;5.670724391937256;-0.4442596435546875;-18.025604248046875;-0.182403564453125
1445424038645;312.3704528808594;-116.98846435546875;5.8401079177856445;-3.7196807861328125;-20.830307006835938;0.876708984375
1445424038678;312.8778076171875;-116.2816390991211;7.295522212982178;-1.4445343017578125;-21.948257446289062;-0.123565673828125
1445424038712;314.9525146484375;-114.05783081054688;9.26867961883545;5.6750946044921875;-19.084716796875;-2.2418060302734375
1445424038744;315.57244873046875;-113.48063659667969;9.323019027709961;3.81182861328125;-15.358184814453125;-0.692352294921875
1445424038777;316.388916015625;-112.07940673828125;8.020628929138184;1.3209381103515625;-13.691055297851562;-0.0254974365234375
1445424038809;315.86285400390625;-110.82476043701172;6.842539310455322;-0.032379150390625;-9.788009643554688;-0.0254974365234375
1445424038844;316.2890625;-110.53031921386719;6.484869003295898;5.1847686767578125;-5.7672882080078125;-1.51611328125
1445424038876;316.14105224609375;-111.870361328125;4.071804523468018;5.380889892578125;-4.904296875;-4.47772216796875
1445424038910;313.6044921875;-116.52632904052734;1.0334362983703613;-1.3268585205078125;-2.825286865234375;-1.2415313720703125
1445424038942;314.2198486328125;-119.41454315185547;0.2786574363708496;-1.4249267578125;-2.648773193359375;0.7394256591796875
1445424038977;314.4039306640625;-125.10887908935547;-3.9958972930908203;-1.03265380859375;-3.4725341796875;1.014007568359375
1445424039009;315.27801513671875;-127.69953155517578;-6.602067947387695;3.1449737548828125;-5.3161773681640625;-1.12384033203125
1445424039045;320.4741516113281;-132.0574188232422;-10.632083892822266;4.2825469970703125;-8.964248657226562;-3.1832427978515625
1445424039077;330.39471435546875;-135.51223754882812;-11.439322471618652;5.1651458740234375;-10.572540283203125;-3.4185943603515625
1445424039106;336.5968017578125;-136.46151733398438;-11.321989059448242;6.1850433349609375;-12.65155029296875;-5.3799285888671875
1445424039140;348.03509521484375;-135.7032012939453;-11.230528831481934;3.6549224853515625;-14.612884521484375;-7.2628021240234375
1445424039174;359.2687072753906;-131.612060546875;-11.166160583496094;3.3999481201171875;-16.378082275390625;-5.7525787353515625
1445424039206;4.977783203125;-128.83888244628906;-11.570255279541016;1.928955078125;-16.103500366210938;-3.4185943603515625
1445424039246;15.6285400390625;-123.7552490234375;-13.019490242004395;-1.6014404296875;-15.240509033203125;-3.0067291259765625
1445424039275;24.811492919921875;-118.58831024169922;-14.010700225830078;-1.738739013671875;-12.671173095703125;-2.6144561767578125
1445424039306;28.606903076171875;-116.01016235351562;-14.505905151367188;-0.777679443359375;-8.081649780273438;-0.9277191162109375
1445424039342;36.484344482421875;-111.7461166381836;-15.101993560791016;-1.287628173828125;-6.747955322265625;-0.1627960205078125
1445424039373;44.16900634765625;-108.39774322509766;-14.812564849853516;-2.8370819091796875;-5.1200408935546875;0.7982635498046875
1445424039404;47.64129638671875;-106.96106719970703;-14.225767135620117;-3.24896240234375;-5.0612030029296875;0.1510162353515625
1445424039437;54.20709228515625;-104.18626403808594;-11.678279876708984;-6.190948486328125;-5.6888275146484375;-5.2818603515625
1445424039470;58.3165283203125;-102.91130828857422;-9.438232421875;-5.75946044921875;-4.10015869140625;-1.947601318359375
1445424039503;68.55538940429688;-101.1656494140625;-5.102856159210205;-3.111663818359375;-9.827239990234375;-4.1835174560546875
1445424039536;72.67813110351562;-100.20346069335938;-2.1855006217956543;-5.58294677734375;-15.10321044921875;-2.4967803955078125
1445424039569;74.79769897460938;-100.54076385498047;-1.17490553855896;-0.4638671875;-16.966476440429688;-3.45782470703125
1445424039602;79.47366333007812;-102.5121841430664;-1.6574312448501587;0.536407470703125;-13.946029663085938;-2.6732940673828125
1445424039635;83.64678955078125;-103.5745620727539;-2.1851282119750977;-4.190399169921875;-17.849075317382812;-1.1042327880859375
1445424039668;83.96792602539062;-103.04540252685547;-1.840167760848999;-4.73956298828125;-14.887466430664062;-2.4771575927734375
1445424039701;83.03829956054688;-99.57705688476562;-0.8567545413970947;-2.28790283203125;-12.9849853515625;-3.28131103515625
1445424039734;82.23226928710938;-97.36219024658203;-0.707902193069458;-1.111114501953125;-10.415634155273438;-4.47772216796875
1445424039767;82.71768188476562;-93.93341827392578;-0.6830999255180359;-0.836517333984375;-8.473922729492188;-4.6150054931640625
1445424039799;83.32635498046875;-91.4026107788086;-1.0722776651382446;-1.5426025390625;-5.29656982421875;-3.477447509765625
1445424039834;82.86636352539062;-90.24400329589844;-1.130660891532898;-0.9345855712890625;-5.492706298828125;-4.71307373046875
1445424039866;84.42144775390625;-88.23994445800781;-0.8395047187805176;-0.326568603515625;-5.7476806640625;-5.73297119140625
1445424039899;84.45208740234375;-89.11055755615234;-1.0179243087768555;-1.346466064453125;-5.9045867919921875;-4.026611328125
1445424039932;83.05105590820312;-91.24925994873047;-0.9782996773719788;1.3209381103515625;-6.5125885009765625;-1.202301025390625
1445424039966;81.30450439453125;-96.34425354003906;-0.888723611831665;4.32177734375;-8.473922729492188;-1.319976806640625
1445424039998;81.38015747070312;-103.05362701416016;-2.306199073791504;8.009078979492188;-13.338027954101562;-0.005889892578125
1445424040031;77.46603393554688;-106.76935577392578;-4.616657257080078;5.832000732421875;-15.789688110351562;1.3474273681640625
1445424040065;68.388671875;-112.63758087158203;-9.707321166992188;-3.680450439453125;-16.319244384765625;-1.7906951904296875
1445424040097;67.03643798828125;-114.76427459716797;-11.045034408569336;1.732818603515625;-11.729736328125;-4.399261474609375
1445424040130;66.3114013671875;-116.72518920898438;-11.549410820007324;2.5958099365234375;-11.33746337890625;-4.0658416748046875
1445424040163;64.655029296875;-114.94607543945312;-9.654844284057617;1.2621002197265625;-10.5921630859375;-1.9868316650390625
1445424040196;63.206207275390625;-112.77827453613281;-8.279970169067383;-0.4246368408203125;-10.101821899414062;-0.5354461669921875
1445424040229;58.54241943359375;-107.36083984375;-5.331887722015381;-1.09149169921875;-9.3369140625;-0.1431732177734375
1445424040262;51.535400390625;-101.82069396972656;-1.9949564933776855;-0.7972869873046875;-6.8460235595703125;1.4258880615234375
1445424040296;47.396759033203125;-99.00968933105469;-0.1837545931339264;0.7717742919921875;-5.23773193359375;0.6609649658203125
1445424040329;40.814788818359375;-93.63970947265625;3.7301487922668457;1.6347503662109375;-4.5708770751953125;-0.3393096923828125
1445424040361;42.408477783203125;-88.48828887939453;6.520777225494385;6.5576934814453125;-3.5706024169921875;0.58251953125
1445424040395;43.9376220703125;-87.09806060791016;6.8011627197265625;5.5377960205078125;-6.6498870849609375;-2.7909698486328125
1445424040427;43.822357177734375;-87.49435424804688;6.115001678466797;3.4587860107421875;-11.553207397460938;-1.9868316650390625
1445424040460;44.571075439453125;-88.6497573852539;5.586959362030029;-1.7191162109375;-15.730850219726562;-2.37908935546875
1445424040499;45.097991943359375;-91.16190338134766;7.92855167388916;-7.58349609375;-21.497146606445312;-3.85009765625
1445424040527;43.115478515625;-92.5529556274414;8.946975708007812;-9.28985595703125;-18.104049682617188;-2.2418060302734375
1445424040559;44.14404296875;-93.34119415283203;9.339630126953125;0.536407470703125;-16.260406494140625;0.7001953125
1445424040592;45.15814208984375;-92.94599914550781;8.612844467163086;0.2029876708984375;-14.318679809570312;2.3673248291015625
1445424040626;43.6737060546875;-91.42608642578125;7.967562198638916;-1.228790283203125;-11.984695434570312;0.9747772216796875
1445424040659;42.712890625;-90.46290588378906;7.5265116691589355;-0.9345855712890625;-9.395751953125;0.4256134033203125
1445424040691;41.218414306640625;-88.53713989257812;6.294472694396973;-1.522979736328125;-8.120880126953125;0.935546875
1445424040724;38.85980224609375;-87.272705078125;5.3195695877075195;-1.3072357177734375;-5.786895751953125;0.4844512939453125
1445424040759;37.61395263671875;-86.7792739868164;4.889123439788818;-0.7580718994140625;-5.159271240234375;0.4256134033203125
1445424040790;34.544708251953125;-86.68785095214844;3.752981424331665;-0.5030975341796875;-5.2573394775390625;-0.064727783203125
1445424040825;30.113677978515625;-88.25267791748047;1.9901179075241089;-0.601165771484375;-6.120330810546875;-1.4768829345703125
1445424040857;27.07879638671875;-89.57571411132812;1.0397288799285889;-0.4442596435546875;-4.472808837890625;-3.908935546875
1445424040889;19.959808349609375;-91.67485046386719;-1.0355770587921143;0.654083251953125;-4.5120391845703125;-4.1835174560546875
1445424040926;19.9537353515625;-93.48967742919922;-2.7687554359436035;-1.9936981201171875;-9.219223022460938;-8.204238891601562
1445424040955;20.57623291015625;-95.3359375;-3.6489932537078857;-1.6602783203125;-13.416473388671875;-10.263641357421875
1445424040990;20.222015380859375;-102.58003234863281;-5.4525909423828125;2.9096221923828125;-17.123382568359375;-9.910598754882812
1445424041022;20.3536376953125;-106.84648132324219;-6.4323859214782715;6.596923828125;-15.4366455078125;-7.3804931640625
1445424041054;20.14581298828125;-114.25332641601562;-7.481471538543701;6.5576934814453125;-13.181106567382812;-5.419158935546875
1445424041088;17.66156005859375;-118.60623168945312;-7.867138385772705;3.890289306640625;-10.239120483398438;-2.5948486328125
1445424041120;16.78802490234375;-119.71416473388672;-8.26876449584961;4.125640869140625;-11.768951416015625;-4.4384918212890625
1445424041153;14.53558349609375;-120.08503723144531;-9.85061264038086;4.71405029296875;-11.023651123046875;-3.771636962890625
1445424041186;14.243804931640625;-119.283935546875;-10.695565223693848;4.635589599609375;-7.35595703125;-1.8691558837890625
1445424041219;15.4427490234375;-118.5344009399414;-10.725210189819336;2.693878173828125;-4.7670135498046875;-2.692901611328125
1445424041252;19.42803955078125;-116.12418365478516;-9.670159339904785;1.4582366943359375;-4.10015869140625;-2.26141357421875
1445424041285;23.887237548828125;-112.311767578125;-7.789424896240234;0.8109893798828125;-4.04132080078125;-3.0459442138671875
1445424041317;25.4769287109375;-110.34626007080078;-6.465608596801758;0.1441497802734375;-5.8065185546875;-2.5556182861328125
1445424041350;27.67144775390625;-105.77559661865234;-2.1018404960632324;-1.797576904296875;-6.0222625732421875;-0.9277191162109375
1445424041385;30.36260986328125;-101.31779479980469;4.108987331390381;-1.522979736328125;-4.2374420166015625;1.190521240234375
1445424041416;32.398681640625;-99.86119079589844;6.036892890930176;2.4585113525390625;-4.610107421875;-2.2418060302734375
1445424041451;31.545135498046875;-98.8611831665039;5.496187686920166;0.6344757080078125;-6.7675628662109375;1.6808624267578125
1445424041483;31.5740966796875;-98.22116088867188;5.187543869018555;-2.5232696533203125;-13.396865844726562;2.0731201171875
1445424041516;30.733062744140625;-96.18405151367188;4.953530788421631;-1.9544830322265625;-17.43719482421875;-2.2418060302734375
1445424041549;30.325927734375;-97.55178833007812;5.7607741355896;-1.03265380859375;-19.65350341796875;-1.084625244140625
1445424041582;31.501861572265625;-97.31153106689453;6.438175678253174;-2.8959197998046875;-15.6131591796875;2.40655517578125
1445424041615;31.01715087890625;-95.52010345458984;6.949196815490723;-2.719390869140625;-15.809295654296875;2.720367431640625
1445424041649;32.29803466796875;-94.23837280273438;7.504208087921143;-0.5030975341796875;-15.10321044921875;-0.6727447509765625
1445424041682;33.585906982421875;-93.135498046875;7.4882426261901855;0.242218017578125;-12.435806274414062;-0.6727447509765625
1445424041715;34.4454345703125;-91.61772155761719;6.851574420928955;-0.6207733154296875;-8.3170166015625;-0.9669342041015625
1445424041747;32.214019775390625;-91.67151641845703;5.760314464569092;-0.836517333984375;-4.590484619140625;-1.12384033203125
1445424041780;30.6798095703125;-92.05351257324219;5.049158573150635;-1.3660736083984375;-3.4136962890625;-3.1244049072265625
1445424041813;26.4857177734375;-93.43938446044922;4.038239479064941;-0.542327880859375;-3.158721923828125;-6.2036895751953125
1445424041846;26.29681396484375;-94.79885864257812;3.6119463443756104;3.498016357421875;-4.355133056640625;-4.36004638671875
1445424041879;29.79534912109375;-98.67340850830078;1.758973240852356;2.125091552734375;-5.17889404296875;-4.458099365234375
1445424041912;30.292449951171875;-105.15440368652344;-1.2662228345870972;-0.150054931640625;-8.76812744140625;-4.5757904052734375
1445424041945;28.737030029296875;-109.13951110839844;-2.921257734298706;-2.11138916015625;-15.5543212890625;-1.888763427734375
1445424041977;23.012603759765625;-116.2172622680664;-7.8061065673828125;0.4383392333984375;-18.731674194335938;-2.8890380859375
1445424042011;21.102447509765625;-122.39109802246094;-12.90997314453125;4.459075927734375;-17.8294677734375;-5.73297119140625
1445424042049;19.962554931640625;-126.00773620605469;-15.333100318908691;5.2828216552734375;-15.162063598632812;-5.2230224609375
1445424042077;19.222991943359375;-126.3521957397461;-15.875029563903809;5.263214111328125;-12.828079223632812;-3.771636962890625
1445424042110;19.031219482421875;-125.79527282714844;-15.886441230773926;5.322052001953125;-8.689666748046875;-1.457275390625
1445424042143;19.88275146484375;-123.30970001220703;-15.188207626342773;4.71405029296875;-6.9048614501953125;-1.261138916015625
1445424042176;23.688018798828125;-120.53775024414062;-13.51874828338623;2.5173492431640625;-3.904022216796875;-1.3592071533203125
1445424042209;26.315948486328125;-118.7969970703125;-12.580792427062988;-0.1304473876953125;-2.648773193359375;0.445220947265625
1445424042242;30.89581298828125;-115.6075439453125;-10.996400833129883;-0.6796112060546875;-2.138824462890625;0.955169677734375
1445424042276;33.240081787109375;-112.25911712646484;-8.735344886779785;-1.5818328857421875;-1.2366180419921875;1.876983642578125
1445424042308;34.4990234375;-109.95320129394531;-6.949018955230713;-1.6014404296875;-1.1581573486328125;2.386932373046875
1445424042341;39.910400390625;-103.45399475097656;-3.410426378250122;1.438629150390625;-3.4725341796875;-0.2608642578125
1445424042375;44.461517333984375;-98.21033477783203;-4.46514368057251;7.6364288330078125;-16.06427001953125;-6.4586639404296875
1445424042407;44.65020751953125;-97.88786315917969;-5.741811275482178;-2.3271331787109375;-16.554595947265625;-4.53656005859375
1445424042440;51.908599853515625;-98.59751892089844;-4.6139421463012695;-6.1125030517578125;-19.084716796875;-1.1630706787109375
1445424042474;52.81585693359375;-98.34025573730469;-2.486180067062378;-5.4064178466796875;-18.39825439453125;-2.7713623046875
1445424042507;50.17120361328125;-98.40734100341797;-2.746244430541992;-4.308074951171875;-17.7706298828125;-3.28131103515625
1445424042543;48.56707763671875;-98.55879974365234;-2.89182186126709;-3.7196807861328125;-14.554046630859375;-0.574676513671875
1445424042572;48.050537109375;-98.3668441772461;-2.3211047649383545;-3.3862457275390625;-12.396575927734375;0.7786407470703125
1445424042606;46.047149658203125;-96.70366668701172;-0.510286808013916;-2.935150146484375;-11.533599853515625;-1.2219085693359375
1445424042639;42.33837890625;-93.84822845458984;0.8620655536651611;-2.150604248046875;-10.239120483398438;-3.3793792724609375
1445424042671;40.696563720703125;-92.98555755615234;1.1805895566940308;0.16375732421875;-7.9639739990234375;-3.3597564697265625
1445424042704;39.613037109375;-92.67619323730469;1.237540364265442;1.2032623291015625;-6.944091796875;-3.3793792724609375
1445424042737;38.1785888671875;-93.82244873046875;0.4507408142089844;1.222869873046875;-5.7672882080078125;-3.6735687255859375
1445424042770;36.993621826171875;-94.87696838378906;-0.08878395706415176;0.9678955078125;-3.8059539794921875;-2.967498779296875
1445424042804;36.6669921875;-97.9188003540039;-1.2458785772323608;1.2032623291015625;-3.3156280517578125;-3.3205413818359375
1445424042836;32.8216552734375;-102.13957977294922;-3.1680333614349365;0.3206634521484375;-4.27667236328125;-1.75146484375
1445424042869;28.70849609375;-104.77019500732422;-4.458885669708252;-2.366363525390625;-6.983306884765625;-3.8697052001953125
1445424042902;19.779937744140625;-108.7740478515625;-6.4768853187561035;-4.249237060546875;-13.867584228515625;-3.34014892578125
1445424042934;16.72808837890625;-110.21403503417969;-7.846839427947998;6.008514404296875;-20.418426513671875;-4.47772216796875
1445424042968;16.344757080078125;-113.34679412841797;-11.5643310546875;10.460739135742188;-16.417312622070312;-4.673858642578125
1445424043001;16.148193359375;-116.62261199951172;-11.96017074584961;3.7137603759765625;-13.691055297851562;-6.87054443359375
1445424043035;10.047607421875;-118.45630645751953;-12.921453475952148;0.9090576171875;-14.652114868164062;-6.360595703125
1445424043067;7.251190185546875;-118.70991516113281;-13.309786796569824;1.8897247314453125;-12.612335205078125;-5.026885986328125
1445424043100;359.347412109375;-118.49359893798828;-14.722230911254883;1.8308868408203125;-7.9835968017578125;-4.1246795654296875
1445424043132;355.57183837890625;-118.2363510131836;-14.874241828918457;1.046356201171875;-6.8460235595703125;-2.6144561767578125
1445424043166;350.7254333496094;-117.42367553710938;-13.655633926391602;1.222869873046875;-6.49298095703125;-1.75146484375
1445424043200;347.3711853027344;-116.26187133789062;-11.946303367614746;0.8894500732421875;-6.0222625732421875;-0.3785400390625
1445424043232;345.702880859375;-115.37220001220703;-10.83963680267334;0.536407470703125;-4.923919677734375;0.36676025390625
1445424043265;343.5504150390625;-112.65679931640625;-8.634713172912598;1.9093475341796875;-1.628875732421875;1.7200775146484375
1445424043298;346.22381591796875;-109.46548461914062;-6.207079887390137;3.4195709228515625;-0.8639678955078125;1.072845458984375
1445424043331;348.7519226074219;-108.1083984375;-5.180172443389893;5.322052001953125;-4.10015869140625;-0.2804718017578125
1445424043364;354.15142822265625;-106.8635025024414;-3.814218044281006;7.597198486328125;-14.75018310546875;0.759033203125
1445424043396;358.1607360839844;-106.19166564941406;-3.3118252754211426;2.10546875;-19.104324340820312;-1.4180450439453125
1445424043431;3.799072265625;-106.61138916015625;-2.526733636856079;-0.9934234619140625;-20.67340087890625;-1.261138916015625
1445424043463;9.10125732421875;-108.14136505126953;-2.3130383491516113;-0.58154296875;-17.417587280273438;-0.94732666015625
1445424043497;11.452789306640625;-108.76543426513672;-2.543208122253418;-1.5426025390625;-15.691619873046875;-0.5550537109375
1445424043529;16.227386474609375;-108.7766342163086;-2.1119472980499268;-1.464141845703125;-14.573654174804688;-0.8492584228515625
1445424043562;20.08660888671875;-108.05661010742188;-1.0156980752944946;-1.8171844482421875;-13.61260986328125;-1.12384033203125
1445424043595;21.69219970703125;-108.32560729980469;-0.7437064051628113;0.34027099609375;-9.258453369140625;-1.9083709716796875
1445424043629;25.870147705078125;-110.6129379272461;-1.1005921363830566;-0.5619354248046875;-6.061492919921875;-0.9277191162109375
1445424043661;27.844818115234375;-114.86579895019531;-2.158057689666748;-2.6997833251953125;-3.7667236328125;-4.47772216796875
1445424043697;28.30792236328125;-118.18241119384766;-3.589811086654663;-1.287628173828125;-2.079986572265625;-3.45782470703125
1445424043727;26.02484130859375;-125.77954864501953;-9.881176948547363;-4.3865203857421875;-1.58966064453125;-4.2619781494140625
1445424043761;21.49462890625;-132.3351593017578;-17.868431091308594;-1.7779541015625;-2.393798828125;-6.2821502685546875
1445424043793;20.93963623046875;-135.10377502441406;-21.303279876708984;4.1060333251953125;-4.4924163818359375;-7.7139129638671875
1445424043826;22.785552978515625;-139.58409118652344;-25.33890724182129;7.45989990234375;-6.3360748291015625;-7.7139129638671875
1445424043861;23.08245849609375;-141.38223266601562;-26.115863800048828;7.420684814453125;-3.2960052490234375;-7.5570068359375
1445424043892;22.443603515625;-142.37655639648438;-26.488536834716797;7.22454833984375;-4.5120391845703125;-7.1451263427734375
1445424043925;20.580291748046875;-139.10910034179688;-25.98592758178711;5.4789581298828125;-5.53192138671875;-4.3208160400390625
1445424043960;19.0523681640625;-136.23236083984375;-24.905014038085938;2.5761871337890625;-8.179718017578125;-2.5948486328125
1445424043991;15.402801513671875;-127.86138916015625;-21.38763999938965;1.1444244384765625;-9.297683715820312;-2.281036376953125
1445424044024;10.29876708984375;-117.52821350097656;-16.802675247192383;-1.4249267578125;-11.965087890625;-0.9669342041015625
1445424044064;8.01922607421875;-112.01322937011719;-13.687911033630371;-0.91497802734375;-8.670059204101562;2.8772735595703125
1445424044094;5.187744140625;-101.59516906738281;-7.220463275909424;0.928680419921875;-7.316741943359375;2.386932373046875
1445424044123;4.505645751953125;-94.12657165527344;-1.9415714740753174;5.145538330078125;-5.1985015869140625;-0.4177703857421875
1445424044158;5.188873291015625;-91.62493896484375;0.029749102890491486;4.2237091064453125;-7.12060546875;-1.7906951904296875
1445424044190;8.219207763671875;-89.00106048583984;1.5483744144439697;2.43890380859375;-10.14105224609375;-5.2230224609375
1445424044222;9.493011474609375;-88.81974792480469;1.4364598989486694;-1.915252685546875;-19.241622924804688;-5.4583892822265625
1445424044260;12.76080322265625;-90.21266174316406;1.098738670349121;-2.7978515625;-18.57476806640625;-11.852325439453125
1445424044290;11.328704833984375;-94.3000717163086;1.1678305864334106;-3.48431396484375;-13.436080932617188;-5.96832275390625
1445424044322;12.55023193359375;-97.47469329833984;1.2259618043899536;-1.6798858642578125;-11.376693725585938;-2.692901611328125
1445424044354;16.2611083984375;-101.78514862060547;1.4657784700393677;-0.4834747314453125;-14.024490356445312;-1.692626953125
1445424044388;14.84539794921875;-101.5644302368164;1.5243104696273804;-3.033203125;-14.92669677734375;-2.8302001953125
1445424044419;13.321868896484375;-100.60458374023438;1.897130012512207;-3.288177490234375;-14.632492065429688;-3.202850341796875
1445424044454;9.71868896484375;-98.68490600585938;2.0687060356140137;-0.522705078125;-12.239669799804688;-4.8896026611328125
1445424044485;5.33349609375;-100.0455322265625;0.01681549847126007;1.438629150390625;-8.709274291992188;-4.59539794921875
1445424044519;3.525360107421875;-101.82917022705078;-0.8385810256004333;-0.3069610595703125;-7.061767578125;-3.22247314453125
1445424044552;357.81591796875;-105.6989974975586;-1.4651703834533691;-2.542877197265625;-2.78607177734375;-0.5550537109375
1445424044585;347.0369873046875;-110.34554290771484;-4.218139171600342;-5.622161865234375;-1.9230804443359375;-0.6138916015625
1445424044619;341.9490661621094;-112.79708862304688;-7.085989475250244;-2.40557861328125;-2.3153533935546875;0.4059906005859375
1445424044652;334.448486328125;-117.69435119628906;-14.7072172164917;1.6543731689453125;-3.1194915771484375;-0.810028076171875
1445424044684;332.8581237792969;-120.48200225830078;-17.370641708374023;4.0275726318359375;-8.4935302734375;-5.654510498046875
1445424044717;332.78814697265625;-126.49662780761719;-17.53635025024414;4.8709564208984375;-9.68994140625;-7.929656982421875
1445424044749;331.63079833984375;-131.83763122558594;-15.429919242858887;3.63531494140625;-9.101547241210938;-11.59735107421875
1445424044784;330.72552490234375;-134.47592163085938;-14.282721519470215;3.2430419921875;-7.1009979248046875;-12.048446655273438
1445424044816;328.53546142578125;-137.4016571044922;-13.462173461914062;4.1060333251953125;-7.2186737060546875;-10.793197631835938
1445424044848;327.4840393066406;-137.7531280517578;-13.322925567626953;5.2436065673828125;-9.199615478515625;-8.792648315429688
1445424044882;326.0439453125;-136.4357147216797;-12.376243591308594;4.3021697998046875;-8.3170166015625;-6.537109375
1445424044915;326.4169616699219;-132.2611846923828;-10.73670768737793;2.7723236083984375;-7.63055419921875;-4.163909912109375
1445424044953;326.8249206542969;-126.2442855834961;-8.916299819946289;-0.9934234619140625;-7.1402130126953125;-0.515838623046875
1445424044984;327.0133056640625;-122.87789154052734;-7.453066349029541;-1.6995086669921875;-5.669219970703125;-0.1627960205078125
1445424045014;325.5865173339844;-115.96723937988281;-5.174108028411865;-0.601165771484375;-1.275848388671875;0.19024658203125
1445424045047;324.7392578125;-112.72704315185547;-4.313780307769775;3.7725982666015625;-0.2951812744140625;0.445220947265625
1445424045080;327.1661682128906;-107.1817398071289;-2.2917425632476807;4.439453125;-0.56976318359375;0.2294769287109375
1445424045113;331.1997375488281;-101.85845947265625;0.19924212992191315;3.2234344482421875;-2.96258544921875;-3.026336669921875
1445424045147;332.85113525390625;-99.88951110839844;1.2689266204833984;1.3209381103515625;-24.909866333007812;-9.420272827148438
1445424045179;333.1250305175781;-98.44355773925781;1.881807804107666;0.6344757080078125;-22.301300048828125;-9.734085083007812
1445424045213;339.50750732421875;-101.4967269897461;1.7826237678527832;-3.052825927734375;-20.869522094726562;-5.1445770263671875
1445424045245;341.4168395996094;-103.94647979736328;0.9141033291816711;-3.30780029296875;-17.751007080078125;-2.37908935546875
1445424045277;344.0698547363281;-107.40734100341797;-0.24542395770549774;-3.680450439453125;-19.163177490234375;1.1120758056640625
1445424045311;345.8406066894531;-106.71849060058594;0.21242405474185944;-1.2483978271484375;-16.672286987304688;1.21014404296875
1445424045344;347.4823913574219;-105.07949829101562;0.7211205363273621;-0.522705078125;-15.88775634765625;0.58251953125
1445424045377;350.1882629394531;-102.01404571533203;1.3438472747802734;2.066253662109375;-10.925582885742188;-1.9868316650390625
1445424045410;351.85406494140625;-101.56950378417969;1.3332768678665161;3.2822723388671875;-3.6882781982421875;-3.16363525390625
1445424045444;355.2552490234375;-103.10447692871094;1.51472008228302;-0.660003662109375;-2.78607177734375;-5.79180908203125
1445424045477;354.01373291015625;-107.89823913574219;2.4334468841552734;-6.4459228515625;-0.373626708984375;-4.5169525146484375
1445424045509;352.79449462890625;-111.63706970214844;2.529270648956299;-2.5036468505859375;1.58770751953125;-1.18267822265625
1445424045544;346.5743408203125;-118.8394546508789;-2.7319347858428955;-0.954193115234375;1.1758270263671875;-1.6533966064453125
1445424045575;343.4559326171875;-124.06807708740234;-7.929299354553223;2.2623748779296875;-6.061492919921875;-4.71307373046875
1445424045608;343.26507568359375;-126.15361785888672;-9.605533599853516;1.8897247314453125;-8.1993408203125;-5.4976043701171875
1445424045646;344.7218017578125;-130.19252014160156;-10.622655868530273;3.5372467041015625;-9.042709350585938;-7.929656982421875
1445424045675;348.0284729003906;-131.93467712402344;-7.495104789733887;2.5173492431640625;-9.886077880859375;-10.773590087890625
1445424045708;349.18310546875;-130.94602966308594;-5.629327297210693;0.595245361328125;-10.807907104492188;-8.576904296875
1445424045741;350.94171142578125;-125.99275970458984;-4.396970272064209;1.18365478515625;-12.808456420898438;-5.419158935546875
1445424045774;351.45721435546875;-120.2018814086914;-6.040829658508301;2.752716064453125;-14.946304321289062;-4.9484405517578125
1445424045808;351.5845642089844;-116.9732437133789;-6.378091812133789;2.7134857177734375;-14.338302612304688;-3.595123291015625
1445424045840;351.1435546875;-110.30231475830078;-6.643900394439697;1.811279296875;-10.749069213867188;-1.2807464599609375
1445424045871;351.36676025390625;-107.09446716308594;-6.203732013702393;0.10491943359375;-6.0418701171875;-0.1431732177734375
1445424045909;352.1736755371094;-100.71197509765625;-5.010342597961426;-0.150054931640625;-3.786346435546875;-0.1431732177734375
1445424045938;351.75103759765625;-97.82090759277344;-4.543127059936523;-0.4246368408203125;-1.58966064453125;-2.08489990234375
1445424045971;352.0255432128906;-93.40699768066406;-3.6520023345947266;-1.3268585205078125;-1.1777801513671875;-1.3984375
1445424046003;357.21142578125;-89.89089965820312;-2.0987513065338135;1.3209381103515625;0.195159912109375;-1.4768829345703125
1445424046039;2.486083984375;-88.414306640625;-1.672929048538208;1.0659637451171875;-20.359588623046875;-9.126068115234375
1445424046071;6.41363525390625;-87.49162292480469;-2.0475966930389404;-4.308074951171875;-20.379196166992188;-8.047332763671875
1445424046103;8.2144775390625;-91.26331329345703;-2.89333438873291;-4.3865203857421875;-18.260955810546875;-3.7324066162109375
1445424046136;10.327545166015625;-93.90581512451172;-2.964644193649292;-2.2486724853515625;-19.398529052734375;-1.51611328125
1445424046169;7.9666748046875;-97.09323120117188;-3.131345748901367;-1.4249267578125;-20.418426513671875;-2.8302001953125
1445424046202;8.02337646484375;-96.97616577148438;-2.3986024856567383;0.8306121826171875;-18.731674194335938;-1.7906951904296875
1445424046235;9.393280029296875;-96.32044982910156;-2.0572304725646973;3.2234344482421875;-17.14300537109375;-2.4967803955078125
1445424046268;9.814910888671875;-94.00143432617188;-2.449559450149536;2.183929443359375;-14.69134521484375;-4.5757904052734375
1445424046302;5.465972900390625;-92.19109344482422;-3.691526174545288;-4.68072509765625;-6.8460235595703125;-5.870269775390625
1445424046334;4.333587646484375;-92.46817016601562;-4.059274673461914;-6.6028289794921875;-4.3747406005859375;-4.026611328125
1445424046367;359.9889221191406;-96.28508758544922;-3.2001864910125732;-4.1119384765625;1.2346649169921875;1.1512908935546875
