sep=;
timestamp;gyro-alpha;gyro-beta;gyro-gamma;accel-x;accel-y;accel-z
1445424689902;59.86077880859375;2.1389670372009277;-2.972717046737671;0.3206634521484375;0.11669921875;9.467330932617188
1445424689936;59.62359619140625;2.1255478858947754;-2.174082040786743;0.3795013427734375;0.175537109375;9.545791625976562
1445424689969;59.875213623046875;1.8491922616958618;-1.5087635517120361;0.595245361328125;0.0382537841796875;9.76153564453125
1445424690001;60.1873779296875;1.6619468927383423;-1.5083180665969849;0.10491943359375;-0.197113037109375;9.800765991210938
1445424690035;60.877655029296875;1.5795680284500122;-1.504538655281067;0.242218017578125;-0.0990447998046875;9.800765991210938
1445424690066;61.467376708984375;1.7691718339920044;-0.6139302849769592;-0.3069610595703125;0.312835693359375;9.898834228515625
1445424690099;61.871185302734375;1.785819411277771;-0.30826473236083984;-0.2481231689453125;0.822784423828125;10.291091918945312
1445424690133;62.620391845703125;1.690718412399292;0.0916229784488678;-0.34619140625;0.8423919677734375;9.741928100585938
1445424690165;62.99200439453125;1.5956743955612183;1.7450380325317383;-0.836517333984375;1.0973663330078125;9.545791625976562
1445424690198;63.40447998046875;1.3955168724060059;2.380906343460083;0.0656890869140625;0.9796905517578125;9.996902465820312
1445424690231;63.431304931640625;0.8270111680030823;3.5934200286865234;-1.1895599365234375;0.881622314453125;9.1339111328125
1445424690264;61.426513671875;0.0055917249992489815;7.0433149337768555;-2.40557861328125;0.940460205078125;10.232254028320312
1445424690297;60.44488525390625;-0.8710044026374817;8.399925231933594;-1.3856964111328125;0.0186309814453125;10.565689086914062
1445424690330;57.88818359375;-4.078954696655273;11.439638137817383;-2.6997833251953125;-1.82501220703125;9.0162353515625
1445424690365;56.31890869140625;-6.244032859802246;13.391716003417969;-2.935150146484375;-3.0606536865234375;7.054901123046875
1445424690396;51.64117431640625;-12.965112686157227;17.757211685180664;0.3206634521484375;-4.982757568359375;3.4264373779296875
1445424690429;44.297637939453125;-24.46018409729004;21.382556915283203;-8.995651245117188;-4.963134765625;14.0372314453125
1445424690462;43.0482177734375;-27.643630981445312;21.218204498291016;-3.7785186767578125;-6.5714263916015625;7.2118072509765625
1445424690496;37.010406494140625;-34.156944274902344;22.899295806884766;-2.150604248046875;-3.5313720703125;9.506561279296875
1445424690528;30.351348876953125;-41.31706237792969;22.1898250579834;-1.8760223388671875;-5.0808258056640625;7.9571075439453125
1445424690563;26.0576171875;-45.15913772583008;20.959211349487305;-3.562774658203125;-5.35540771484375;7.54522705078125
1445424690594;21.063201904296875;-49.35177230834961;18.231050491333008;-4.44537353515625;-6.944091796875;4.603240966796875
1445424690627;15.966156005859375;-52.79478073120117;16.374277114868164;-3.4647064208984375;-7.2775115966796875;4.91705322265625
1445424690660;13.25146484375;-55.03357696533203;15.777544021606445;-1.6210479736328125;-8.160110473632812;4.720916748046875
1445424690693;9.986968994140625;-59.60830307006836;12.35335922241211;-1.464141845703125;-7.552093505859375;4.0540618896484375
1445424690726;8.5872802734375;-61.940879821777344;10.408058166503906;0.1245269775390625;-8.1993408203125;4.544403076171875
1445424690759;4.63623046875;-66.59955596923828;6.569734573364258;-0.97381591796875;-9.042709350585938;3.38720703125
1445424690792;2.514495849609375;-70.41256713867188;2.403163433074951;0.3206634521484375;-10.631378173828125;3.3087615966796875
1445424690825;2.7174072265625;-72.27173614501953;0.7742215991020203;-1.0130462646484375;-10.180282592773438;2.5438385009765625
1445424690858;3.030609130859375;-75.19325256347656;-1.204725980758667;-1.03265380859375;-9.90570068359375;3.0341796875
1445424690891;0.01531982421875;-74.11404418945312;0.9749566912651062;-1.5622100830078125;-11.474761962890625;4.662078857421875
1445424690924;357.6242980957031;-73.8741226196289;3.5041935443878174;0.4971771240234375;-10.925582885742188;3.465667724609375
1445424690957;355.3958435058594;-75.74349212646484;10.383330345153809;-1.6210479736328125;-10.454864501953125;2.3477020263671875
1445424690990;353.864501953125;-76.82315063476562;21.008756637573242;-3.1508941650390625;-9.748779296875;2.896881103515625
1445424691023;351.47711181640625;-78.07354736328125;25.991609573364258;-3.739288330078125;-6.8460235595703125;3.073394775390625
1445424691056;345.7602844238281;-82.76490020751953;31.668209075927734;-5.2299041748046875;-7.6501617431640625;0.19024658203125
1445424691089;344.04412841796875;-84.95023345947266;32.239662170410156;-6.4459228515625;-8.4935302734375;2.838043212890625
1445424691123;336.9628601074219;-88.44831085205078;33.07241439819336;-6.3478546142578125;-8.2581787109375;1.4258880615234375
1445424691155;333.75897216796875;-89.45775604248047;34.8784294128418;-7.9169158935546875;-7.552093505859375;0.5432891845703125
1445424691189;333.54107666015625;-89.47640991210938;35.714073181152344;-5.680999755859375;-9.317291259765625;1.1512908935546875
1445424691221;333.3436584472656;-89.74681091308594;37.974273681640625;-5.5437164306640625;-8.905410766601562;1.6808624267578125
1445424691254;331.42913818359375;-91.96037292480469;40.12477111816406;-6.95587158203125;-6.630279541015625;0.5432891845703125
1445424691290;330.2173767089844;-93.59616088867188;41.7021484375;-6.5439910888671875;-8.003204345703125;0.386383056640625
1445424691320;323.94879150390625;-101.27845001220703;43.15864944458008;-5.386810302734375;-9.12115478515625;-2.5948486328125
1445424691353;321.47381591796875;-106.50431060791016;44.99785232543945;-7.0343170166015625;-8.395462036132812;-1.947601318359375
1445424691387;322.6039733886719;-106.87802124023438;46.90945816040039;-7.3089141845703125;-9.00347900390625;-1.947601318359375
1445424691419;327.9186706542969;-107.69281768798828;51.821903228759766;-7.7992401123046875;-7.7286224365234375;-2.7909698486328125
1445424691453;329.8883972167969;-108.9222412109375;54.23605728149414;-7.4265899658203125;-6.806793212890625;-3.0459442138671875
1445424691485;329.4603271484375;-112.00824737548828;56.042877197265625;-7.6619415283203125;-5.9830322265625;-2.14373779296875
1445424691519;328.77227783203125;-112.06624603271484;53.911376953125;-6.9754791259765625;-5.492706298828125;-2.398712158203125
1445424691551;328.0351257324219;-111.30998992919922;52.11747741699219;-6.0928802490234375;-7.179443359375;-2.7517547607421875
1445424691585;325.0013427734375;-111.13407897949219;47.893028259277344;-6.7205047607421875;-7.35595703125;-3.1244049072265625
1445424691623;323.39788818359375;-109.29574584960938;42.768272399902344;-7.2892913818359375;-6.355682373046875;-3.85009765625
1445424691653;322.5243225097656;-108.31995391845703;40.90419387817383;-4.190399169921875;-8.062042236328125;-2.20257568359375
1445424691683;321.6534118652344;-107.89949798583984;38.40827941894531;-5.1514434814453125;-7.5128631591796875;-4.47772216796875
1445424691717;322.2497253417969;-107.16602325439453;36.666255950927734;-5.01416015625;-5.9634246826171875;-1.9279937744140625
1445424691749;323.5969543457031;-106.7571029663086;36.38848114013672;-2.484039306640625;-6.296844482421875;-1.18267822265625
1445424691782;324.34722900390625;-105.97926330566406;35.61133575439453;-5.5437164306640625;-8.415084838867188;-0.5550537109375
1445424691815;323.5323791503906;-105.28541564941406;35.17372512817383;-7.6619415283203125;-7.8462982177734375;-3.45782470703125
1445424691848;321.1182861328125;-104.19042205810547;33.472877502441406;-6.6616668701171875;-9.00347900390625;-2.339874267578125
1445424691882;320.83660888671875;-102.86097717285156;32.26344680786133;-4.9160919189453125;-8.650436401367188;-1.712249755859375
1445424691915;321.0755615234375;-101.9068603515625;32.10844802856445;-3.9550323486328125;-8.513153076171875;0.896331787109375
1445424691948;316.6033020019531;-102.49069213867188;31.420215606689453;-5.64178466796875;-9.023101806640625;-0.88848876953125
1445424691979;308.4520263671875;-103.48155212402344;30.581911087036133;-5.6025543212890625;-9.611495971679688;-2.6536865234375
1445424692013;304.628173828125;-103.64478302001953;30.48714828491211;-5.2887420654296875;-9.729171752929688;-2.4379425048828125
1445424692046;302.77288818359375;-101.72569274902344;31.48911476135254;-6.700897216796875;-9.591873168945312;-1.496490478515625
1445424692080;303.82733154296875;-100.62158966064453;30.045406341552734;-7.387359619140625;-6.747955322265625;-0.9669342041015625
1445424692115;304.1214599609375;-100.10619354248047;28.053266525268555;-5.426025390625;-7.12060546875;-0.1431732177734375
1445424692146;302.9150695800781;-99.14407348632812;24.87115478515625;-3.5235443115234375;-8.238555908203125;-0.2020263671875
1445424692178;302.1193542480469;-98.64197540283203;23.868793487548828;-3.2685699462890625;-9.199615478515625;-0.7119598388671875
1445424692212;300.6293029785156;-97.67416381835938;23.243942260742188;-3.7000579833984375;-9.68994140625;-1.143463134765625
1445424692247;299.21356201171875;-97.11308288574219;23.147001266479492;-4.4061431884765625;-9.846847534179688;-1.378814697265625
1445424692280;298.4814453125;-96.95780944824219;23.03716278076172;-4.62188720703125;-9.533035278320312;-1.5945587158203125
1445424692315;296.8442687988281;-96.72994232177734;22.632408142089844;-4.9749298095703125;-9.395751953125;-1.96722412109375
1445424692347;294.7227783203125;-96.45358276367188;22.0105037689209;-5.0926055908203125;-9.00347900390625;-1.712249755859375
1445424692376;293.5432434082031;-96.22156524658203;21.613849639892578;-4.8964691162109375;-8.650436401367188;-1.5357208251953125
1445424692413;292.2388916015625;-95.92927551269531;21.122426986694336;-4.6414947509765625;-8.532760620117188;-1.378814697265625
1445424692444;289.3425598144531;-95.30695343017578;20.024887084960938;-4.5238189697265625;-9.00347900390625;-1.2219085693359375
1445424692486;284.9806823730469;-94.04244232177734;18.369298934936523;-3.8373565673828125;-8.866195678710938;-1.4180450439453125
1445424692507;284.9806823730469;-94.04244232177734;18.369298934936523;-3.8373565673828125;-8.866195678710938;-1.4180450439453125
1445424692541;281.31884765625;-93.0539779663086;17.23163414001465;-2.993988037109375;-7.68939208984375;-1.18267822265625
1445424692574;280.3041687011719;-92.73175048828125;17.016223907470703;-3.033203125;-8.1993408203125;-0.88848876953125
1445424692607;278.371337890625;-92.71064758300781;17.070459365844727;-3.3470306396484375;-8.846572875976562;-1.378814697265625
1445424692640;276.5650939941406;-93.09577178955078;17.694087982177734;-4.50421142578125;-9.552658081054688;-1.437652587890625
1445424692673;275.84185791015625;-93.07722473144531;17.787443161010742;-4.249237060546875;-10.670608520507812;-1.75146484375
1445424692706;274.6618957519531;-92.9439468383789;17.735498428344727;-5.1710662841796875;-12.161224365234375;-2.7125244140625
1445424692739;274.22235107421875;-93.12662506103516;17.952173233032227;-6.2890167236328125;-11.710113525390625;-1.9083709716796875
1445424692773;273.6900634765625;-93.67537689208984;18.371992111206055;-5.64178466796875;-11.082489013671875;-1.5553436279296875
1445424692822;273.4906005859375;-93.5144271850586;17.84958839416504;-3.42547607421875;-11.062881469726562;-0.9865570068359375
1445424692837;273.3309020996094;-93.52043914794922;17.466781616210938;-2.40557861328125;-11.435531616210938;0.07257080078125
1445424692871;273.1374816894531;-93.70149230957031;16.619890213012695;-1.3072357177734375;-11.082489013671875;1.308197021484375
1445424692904;272.802001953125;-94.05973815917969;16.280292510986328;-1.09149169921875;-9.258453369140625;1.308197021484375
1445424692938;272.17852783203125;-95.47826385498047;16.82257080078125;-2.5232696533203125;-6.7087249755859375;2.1907958984375
1445424692970;271.0333557128906;-95.60943603515625;17.56471824645996;-2.68017578125;-9.219223022460938;1.8377685546875
1445424693004;270.4566955566406;-95.05081939697266;17.17552375793457;-0.777679443359375;-10.415634155273438;0.30792236328125
1445424693036;270.26727294921875;-94.16023254394531;16.617874145507812;-0.4246368408203125;-9.925308227539062;0.2098541259765625
1445424693077;271.3816223144531;-93.35823822021484;17.35240936279297;-1.464141845703125;-9.297683715820312;0.1510162353515625
1445424693104;272.2305603027344;-93.0629653930664;18.157644271850586;-2.3859710693359375;-9.415359497070312;0.0333404541015625
1445424693135;274.3559265136719;-92.5932388305664;19.871572494506836;-3.6412200927734375;-8.94464111328125;-0.182403564453125
1445424693168;275.561767578125;-92.30271911621094;20.648719787597656;-3.8765869140625;-8.2581787109375;-0.2804718017578125
1445424693202;277.95751953125;-91.53595733642578;21.560941696166992;-4.3473052978515625;-7.493255615234375;-0.6138916015625
1445424693235;279.0451965332031;-91.15983581542969;21.776412963867188;-5.327972412109375;-7.9051361083984375;-0.4962158203125
1445424693267;281.00042724609375;-90.54374694824219;21.89565086364746;-5.4064178466796875;-7.92474365234375;-0.6531219482421875
1445424693304;282.52947998046875;-89.72533416748047;21.40458869934082;-4.818023681640625;-7.7874603271484375;-1.084625244140625
1445424693334;283.25177001953125;-89.18546295166016;20.84079360961914;-3.9550323486328125;-8.689666748046875;-1.18267822265625
1445424693371;284.67315673828125;-88.5423812866211;19.86497688293457;-4.3865203857421875;-9.06231689453125;-0.868865966796875
1445424693399;285.5914306640625;-88.69766235351562;19.793109893798828;-6.3282470703125;-9.827239990234375;-0.751190185546875
1445424693432;285.3333740234375;-89.06190490722656;20.12210464477539;-6.9362640380859375;-11.651275634765625;-1.829925537109375
1445424693471;285.40521240234375;-90.10005187988281;21.544010162353516;-6.3870849609375;-12.494644165039062;-1.2415313720703125
1445424693498;286.13116455078125;-89.8472900390625;23.844539642333984;-6.1713409423828125;-12.29852294921875;1.641632080078125
1445424693531;286.8961181640625;-88.86053466796875;24.84037971496582;-3.170501708984375;-11.827789306640625;3.9952239990234375
1445424693564;288.99114990234375;-86.08889770507812;25.337133407592773;-0.895355224609375;-11.357070922851562;4.0736846923828125
1445424693598;291.1410217285156;-84.4371337890625;22.99273681640625;0.8109893798828125;-10.474472045898438;2.9361114501953125
1445424693631;293.5827941894531;-87.00547790527344;20.999998092651367;-0.208892822265625;-9.474197387695312;1.8966064453125
1445424693663;294.7071533203125;-89.04920959472656;21.537023544311523;-1.8171844482421875;-9.258453369140625;1.4062652587890625
1445424693696;295.7650451660156;-91.20386505126953;23.336841583251953;-5.3671875;-10.101821899414062;0.24908447265625
1445424693729;295.964599609375;-91.35173797607422;23.278039932250977;-4.3276824951171875;-8.964248657226562;-0.3589324951171875
1445424693762;295.61553955078125;-92.00444793701172;21.465166091918945;-3.7000579833984375;-8.081649780273438;-0.7119598388671875
1445424693795;294.19482421875;-93.23710632324219;20.07887840270996;-3.54315185546875;-7.5324859619140625;-0.751190185546875
1445424693828;293.1950988769531;-93.2921371459961;19.39468765258789;-3.3862457275390625;-7.74822998046875;-0.77081298828125
1445424693861;291.0416259765625;-93.19780731201172;17.480487823486328;-2.935150146484375;-7.8462982177734375;-0.77081298828125
1445424693894;288.45770263671875;-93.29025268554688;16.14411735534668;-2.22906494140625;-7.9051361083984375;-1.1042327880859375
1445424693927;287.01171875;-93.26166534423828;15.902986526489258;-2.40557861328125;-7.63055419921875;-1.5357208251953125
1445424693960;284.2070617675781;-92.94569396972656;15.419994354248047;-2.660552978515625;-7.7678375244140625;-1.5553436279296875
1445424693993;281.7760009765625;-92.54637908935547;14.967964172363281;-3.111663818359375;-9.238845825195312;-1.084625244140625
1445424694026;280.6747131347656;-92.33848571777344;14.90317440032959;-2.68017578125;-10.8275146484375;-0.692352294921875
1445424694059;278.6284484863281;-91.626220703125;14.183183670043945;-1.738739013671875;-13.632217407226562;-3.1244049072265625
1445424694093;277.70819091796875;-91.93740844726562;13.606609344482422;-3.7196807861328125;-13.455703735351562;-1.261138916015625
1445424694125;277.79730224609375;-92.05931091308594;13.659586906433105;-4.0727081298828125;-13.357635498046875;-0.7904205322265625
1445424694159;278.2063293457031;-91.25054931640625;12.637531280517578;-1.7779541015625;-12.847686767578125;-0.241241455078125
1445424694192;278.81396484375;-91.18449401855469;11.63298511505127;0.3795013427734375;-10.984420776367188;1.523956298828125
1445424694224;280.2690734863281;-91.12977600097656;9.874938011169434;0.359893798828125;-10.25872802734375;1.9358367919921875
1445424694258;280.6349792480469;-91.49972534179688;9.634186744689941;-1.5622100830078125;-8.473922729492188;2.7988128662109375
1445424694291;280.1778259277344;-92.19245147705078;10.242966651916504;-3.2685699462890625;-7.9051361083984375;2.210418701171875
1445424694324;278.86541748046875;-92.78254699707031;10.832947731018066;-2.366363525390625;-8.728897094726562;1.759307861328125
1445424694356;278.3797607421875;-92.31918334960938;10.450202941894531;0.04608154296875;-9.180007934570312;1.1512908935546875
1445424694390;278.0485534667969;-91.228759765625;9.816861152648926;0.5560302734375;-8.807342529296875;1.1512908935546875
1445424694422;278.67559814453125;-90.20378112792969;10.204376220703125;-0.267730712890625;-9.729171752929688;1.014007568359375
1445424694455;279.28515625;-89.86829376220703;10.492188453674316;-1.346466064453125;-9.90570068359375;0.7198028564453125
1445424694488;281.0968017578125;-89.38287353515625;11.250686645507812;-1.6406707763671875;-9.356521606445312;0.386383056640625
1445424694520;283.1672668457031;-88.9277114868164;12.257588386535645;-2.2682952880859375;-8.3170166015625;0.4059906005859375
1445424694554;284.1919250488281;-88.620849609375;12.626522064208984;-2.9547576904296875;-8.709274291992188;0.19024658203125
1445424694588;286.4437561035156;-87.98176574707031;12.838990211486816;-2.935150146484375;-8.94464111328125;-0.241241455078125
1445424694620;288.6247253417969;-87.57054138183594;13.107293128967285;-3.1901092529296875;-8.4935302734375;-0.2804718017578125
1445424694653;289.4186096191406;-87.45084381103516;13.365166664123535;-4.9749298095703125;-9.199615478515625;-0.4569854736328125
1445424694686;290.0624084472656;-87.43138885498047;13.63502025604248;-5.445648193359375;-9.45458984375;-0.6138916015625
1445424694720;289.5277404785156;-87.62926483154297;13.643343925476074;-5.5240936279296875;-8.94464111328125;-0.300079345703125
1445424694755;288.9228820800781;-87.58714294433594;13.805763244628906;-4.5434417724609375;-10.788284301757812;-0.3589324951171875
1445424694785;287.84356689453125;-87.21034240722656;14.288904190063477;-3.1312713623046875;-13.78912353515625;0.445220947265625
1445424694818;287.14312744140625;-86.90403747558594;15.887151718139648;-3.052825927734375;-12.494644165039062;3.3675994873046875
1445424694851;286.9140319824219;-86.41856384277344;16.925182342529297;-1.8367919921875;-11.357070922851562;3.9363861083984375
1445424694884;287.685791015625;-84.57959747314453;17.344207763671875;1.105194091796875;-11.082489013671875;3.524505615234375
1445424694918;288.4922180175781;-83.43682098388672;15.603700637817383;0.8306121826171875;-11.553207397460938;1.9750518798828125
1445424694952;288.90185546875;-83.7310791015625;14.679250717163086;-0.5619354248046875;-11.004043579101562;1.50433349609375
1445424694985;289.61126708984375;-86.07879638671875;14.907315254211426;-3.915802001953125;-10.14105224609375;1.072845458984375
1445424695017;289.34954833984375;-87.18791961669922;15.116021156311035;-4.1511688232421875;-8.728897094726562;0.6021270751953125
1445424695049;288.27685546875;-88.31981658935547;14.044028282165527;-3.229339599609375;-7.80706787109375;0.2883148193359375
1445424695082;286.9486083984375;-89.12380981445312;12.284782409667969;-1.6798858642578125;-7.4148101806640625;0.24908447265625
1445424695118;286.10064697265625;-89.21009063720703;11.553105354309082;-0.5030975341796875;-8.1993408203125;-0.3197021484375
1445424695148;284.2396240234375;-89.14147186279297;10.485692024230957;-0.3657989501953125;-8.1405029296875;-0.6727447509765625
1445424695181;282.24932861328125;-89.65373229980469;10.292301177978516;-1.6602783203125;-8.062042236328125;-1.18267822265625
1445424695215;281.12890625;-89.9827651977539;10.403432846069336;-2.3271331787109375;-8.4935302734375;-1.06500244140625
1445424695249;278.26251220703125;-90.58805084228516;10.81649398803711;-3.5823822021484375;-9.160385131835938;-1.496490478515625
1445424695283;274.83306884765625;-91.48052978515625;11.511223793029785;-3.42547607421875;-9.434967041015625;-1.1042327880859375
1445424695313;273.2962341308594;-91.62081909179688;11.585371017456055;-2.719390869140625;-10.101821899414062;-1.143463134765625
1445424695347;271.18585205078125;-91.16523742675781;10.574355125427246;-1.03265380859375;-12.141616821289062;-1.9279937744140625
1445424695379;270.5843505859375;-91.06832122802734;9.848259925842285;-1.6995086669921875;-14.004867553710938;-0.9865570068359375
1445424695412;270.2989807128906;-91.2013168334961;8.79310417175293;-2.2094573974609375;-14.377532958984375;-0.4373779296875
1445424695445;270.8662414550781;-91.26942443847656;7.160228252410889;-0.228515625;-13.78912353515625;0.994384765625
1445424695480;271.33636474609375;-91.5703353881836;5.971889019012451;0.9090576171875;-11.10211181640625;2.52423095703125
1445424695511;272.14068603515625;-91.79180908203125;4.495391845703125;0.8306121826171875;-8.846572875976562;2.975341796875
1445424695544;271.71417236328125;-92.60652923583984;5.383491516113281;-0.287353515625;-7.0225372314453125;2.6026763916015625
1445424695577;271.4407958984375;-93.17681121826172;5.787107944488525;-0.4834747314453125;-7.7678375244140625;2.1711883544921875
1445424695611;272.2333984375;-92.92462921142578;5.227313041687012;0.8109893798828125;-9.846847534179688;1.7985382080078125
1445424695643;273.887451171875;-92.25142669677734;5.469634532928467;0.8894500732421875;-9.748779296875;1.249359130859375
1445424695676;274.9283142089844;-92.03895568847656;6.083347797393799;0.2029876708984375;-9.611495971679688;1.1120758056640625
1445424695709;277.816162109375;-91.49777221679688;7.146881580352783;-0.895355224609375;-9.3369140625;0.81787109375
1445424695743;279.59320068359375;-91.1610336303711;7.5435872077941895;-1.4249267578125;-9.219223022460938;0.5236663818359375
1445424695776;283.298095703125;-90.36898040771484;8.212456703186035;-1.7191162109375;-9.160385131835938;0.5432891845703125
1445424695809;286.7689514160156;-89.23462677001953;8.551789283752441;-2.307525634765625;-8.866195678710938;0.3471527099609375
1445424695841;288.34619140625;-88.77745819091797;8.636231422424316;-3.621612548828125;-9.081939697265625;-0.4766082763671875
1445424695874;290.7913513183594;-88.27484893798828;8.466087341308594;-3.856964111328125;-9.00347900390625;-0.7119598388671875
1445424695907;292.21197509765625;-88.18876647949219;7.972883701324463;-3.8961944580078125;-8.630828857421875;-1.143463134765625
1445424695940;292.59844970703125;-88.18169403076172;7.632554531097412;-3.8373565673828125;-8.670059204101562;-1.1042327880859375
1445424695973;292.8377990722656;-88.14268493652344;6.889569282531738;-4.44537353515625;-9.00347900390625;-0.1431732177734375
1445424696006;292.4245300292969;-88.09709167480469;6.622625827789307;-3.6608428955078125;-11.141326904296875;-1.06500244140625
1445424696039;291.0521240234375;-87.82689666748047;6.507652282714844;-2.542877197265625;-12.59271240234375;-1.6141815185546875
1445424696072;289.6278076171875;-88.74278259277344;8.01944351196289;-2.68017578125;-12.788848876953125;0.01373291015625
1445424696104;288.9898681640625;-89.01911163330078;9.544007301330566;-3.30780029296875;-12.9849853515625;3.7010345458984375
1445424696139;288.0352783203125;-87.16889953613281;12.747575759887695;-1.3268585205078125;-13.0438232421875;4.5247802734375
1445424696172;287.7889404296875;-83.14274597167969;13.029145240783691;2.5958099365234375;-12.043548583984375;3.583343505859375
1445424696205;287.90008544921875;-82.12345123291016;11.803404808044434;2.38006591796875;-9.572265625;2.2496490478515625
1445424696237;288.6578063964844;-85.36775970458984;10.901870727539062;0.242218017578125;-9.023101806640625;1.4847259521484375
1445424696270;288.7055969238281;-90.44930267333984;13.425370216369629;-3.60198974609375;-9.729171752929688;1.0336151123046875
1445424696303;288.0126953125;-91.50798034667969;14.232538223266602;-3.9942626953125;-9.709564208984375;1.0336151123046875
1445424696350;285.93048095703125;-91.29608917236328;13.352933883666992;-2.0133209228515625;-9.219223022460938;0.9159393310546875
1445424696377;283.4472961425781;-92.38023376464844;11.851483345031738;-0.405029296875;-9.611495971679688;0.07257080078125
1445424696402;282.0572204589844;-93.16584777832031;11.501373291015625;-0.542327880859375;-9.631103515625;0.01373291015625
1445424696435;279.072998046875;-94.06369018554688;11.169252395629883;-1.974090576171875;-8.630828857421875;0.445220947265625
1445424696469;277.30340576171875;-94.4113998413086;11.064624786376953;-2.28790283203125;-8.532760620117188;-0.1039581298828125
1445424696501;273.5011901855469;-95.27278137207031;10.511153221130371;-1.9544830322265625;-8.82696533203125;-0.6138916015625
1445424696535;269.4526672363281;-95.3998794555664;9.819003105163574;-2.0721588134765625;-9.376129150390625;-0.82965087890625
1445424696567;267.3568115234375;-95.33229064941406;9.706522941589355;-2.993988037109375;-8.866195678710938;-0.2020263671875
1445424696601;262.9991149902344;-95.57886505126953;9.705917358398438;-3.0724334716796875;-8.670059204101562;-0.4569854736328125
1445424696633;258.7677001953125;-95.3340835571289;8.911246299743652;-1.522979736328125;-10.356796264648438;-0.4177703857421875
1445424696665;256.9790954589844;-94.94987487792969;8.09721851348877;-0.405029296875;-10.5333251953125;-0.868865966796875
1445424696699;253.38308715820312;-94.19964599609375;7.565311908721924;-0.6207733154296875;-9.886077880859375;-0.633514404296875
1445424696732;249.60208129882812;-93.3750228881836;7.8258867263793945;-2.8959197998046875;-12.867294311523438;-0.2608642578125
1445424696765;247.60916137695312;-92.77278900146484;7.373619079589844;-3.0724334716796875;-13.592987060546875;0.386383056640625
1445424696799;244.64718627929688;-91.81001281738281;5.808760643005371;-0.8169097900390625;-11.357070922851562;1.308197021484375
1445424696831;243.00833129882812;-91.26500701904297;5.37599515914917;-2.5036468505859375;-11.376693725585938;3.1322479248046875
1445424696864;239.1517333984375;-89.510498046875;5.03086519241333;-3.0724334716796875;-10.042984008789062;3.5048980712890625
1445424696897;234.82815551757812;-88.4014892578125;4.683202743530273;-1.8956451416015625;-7.7678375244140625;3.4264373779296875
1445424696930;232.55511474609375;-88.22661590576172;4.157358169555664;-0.4834747314453125;-8.4935302734375;2.269256591796875
1445424696963;228.78936767578125;-87.3745346069336;3.0800137519836426;-1.3660736083984375;-9.925308227539062;2.4850006103515625
1445424696996;225.640625;-86.01556396484375;2.7981550693511963;-2.0721588134765625;-10.435256958007812;2.3084869384765625
1445424697029;224.03485107421875;-85.58684539794922;2.7272794246673584;-1.9348602294921875;-9.788009643554688;2.0535125732421875
1445424697063;220.406494140625;-85.1564712524414;2.83905029296875;-2.1898345947265625;-9.434967041015625;2.151580810546875
1445424697095;216.90579223632812;-84.62175750732422;2.978076934814453;-1.8956451416015625;-9.434967041015625;2.70074462890625
1445424697128;215.23004150390625;-83.91490173339844;2.8233611583709717;-1.4445343017578125;-9.591873168945312;2.70074462890625
1445424697161;212.10122680664062;-82.2191162109375;2.4716906547546387;-0.542327880859375;-9.297683715820312;2.328094482421875
1445424697194;210.82415771484375;-81.79383850097656;2.376798629760742;-1.3072357177734375;-8.787734985351562;2.1123504638671875
1445424697228;208.92559814453125;-81.03339385986328;2.3097236156463623;-2.1898345947265625;-9.023101806640625;2.1123504638671875
1445424697261;207.79754638671875;-79.91810607910156;1.8321690559387207;-2.68017578125;-9.493820190429688;1.9946746826171875
1445424697293;207.390625;-79.42564392089844;1.4696720838546753;-1.9348602294921875;-9.68994140625;1.6220245361328125
1445424697327;206.7540283203125;-78.54426574707031;0.8832108974456787;-1.7191162109375;-9.925308227539062;1.50433349609375
1445424697359;206.0958251953125;-78.22852325439453;0.4781408905982971;-2.935150146484375;-10.631378173828125;1.9358367919921875
1445424697392;205.5557861328125;-78.33135986328125;0.3506607115268707;-3.798126220703125;-10.572540283203125;1.641632080078125
1445424697426;203.97235107421875;-79.30560302734375;0.6747145652770996;-3.60198974609375;-10.8275146484375;1.0336151123046875
1445424697459;202.583251953125;-81.341064453125;2.063436269760132;-3.798126220703125;-11.886642456054688;1.50433349609375
1445424697491;201.62030029296875;-82.32898712158203;2.9344699382781982;-4.6022796630859375;-12.063156127929688;2.092742919921875
1445424697523;198.920166015625;-83.67211151123047;3.999593496322632;-4.0138702392578125;-11.21978759765625;3.3675994873046875
1445424697557;195.08050537109375;-85.67173767089844;4.910192012786865;-0.6992340087890625;-9.395751953125;4.544403076171875
1445424697591;192.8218994140625;-86.57917022705078;5.560795783996582;0.6344757080078125;-8.964248657226562;4.3874969482421875
1445424697624;188.42706298828125;-87.5899887084961;6.492483615875244;1.53668212890625;-9.650726318359375;2.8184356689453125
1445424697657;186.57122802734375;-88.37415313720703;6.848740100860596;0.4579620361328125;-9.356521606445312;1.4258880615234375
1445424697688;182.89898681640625;-90.66632080078125;7.977900981903076;-1.2680206298828125;-9.748779296875;1.26898193359375
1445424697722;178.34503173828125;-91.79611206054688;8.483881950378418;-3.7588958740234375;-11.023651123046875;1.26898193359375
1445424697756;175.62100219726562;-91.69175720214844;8.055917739868164;-2.8174591064453125;-10.6510009765625;0.4844512939453125
1445424697788;169.88751220703125;-92.09247589111328;6.663593769073486;-2.6409454345703125;-11.141326904296875;0.3471527099609375
1445424697821;163.9162139892578;-92.43367767333984;4.745429992675781;-3.229339599609375;-12.063156127929688;0.7786407470703125
1445424697854;160.92298889160156;-92.42546844482422;3.7060086727142334;-2.8762969970703125;-9.866470336914062;1.4847259521484375
1445424697887;154.81985473632812;-92.36538696289062;1.7534619569778442;-1.974090576171875;-8.3170166015625;1.7789306640625
1445424697920;149.09458923339844;-91.35979461669922;-0.23094812035560608;0.6344757080078125;-6.5714263916015625;1.21014404296875
1445424697953;146.47430419921875;-91.0103988647461;-1.0150259733200073;1.222869873046875;-7.2186737060546875;0.4844512939453125
1445424697986;141.86627197265625;-90.92736053466797;-1.839229941368103;0.3206634521484375;-9.415359497070312;-0.300079345703125
1445424698020;140.008056640625;-90.94108581542969;-1.964053750038147;-1.1307220458984375;-8.905410766601562;-0.064727783203125
1445424698052;136.75828552246094;-90.8135986328125;-1.9680228233337402;-1.287628173828125;-9.00347900390625;-0.2020263671875
1445424698085;133.81292724609375;-91.05504608154297;-1.7297638654708862;-0.7580718994140625;-10.690231323242188;-0.7904205322265625
1445424698119;132.63528442382812;-90.96855926513672;-1.7259835004806519;-0.640380859375;-12.337738037109375;-1.2415313720703125
1445424698152;131.27529907226562;-90.5884017944336;-1.8922209739685059;-1.4249267578125;-12.9849853515625;-0.4177703857421875
1445424698186;130.53379821777344;-90.3855209350586;-1.9472280740737915;-1.738739013671875;-13.377243041992188;0.36676025390625
1445424698219;130.0396270751953;-90.0207748413086;-2.1620662212371826;0.9678955078125;-11.023651123046875;1.249359130859375
1445424698251;128.8562774658203;-89.6429214477539;-2.7858662605285645;1.53668212890625;-10.121444702148438;1.7985382080078125
1445424698286;128.16726684570312;-89.24385833740234;-3.0987982749938965;0.0068511962890625;-9.493820190429688;3.406829833984375
1445424698316;126.03076171875;-88.42808532714844;-3.064021348953247;-1.169952392578125;-9.180007934570312;3.60296630859375
1445424698349;122.58372497558594;-88.13140106201172;-2.3371551036834717;-1.405303955078125;-8.650436401367188;3.093017578125
1445424698386;120.85545349121094;-87.67306518554688;-2.3495826721191406;0.3795013427734375;-8.964248657226562;1.7200775146484375
1445424698416;117.57566833496094;-86.80043029785156;-2.368497848510742;0.4971771240234375;-8.905410766601562;1.308197021484375
1445424698448;114.83442687988281;-86.10469055175781;-1.911156177520752;0.10491943359375;-9.3369140625;1.0924530029296875
1445424698482;113.64085388183594;-85.69161987304688;-1.6142590045928955;-0.1304473876953125;-9.376129150390625;0.7786407470703125
1445424698514;111.76136779785156;-85.28515625;-0.9107673168182373;-0.1892852783203125;-9.081939697265625;0.7394256591796875
1445424698547;110.64260864257812;-84.78020477294922;0.034010931849479675;-0.7580718994140625;-8.866195678710938;0.562896728515625
1445424698581;110.2332763671875;-84.50497436523438;0.5418657660484314;-1.3268585205078125;-9.023101806640625;0.386383056640625
1445424698613;109.77552795410156;-84.09709167480469;1.3037155866622925;-2.1309967041015625;-9.199615478515625;0.01373291015625
1445424698646;109.47163391113281;-83.9398422241211;1.7064692974090576;-2.9547576904296875;-8.964248657226562;0.2294769287109375
1445424698680;109.31637573242188;-83.94239044189453;1.821047306060791;-2.68017578125;-9.415359497070312;-0.1627960205078125
1445424699723;109.19705200195312;-83.92707824707031;1.8200716972351074;-2.68017578125;-9.415359497070312;-0.1627960205078125
1445424707660;256.50665283203125;-93.29182434082031;1.2222236394882202;-1.0718841552734375;-13.259567260742188;-1.3984375
1445424707665;256.50665283203125;-93.29182434082031;1.2222236394882202;-1.0718841552734375;-13.259567260742188;-1.3984375
1445424707693;256.13067626953125;-93.11068725585938;1.0602372884750366;-0.58154296875;-12.004318237304688;-0.3785400390625
1445424707726;255.79330444335938;-92.78865814208984;0.2396993637084961;2.7919464111328125;-11.121719360351562;1.4062652587890625
1445424707760;256.4735107421875;-92.56028747558594;-0.8789346218109131;2.5173492431640625;-10.415634155273438;1.9750518798828125
1445424707793;257.64459228515625;-91.95545196533203;-1.4870734214782715;0.16375732421875;-8.532760620117188;2.4850006103515625
1445424707825;257.72222900390625;-92.13516998291016;-1.178594708442688;-1.7779541015625;-9.12115478515625;1.8573760986328125
1445424707858;257.26409912109375;-92.94001770019531;-0.6068822145462036;-1.169952392578125;-9.474197387695312;1.523956298828125
1445424707892;257.0950622558594;-92.75750732421875;-0.8589387536048889;0.1245269775390625;-9.68994140625;0.641357421875
1445424707925;257.0616760253906;-92.56876373291016;-0.7911829948425293;0.0068511962890625;-9.650726318359375;0.36676025390625
1445424707958;257.09918212890625;-92.28305053710938;0.07178018242120743;-0.4246368408203125;-9.552658081054688;0.2686920166015625
1445424707991;257.5413818359375;-91.4798355102539;0.7132574915885925;0.0656890869140625;-9.278060913085938;0.13140869140625
1445424708023;257.9491882324219;-91.134765625;0.881863534450531;0.2029876708984375;-9.101547241210938;-0.005889892578125
1445424708057;259.14739990234375;-90.40116119384766;1.3051091432571411;-0.6992340087890625;-9.376129150390625;-0.123565673828125
1445424708090;259.8589782714844;-90.09259796142578;1.6665928363800049;-2.0721588134765625;-9.552658081054688;-0.182403564453125
1445424708122;261.2012634277344;-89.69639587402344;2.3904621601104736;-2.22906494140625;-9.317291259765625;-0.3393096923828125
1445424708156;261.8414611816406;-89.52896118164062;2.6105971336364746;-2.17022705078125;-9.140777587890625;-0.5354461669921875
1445424708188;263.0968017578125;-89.18382263183594;2.868783473968506;-2.621337890625;-9.238845825195312;-0.4177703857421875
1445424708222;264.2724609375;-88.9286880493164;2.9469597339630127;-2.4448089599609375;-9.474197387695312;-0.4766082763671875
1445424708254;265.5446472167969;-88.77392578125;2.9836153984069824;-2.307525634765625;-10.356796264648438;-0.2608642578125
1445424708287;266.07562255859375;-88.709716796875;3.094430685043335;-3.052825927734375;-11.39630126953125;-0.0843353271484375
1445424708320;266.3529357910156;-88.83193969726562;3.8089005947113037;-4.1707763671875;-12.965362548828125;-1.00616455078125
1445424708353;266.59210205078125;-90.03390502929688;5.035085201263428;-2.739013671875;-12.749618530273438;-0.515838623046875
1445424708387;266.7226257324219;-90.50382232666016;5.795994758605957;-2.28790283203125;-12.180831909179688;0.6021270751953125
1445424708420;266.9869079589844;-90.13614654541016;7.428475379943848;-0.4834747314453125;-11.710113525390625;3.3675994873046875
1445424708452;267.188232421875;-89.5764389038086;8.064074516296387;2.752716064453125;-11.376693725585938;3.1126251220703125
1445424708485;267.91156005859375;-89.31864166259766;8.93885326385498;3.498016357421875;-11.474761962890625;1.9358367919921875
1445424708519;269.05426025390625;-91.60525512695312;10.07030963897705;1.2032623291015625;-10.474472045898438;0.445220947265625
1445424708552;269.5531311035156;-93.03250885009766;10.440336227416992;-2.8370819091796875;-9.807632446289062;0.30792236328125
1445424708584;269.6158752441406;-94.21714782714844;10.090642929077148;-3.7196807861328125;-9.944915771484375;0.24908447265625
1445424708618;268.54742431640625;-95.24215698242188;8.367593765258789;-2.719390869140625;-9.258453369140625;-0.3197021484375
1445424708650;267.7504577636719;-95.91201782226562;7.508614540100098;-1.522979736328125;-8.101272583007812;-0.7119598388671875
1445424708683;265.3052673339844;-96.57807922363281;6.144517421722412;-1.3072357177734375;-8.1993408203125;-0.868865966796875
1445424708716;262.48516845703125;-96.75018310546875;4.989219665527344;-1.169952392578125;-8.336624145507812;-0.751190185546875
1445424708750;261.03338623046875;-96.9241714477539;4.499480247497559;-1.2680206298828125;-8.179718017578125;-0.9865570068359375
1445424708783;258.0894470214844;-97.00931549072266;3.5750064849853516;-1.0718841552734375;-8.1993408203125;-1.3984375
1445424708816;255.23361206054688;-96.84832763671875;2.7402541637420654;-0.8757476806640625;-8.670059204101562;-1.712249755859375
1445424708850;253.91619873046875;-96.73355102539062;2.4532244205474854;-1.03265380859375;-9.06231689453125;-1.6533966064453125
1445424708883;251.58670043945312;-96.46354675292969;2.1022489070892334;-0.601165771484375;-11.298233032226562;-1.574951171875
1445424708914;250.61328125;-96.20608520507812;1.8745570182800293;0.477569580078125;-12.259292602539062;-2.8105926513671875
1445424708949;248.85260009765625;-95.9670181274414;1.1295918226242065;0.0853118896484375;-11.749343872070312;-1.888763427734375
1445424708980;247.91357421875;-96.01225280761719;0.9600349068641663;-0.836517333984375;-14.455978393554688;-0.5354461669921875
1445424709014;247.38485717773438;-95.63400268554688;0.5295128226280212;0.4579620361328125;-12.02392578125;-0.300079345703125
1445424709047;246.43463134765625;-96.05357360839844;-0.3772750496864319;0.4579620361328125;-10.042984008789062;0.386383056640625
1445424709079;245.16802978515625;-96.53738403320312;-0.20623117685317993;-1.3072357177734375;-9.768402099609375;2.0535125732421875
1445424709113;243.9813232421875;-96.37509155273438;-0.125631183385849;-2.2094573974609375;-10.5333251953125;2.6811370849609375
1445424709146;240.85076904296875;-96.0291748046875;-0.2890752851963043;-1.405303955078125;-9.96453857421875;1.9750518798828125
1445424709179;237.34967041015625;-95.65048217773438;-0.1465008705854416;0.2618255615234375;-9.572265625;0.9747772216796875
1445424709212;235.603271484375;-95.3681869506836;0.12087737023830414;0.4579620361328125;-9.513427734375;0.876708984375
1445424709245;232.51531982421875;-94.9426040649414;0.9825315475463867;0.026458740234375;-8.807342529296875;0.8374786376953125
1445424709278;231.21966552734375;-94.58211517333984;1.4368141889572144;-0.228515625;-8.983871459960938;0.8374786376953125
1445424709311;229.38525390625;-93.5633316040039;1.8586446046829224;-0.1304473876953125;-9.06231689453125;0.6609649658203125
1445424709344;228.34454345703125;-92.72083282470703;2.239887237548828;-0.4834747314453125;-9.160385131835938;0.2883148193359375
1445424709376;228.1097412109375;-92.3454818725586;2.521380662918091;-1.5426025390625;-9.238845825195312;0.0921783447265625
1445424709410;228.01882934570312;-91.61192321777344;2.915158271789551;-1.856414794921875;-9.3369140625;0.01373291015625
1445424709442;228.26986694335938;-91.0490493774414;2.8385050296783447;-1.9348602294921875;-9.12115478515625;-0.064727783203125
1445424709476;228.53225708007812;-90.68758392333984;2.5649964809417725;-1.738739013671875;-9.278060913085938;-0.182403564453125
1445424709508;229.38427734375;-89.90918731689453;1.7292275428771973;-1.6602783203125;-9.748779296875;-0.2608642578125
1445424709541;230.4093017578125;-89.36699676513672;1.0395572185516357;-1.405303955078125;-10.474472045898438;-0.6531219482421875
1445424709575;230.93359375;-89.23644256591797;0.8759135603904724;-1.9348602294921875;-10.356796264648438;-0.3981475830078125
1445424709608;231.5618896484375;-89.34487915039062;1.246582269668579;-4.190399169921875;-10.494094848632812;-0.82965087890625
1445424709640;231.7576904296875;-89.44945526123047;1.715856671333313;-3.48431396484375;-12.749618530273438;-1.00616455078125
1445424709673;231.8375244140625;-89.88687896728516;2.981409788131714;-2.621337890625;-13.200729370117188;-0.574676513671875
1445424709706;231.33837890625;-89.62841796875;4.470881462097168;-2.8959197998046875;-12.59271240234375;2.2888641357421875
1445424709741;230.9256591796875;-89.45519256591797;5.414938926696777;-0.5619354248046875;-11.259017944335938;3.77947998046875
1445424709772;229.436279296875;-88.72309112548828;7.313701629638672;1.0855865478515625;-10.984420776367188;3.328369140625
1445424709805;228.1490478515625;-89.54842376708984;8.017831802368164;2.301605224609375;-10.513702392578125;1.8377685546875
1445424709839;227.64727783203125;-90.92263793945312;8.25252628326416;-0.836517333984375;-9.768402099609375;0.7982635498046875
1445424709871;226.41009521484375;-93.72896575927734;8.70551586151123;-2.366363525390625;-10.042984008789062;0.641357421875
1445424709905;223.61370849609375;-94.58435821533203;8.314005851745605;-2.05255126953125;-10.631378173828125;0.2294769287109375
1445424709938;221.95819091796875;-94.84896850585938;7.6518778800964355;-1.228790283203125;-10.02337646484375;-0.064727783203125
1445424709970;218.572021484375;-96.0992660522461;6.317601203918457;-0.4246368408203125;-9.12115478515625;-0.5354461669921875
1445424710004;216.92431640625;-96.70440673828125;5.797966957092285;-0.660003662109375;-8.571990966796875;-0.7119598388671875
1445424710037;213.7449951171875;-97.36920166015625;4.762396812438965;-0.85614013671875;-8.297409057617188;-0.7904205322265625
1445424710070;210.84201049804688;-97.94864654541016;3.6969194412231445;-0.542327880859375;-7.944366455078125;-1.00616455078125
1445424710103;209.5302734375;-98.14384460449219;3.2074954509735107;0.0656890869140625;-7.7678375244140625;-1.6533966064453125
1445424710135;206.9400634765625;-97.91696166992188;2.6058151721954346;-0.287353515625;-7.885528564453125;-2.02606201171875
1445424710169;204.53564453125;-97.44564819335938;2.404554843902588;-1.169952392578125;-8.571990966796875;-2.14373779296875
1445424710202;203.431640625;-97.36023712158203;2.4104056358337402;-1.405303955078125;-9.807632446289062;-1.5553436279296875
1445424710234;201.577880859375;-97.21369171142578;2.5831809043884277;-0.7972869873046875;-10.494094848632812;-1.692626953125
1445424710267;200.1014404296875;-96.67973327636719;2.574770212173462;-0.542327880859375;-12.71038818359375;-3.51666259765625
1445424710301;199.503173828125;-96.73700714111328;2.56780743598938;-1.346466064453125;-13.710678100585938;-2.7517547607421875
1445424710333;198.8931884765625;-97.00067901611328;2.397305965423584;-1.9544830322265625;-14.652114868164062;-0.868865966796875
1445424710367;198.59405517578125;-96.53156280517578;1.9062315225601196;0.8306121826171875;-11.925857543945312;-0.2216339111328125
1445424710399;197.8404541015625;-97.0417251586914;0.767551839351654;2.32122802734375;-10.003753662109375;0.36676025390625
1445424710435;197.735107421875;-97.81470489501953;-0.11542260646820068;2.38006591796875;-8.709274291992188;0.7394256591796875
1445424710466;197.86383056640625;-97.80144500732422;-0.5044168829917908;-0.7580718994140625;-10.14105224609375;1.9946746826171875
1445424710499;197.9022216796875;-98.03889465332031;-0.28803545236587524;-1.8171844482421875;-10.631378173828125;2.092742919921875
1445424710531;197.2869873046875;-98.1731185913086;0.08703543990850449;-0.9345855712890625;-9.96453857421875;0.4648284912109375
1445424710565;197.0826416015625;-98.12455749511719;0.04569396376609802;0.8306121826171875;-9.042709350585938;-0.3393096923828125
1445424710597;196.7554931640625;-97.92210388183594;0.78448885679245;0.6737060546875;-9.023101806640625;-0.4177703857421875
1445424710631;196.86968994140625;-97.20851135253906;2.1620664596557617;-0.0716094970703125;-9.297683715820312;0.01373291015625
1445424710664;197.22283935546875;-96.71997833251953;2.6861507892608643;0.2618255615234375;-8.905410766601562;-0.3197021484375
1445424710696;198.4608154296875;-95.7726058959961;3.296208381652832;0.0656890869140625;-8.650436401367188;-0.5354461669921875
1445424710729;200.28082275390625;-94.78849029541016;3.724703788757324;-1.228790283203125;-9.238845825195312;-0.300079345703125
1445424710763;201.260986328125;-94.3481674194336;3.85286808013916;-1.797576904296875;-9.709564208984375;-0.4766082763671875
1445424710796;203.1068115234375;-93.8120346069336;4.047727584838867;-2.34674072265625;-9.434967041015625;-1.1630706787109375
1445424710829;204.75067138671875;-93.55075073242188;4.213046073913574;-2.7978515625;-8.76812744140625;-1.12384033203125
1445424710862;205.42718505859375;-93.40853881835938;4.143096923828125;-2.8370819091796875;-8.88580322265625;-1.143463134765625
1445424710895;206.6629638671875;-93.234375;3.8054778575897217;-2.621337890625;-9.081939697265625;-1.0257720947265625
1445424710928;207.1297607421875;-93.06671905517578;3.625624418258667;-3.288177490234375;-9.45458984375;-0.0451202392578125
1445424710960;207.59613037109375;-92.13864135742188;3.396430730819702;-3.7196807861328125;-10.6510009765625;-0.2804718017578125
1445424710994;208.38394165039062;-91.47130584716797;3.5819075107574463;-0.895355224609375;-12.41619873046875;-1.2219085693359375
1445424711026;209.08197021484375;-91.53690338134766;3.9996914863586426;-2.660552978515625;-11.90625;0.935546875
1445424711059;210.32904052734375;-90.93289184570312;5.358005046844482;-3.1901092529296875;-12.41619873046875;1.876983642578125
1445424711093;210.6890869140625;-90.03079223632812;7.018510341644287;-0.150054931640625;-11.965087890625;2.70074462890625
1445424711126;210.5419921875;-89.84159851074219;7.993692398071289;1.497467041015625;-11.298233032226562;1.8377685546875
1445424711159;210.24176025390625;-90.38887786865234;9.611329078674316;1.8897247314453125;-11.062881469726562;0.6021270751953125
1445424711191;210.84625244140625;-91.8963851928711;10.537254333496094;-0.4442596435546875;-10.101821899414062;0.876708984375
1445424711225;211.22311401367188;-92.27936553955078;10.774656295776367;-1.6406707763671875;-9.866470336914062;0.680572509765625
1445424711257;211.23876953125;-92.65177154541016;10.69436264038086;-2.993988037109375;-10.729446411132812;0.4059906005859375
1445424711291;210.70684814453125;-92.99677276611328;10.206954002380371;-2.0721588134765625;-10.415634155273438;-0.1039581298828125
1445424711324;208.84710693359375;-93.55235290527344;8.549341201782227;-1.3072357177734375;-9.552658081054688;-0.3785400390625
1445424711356;206.3621826171875;-94.38160705566406;7.145349025726318;-1.228790283203125;-8.277786254882812;-0.574676513671875
1445424711393;204.92926025390625;-94.7537841796875;6.646230220794678;-2.032928466796875;-8.1993408203125;-0.241241455078125
1445424711423;201.5692138671875;-95.32215118408203;5.789887428283691;-1.974090576171875;-8.336624145507812;-0.3197021484375
1445424711456;199.79742431640625;-95.49237823486328;5.21880578994751;-0.601165771484375;-8.866195678710938;-0.6727447509765625
1445424711489;196.22021484375;-95.55349731445312;4.227030277252197;-0.0716094970703125;-8.650436401367188;-0.94732666015625
1445424711522;192.66192626953125;-95.66881561279297;3.914036989212036;-0.01275634765625;-8.179718017578125;-1.06500244140625
1445424711555;191.11297607421875;-95.69026947021484;3.799309730529785;-0.5030975341796875;-9.219223022460938;-1.202301025390625
1445424711588;188.375244140625;-95.19076538085938;3.3769469261169434;-0.8169097900390625;-10.121444702148438;-1.12384033203125
1445424711621;186.0692138671875;-95.08658599853516;3.0341293811798096;-0.954193115234375;-10.925582885742188;-1.3592071533203125
1445424711653;184.9840087890625;-95.2009048461914;2.8555569648742676;-0.522705078125;-11.259017944335938;-2.6144561767578125
1445424711687;182.88665771484375;-95.07506561279297;2.6810762882232666;-1.3268585205078125;-11.082489013671875;-3.202850341796875
1445424711720;180.90380859375;-95.38864135742188;2.9046194553375244;-2.68017578125;-11.023651123046875;-1.51611328125
1445424711753;180.09429931640625;-95.0997085571289;2.453908920288086;-0.895355224609375;-13.024200439453125;-0.4766082763671875
1445424711785;178.53848266601562;-93.78793334960938;0.6260395050048828;0.0656890869140625;-12.278900146484375;-0.3981475830078125
1445424711818;176.41065979003906;-94.06586456298828;0.11072266846895218;0.5167999267578125;-10.14105224609375;0.386383056640625
1445424711852;175.32762145996094;-94.1792221069336;-0.009418189525604248;0.5560302734375;-10.552932739257812;0.994384765625
1445424711884;173.24801635742188;-93.31121826171875;-0.9275962114334106;-0.1892852783203125;-11.062881469726562;2.52423095703125
1445424711918;170.01937866210938;-92.92965698242188;-0.3508993089199066;-1.3268585205078125;-8.964248657226562;2.46539306640625
1445424711951;168.02723693847656;-93.02996826171875;0.21258120238780975;-1.4837646484375;-8.4935302734375;2.1711883544921875
1445424711984;164.32345581054688;-92.35910034179688;0.45089271664619446;-0.4246368408203125;-9.317291259765625;1.9554443359375
1445424712017;162.6985626220703;-91.75225067138672;0.28939288854599;0.595245361328125;-10.003753662109375;1.4258880615234375
1445424712050;159.7628173828125;-90.90946960449219;0.7590312957763672;0.3991241455078125;-9.984146118164062;1.1512908935546875
1445424712084;157.49391174316406;-90.20118713378906;1.686676263809204;-0.4246368408203125;-9.415359497070312;1.1512908935546875
1445424712115;156.65773010253906;-89.9158706665039;1.9448601007461548;-0.4638671875;-8.94464111328125;0.9159393310546875
1445424712157;155.37718200683594;-89.36244201660156;2.190709114074707;-0.895355224609375;-9.238845825195312;0.7982635498046875
1445424712185;154.67800903320312;-88.62754821777344;2.2834856510162354;-1.0130462646484375;-9.474197387695312;0.759033203125
1445424712216;154.5389862060547;-88.31153106689453;2.23797607421875;-1.20916748046875;-9.474197387695312;0.2686920166015625
1445424712248;154.5967254638672;-87.89122009277344;1.9878668785095215;-1.4249267578125;-9.317291259765625;0.2098541259765625
1445424712280;154.72335815429688;-87.85885620117188;1.8960223197937012;-1.7583465576171875;-9.3369140625;0.0333404541015625
1445424712317;155.08660888671875;-87.90380096435547;1.6446218490600586;-1.4837646484375;-10.062606811523438;-0.2020263671875
1445424712346;155.8646240234375;-87.73270416259766;0.9083926677703857;-1.2483978271484375;-10.5333251953125;-0.2020263671875
1445424712379;156.37501525878906;-87.6034927368164;0.46545860171318054;-1.9348602294921875;-10.5333251953125;0.111785888671875
1445424712413;157.43836975097656;-87.6197738647461;0.15350015461444855;-2.719390869140625;-10.552932739257812;-0.0254974365234375
1445424712446;158.59939575195312;-88.02508544921875;0.7564722895622253;-3.0135955810546875;-12.063156127929688;-0.810028076171875
1445424712478;159.19883728027344;-88.43433380126953;1.4043610095977783;-3.1901092529296875;-12.965362548828125;-0.182403564453125
1445424712512;159.4593048095703;-89.09332275390625;3.113856315612793;-3.621612548828125;-12.53387451171875;0.621734619140625
1445424712545;158.4558563232422;-89.66033172607422;4.879288196563721;-2.2486724853515625;-10.8275146484375;3.2499237060546875
1445424712581;157.51417541503906;-89.83727264404297;5.60892391204834;-0.228515625;-10.062606811523438;3.465667724609375
1445424712611;155.83596801757812;-89.59642791748047;6.127407550811768;3.1645965576171875;-11.415924072265625;1.8377685546875
1445424712643;155.09201049804688;-90.41024780273438;6.274184226989746;2.5369720458984375;-11.670883178710938;0.8374786376953125
1445424712676;154.89117431640625;-91.40412902832031;6.835058689117432;0.28143310546875;-10.788284301757812;0.621734619140625
1445424712710;153.96665954589844;-93.40271759033203;7.652000904083252;-3.288177490234375;-9.611495971679688;0.445220947265625
1445424712743;153.13046264648438;-93.9720687866211;7.440517902374268;-2.91552734375;-9.258453369140625;0.1510162353515625
1445424712775;150.84393310546875;-94.52527618408203;5.7260541915893555;-1.915252685546875;-9.180007934570312;-0.0843353271484375
1445424712809;148.14561462402344;-94.85771942138672;3.8119356632232666;-0.7972869873046875;-9.140777587890625;-0.4373779296875
1445424712842;146.7144775390625;-94.76927185058594;3.1411516666412354;-0.895355224609375;-8.689666748046875;-0.2216339111328125
1445424712875;143.92474365234375;-94.08268737792969;2.006685972213745;-0.7384490966796875;-8.1405029296875;-0.123565673828125
1445424712908;141.27037048339844;-93.36210632324219;0.8264235854148865;-0.0519866943359375;-8.160110473632812;-0.6727447509765625
1445424712941;139.9614715576172;-93.03599548339844;0.37161785364151;0.2618255615234375;-8.650436401367188;-1.0453948974609375
1445424712974;137.36758422851562;-92.51970672607422;-0.02792523056268692;0.026458740234375;-8.925033569335938;-1.084625244140625
1445424713007;135.1522216796875;-92.17393493652344;-0.22487087547779083;-0.522705078125;-9.00347900390625;-1.319976806640625
1445424713039;134.16978454589844;-92.08637237548828;-0.29777029156684875;-0.777679443359375;-9.238845825195312;-1.06500244140625
1445424713073;132.4691162109375;-91.7226791381836;-0.6031595468521118;-0.542327880859375;-10.435256958007812;-0.5354461669921875
1445424713106;131.4871368408203;-90.98905181884766;-1.3844211101531982;0.5167999267578125;-12.631942749023438;-1.9868316650390625
1445424713139;131.15931701660156;-91.00526428222656;-1.4535162448883057;-0.287353515625;-13.318405151367188;-1.496490478515625
1445424713172;130.11123657226562;-90.81610870361328;-1.5799341201782227;-1.1895599365234375;-13.200729370117188;0.24908447265625
1445424713205;129.6212158203125;-90.3560791015625;-2.046633243560791;1.928955078125;-11.553207397460938;0.621734619140625
1445424713238;128.7973175048828;-90.29557800292969;-3.1009151935577393;2.7723236083984375;-11.631668090820312;1.249359130859375
1445424713271;127.73263549804688;-89.75183868408203;-3.6489763259887695;1.732818603515625;-9.238845825195312;2.2888641357421875
1445424713304;126.87425231933594;-89.2893295288086;-3.2684812545776367;-0.58154296875;-7.68939208984375;2.0535125732421875
1445424713337;124.20828247070312;-89.34419250488281;-2.1163082122802734;-0.8169097900390625;-8.101272583007812;1.6612396240234375
1445424713369;121.693603515625;-89.16767120361328;-2.0434176921844482;0.4579620361328125;-9.474197387695312;1.523956298828125
1445424713403;120.71539306640625;-88.79935455322266;-2.121309518814087;0.7521514892578125;-9.572265625;1.21014404296875
1445424713436;119.02511596679688;-88.24372863769531;-0.9803251624107361;0.34027099609375;-8.983871459960938;0.955169677734375
1445424713468;117.965576171875;-87.22676086425781;0.03463760018348694;0.0656890869140625;-9.219223022460938;0.876708984375
1445424713502;117.73480224609375;-86.85065460205078;0.3024950921535492;0.0068511962890625;-9.219223022460938;0.9159393310546875
1445424713534;117.55044555664062;-86.32999420166016;1.041504144668579;-0.718841552734375;-9.376129150390625;0.876708984375
1445424713567;117.5675048828125;-86.10795593261719;1.620073914527893;-1.3660736083984375;-9.199615478515625;0.7786407470703125
1445424713600;117.910888671875;-85.88167572021484;2.4538605213165283;-1.915252685546875;-9.317291259765625;0.30792236328125
1445424713635;118.66368103027344;-85.899658203125;2.3628056049346924;-1.522979736328125;-9.90570068359375;-0.3785400390625
1445424713667;119.15603637695312;-86.07811737060547;2.162385940551758;-1.5426025390625;-9.45458984375;-0.064727783203125
1445424713701;120.29074096679688;-86.6526107788086;1.838775396347046;-1.738739013671875;-9.278060913085938;0.0333404541015625
1445424713736;120.90521240234375;-87.32784271240234;1.829404592514038;-3.856964111328125;-10.5921630859375;0.111785888671875
1445424713766;121.07041931152344;-87.45545959472656;2.0624077320098877;-2.2094573974609375;-13.2203369140625;-0.7315826416015625
1445424713798;121.81167602539062;-88.01304626464844;3.096982002258301;-0.660003662109375;-13.55377197265625;-0.005889892578125
1445424713833;121.87442016601562;-88.46265411376953;4.955214977264404;-0.8169097900390625;-12.043548583984375;2.779205322265625
1445424713864;121.72036743164062;-87.92057037353516;5.982468128204346;-0.3854217529296875;-11.357070922851562;3.583343505859375
1445424713900;121.84515380859375;-86.72093963623047;7.400485038757324;2.2623748779296875;-11.27862548828125;3.2303009033203125
1445424713932;122.76229858398438;-87.62327575683594;8.252469062805176;2.301605224609375;-11.435531616210938;1.308197021484375
1445424713963;123.37841796875;-88.65257263183594;8.553116798400879;0.8502197265625;-11.317855834960938;0.955169677734375
1445424713996;124.2760009765625;-90.32942199707031;8.542336463928223;-2.0133209228515625;-11.494369506835938;0.621734619140625
1445424714030;124.39083862304688;-90.8685302734375;8.164051055908203;-2.366363525390625;-9.768402099609375;0.30792236328125
1445424714063;124.05470275878906;-92.05170440673828;6.947218894958496;-1.9348602294921875;-8.571990966796875;-0.005889892578125
1445424714096;122.76837158203125;-92.85416412353516;5.555664539337158;-1.1307220458984375;-7.2186737060546875;-0.4569854736328125
1445424714129;121.98953247070312;-92.97982025146484;4.774815082550049;-0.836517333984375;-7.257904052734375;-0.4962158203125
1445424714161;120.4132080078125;-93.16101837158203;3.341425657272339;-0.34619140625;-7.35595703125;-0.94732666015625
1445424714195;119.52691650390625;-93.24037170410156;2.9438343048095703;-0.150054931640625;-7.316741943359375;-1.2807464599609375
1445424714227;117.7215576171875;-93.12227630615234;2.4985580444335938;-0.150054931640625;-7.9051361083984375;-1.378814697265625
1445424714261;116.16607666015625;-92.65635681152344;2.018470287322998;-0.640380859375;-9.788009643554688;-1.888763427734375
1445424714294;115.37359619140625;-92.41942596435547;1.8582004308700562;-1.464141845703125;-11.612045288085938;-1.18267822265625
1445424714326;113.6522216796875;-92.32575988769531;2.107713460922241;-0.8169097900390625;-11.965087890625;-0.88848876953125
1445424714360;112.54389953613281;-92.14061737060547;1.8798736333847046;1.0659637451171875;-13.691055297851562;-1.888763427734375
1445424714395;112.77082824707031;-92.19422912597656;1.3269016742706299;1.164031982421875;-14.730560302734375;-0.2608642578125
1445424714425;114.03158569335938;-92.18287658691406;0.06022179126739502;0.869842529296875;-14.083328247070312;0.3471527099609375
1445424714459;115.53445434570312;-91.82162475585938;-1.0373318195343018;2.5173492431640625;-11.33746337890625;0.994384765625
1445424714492;116.15414428710938;-92.24302673339844;-1.5968010425567627;2.0270233154296875;-8.670059204101562;1.7789306640625
1445424714525;116.44277954101562;-93.1509780883789;-1.7959611415863037;0.3991241455078125;-8.630828857421875;2.0731201171875
1445424714558;115.50970458984375;-94.02667236328125;-0.8608189821243286;-1.9544830322265625;-10.180282592773438;2.0535125732421875
1445424714590;115.03610229492188;-94.20354461669922;-0.5935421586036682;-1.228790283203125;-10.376419067382812;1.249359130859375
1445424714624;114.21589660644531;-94.15319061279297;-0.18822839856147766;0.8894500732421875;-8.94464111328125;0.111785888671875
1445424714657;113.52194213867188;-93.87064361572266;1.0828388929367065;0.8306121826171875;-7.7874603271484375;0.3471527099609375
1445424714690;113.38111877441406;-93.52616882324219;1.7400739192962646;0.5167999267578125;-8.101272583007812;0.4844512939453125
1445424714722;113.53326416015625;-92.79576110839844;2.572105646133423;0.16375732421875;-9.00347900390625;0.111785888671875
1445424714755;113.95794677734375;-92.4590835571289;2.8148386478424072;-0.3657989501953125;-8.807342529296875;0.0333404541015625
1445424714789;115.18069458007812;-91.82041931152344;3.5416553020477295;-1.0130462646484375;-8.709274291992188;0.052947998046875
1445424714821;116.70355224609375;-91.23181915283203;3.8532676696777344;-1.9936981201171875;-9.101547241210938;-0.3197021484375
1445424714855;117.56771850585938;-91.04063415527344;3.6425578594207764;-1.8956451416015625;-9.670333862304688;-0.88848876953125
1445424714888;119.26774597167969;-90.80159759521484;2.9908347129821777;-1.797576904296875;-9.846847534179688;-0.9277191162109375
1445424714920;120.63693237304688;-90.65050506591797;2.44555401802063;-1.9348602294921875;-10.297958374023438;-0.868865966796875
1445424714954;120.9658203125;-90.70759582519531;2.4889626502990723;-2.601715087890625;-10.415634155273438;-0.4177703857421875
1445424714987;120.94200134277344;-90.89088439941406;3.41446852684021;-3.856964111328125;-11.415924072265625;-1.6730194091796875
1445424715020;121.16090393066406;-91.37657928466797;4.346660137176514;-1.4249267578125;-12.945755004882812;-1.3003692626953125
1445424715052;121.0994873046875;-91.48798370361328;4.933105945587158;-0.836517333984375;-12.671173095703125;0.111785888671875
1445424715086;120.70596313476562;-90.23783111572266;6.394627571105957;0.026458740234375;-11.90625;3.093017578125
1445424715119;120.6627197265625;-89.15066528320312;6.926887512207031;2.6546478271484375;-11.474761962890625;3.289154052734375
1445424715152;121.19094848632812;-88.2470932006836;7.8148932456970215;3.1253662109375;-11.867019653320312;2.269256591796875
1445424715185;122.19329833984375;-90.58161926269531;9.232666015625;1.438629150390625;-11.39630126953125;0.641357421875
1445424715218;122.835693359375;-92.06148529052734;9.580718040466309;-1.2680206298828125;-10.160659790039062;-0.0254974365234375
1445424715252;123.72245788574219;-93.6461181640625;9.063121795654297;-2.091766357421875;-9.886077880859375;-0.1627960205078125
1445424715284;123.884521484375;-94.2574234008789;7.74086856842041;-2.4644317626953125;-8.532760620117188;-0.7119598388671875
1445424715322;122.8740234375;-94.59866333007812;6.218418121337891;-1.8760223388671875;-7.7089996337890625;-0.7315826416015625
1445424715350;122.16412353515625;-94.32014465332031;5.419116020202637;-1.3072357177734375;-7.68939208984375;-0.6727447509765625
1445424715383;120.80642700195312;-93.66143035888672;3.754944086074829;0.0068511962890625;-7.74822998046875;-0.82965087890625
1445424715417;120.1578369140625;-93.3382568359375;3.038797616958618;0.28143310546875;-7.6501617431640625;-1.0257720947265625
1445424715451;118.5621337890625;-92.61653900146484;2.139728307723999;0.1441497802734375;-8.2581787109375;-1.18267822265625
1445424715482;117.73822021484375;-92.40069580078125;1.8671152591705322;-0.150054931640625;-9.12115478515625;-1.6337890625
1445424715515;116.08821105957031;-92.22171783447266;1.67573881149292;-0.228515625;-9.552658081054688;-1.5357208251953125
1445424715549;114.82766723632812;-92.06238555908203;2.043463945388794;-0.1304473876953125;-11.847412109375;-1.3592071533203125
1445424715581;114.42379760742188;-91.88643646240234;2.029853105545044;0.5560302734375;-13.141891479492188;-2.967498779296875
1445424715614;114.02297973632812;-91.7212142944336;1.318981647491455;-0.1892852783203125;-12.59271240234375;-2.4967803955078125
1445424715647;113.99334716796875;-92.57235717773438;1.3247137069702148;-0.8169097900390625;-12.945755004882812;-0.3785400390625
1445424715680;114.0758056640625;-92.42284393310547;1.0340478420257568;1.6935882568359375;-13.2203369140625;0.9159393310546875
1445424715712;115.21055603027344;-91.77194213867188;-0.984430730342865;3.0272979736328125;-13.024200439453125;1.1512908935546875
1445424715746;115.71905517578125;-91.73818969726562;-2.1660220623016357;2.2623748779296875;-10.160659790039062;2.445770263671875
1445424715779;115.8946533203125;-92.05674743652344;-2.3387837409973145;0.4971771240234375;-8.5523681640625;2.75958251953125
1445424715812;114.94223022460938;-93.2665786743164;-1.0071837902069092;-1.6406707763671875;-7.885528564453125;2.4261627197265625
1445424715845;114.3369140625;-93.54129791259766;-0.9201497435569763;0.8306121826171875;-9.591873168945312;1.582794189453125
1445424715878;113.91168212890625;-93.0047836303711;-1.3115637302398682;2.1446990966796875;-9.650726318359375;1.0924530029296875
1445424715910;114.107421875;-92.3453598022461;-0.2445283681154251;1.98779296875;-8.336624145507812;0.6609649658203125
1445424715944;114.3853759765625;-91.95161437988281;0.48601481318473816;0.5756378173828125;-9.00347900390625;0.7786407470703125
1445424715977;115.40478515625;-90.77169036865234;1.2564131021499634;0.28143310546875;-9.297683715820312;0.759033203125
1445424716009;116.9439697265625;-89.7234115600586;1.690158724784851;-0.4834747314453125;-9.199615478515625;0.504058837890625
1445424716043;117.79179382324219;-89.31878662109375;1.9114055633544922;-1.1895599365234375;-8.905410766601562;0.30792236328125
1445424716076;119.609375;-88.28326416015625;1.981959581375122;-1.2680206298828125;-8.866195678710938;0.36676025390625
1445424716109;121.47067260742188;-87.10455322265625;1.4286051988601685;-1.3660736083984375;-9.317291259765625;-0.005889892578125
1445424716142;122.42877197265625;-86.61261749267578;1.017770528793335;-1.20916748046875;-9.748779296875;-0.1039581298828125
1445424716174;124.20201110839844;-86.12874603271484;0.12034290283918381;-1.0130462646484375;-10.552932739257812;-0.3589324951171875
1445424716207;124.95611572265625;-86.10287475585938;-0.07929681241512299;-1.3856964111328125;-10.7098388671875;0.621734619140625
1445424716241;125.58132934570312;-86.42301940917969;0.38652676343917847;-2.425201416015625;-10.9451904296875;0.5236663818359375
1445424716274;126.29283142089844;-87.21942138671875;1.4171525239944458;-2.5624847412109375;-12.769241333007812;-1.1042327880859375
1445424716311;126.70205688476562;-87.95317840576172;2.153271436691284;-1.0718841552734375;-12.730010986328125;0.19024658203125
1445424716343;126.59132385253906;-88.45507049560547;4.039610385894775;-1.1895599365234375;-12.161224365234375;1.6220245361328125
1445424716372;126.31735229492188;-87.86029052734375;5.490922451019287;1.98779296875;-10.062606811523438;3.72064208984375
1445424716408;126.35198974609375;-87.53440856933594;6.07282018661499;2.9684600830078125;-11.474761962890625;1.6808624267578125
1445424716439;126.63188171386719;-87.4748764038086;7.25793981552124;2.1446990966796875;-11.690505981445312;1.014007568359375
1445424716474;127.32647705078125;-88.93836212158203;8.089988708496094;-0.954193115234375;-11.023651123046875;0.5432891845703125
1445424716507;127.44970703125;-89.95454406738281;8.215994834899902;-2.17022705078125;-10.454864501953125;0.5236663818359375
1445424716537;126.84523010253906;-91.47501373291016;8.02720832824707;-2.7782440185546875;-9.493820190429688;0.36676025390625
1445424716571;125.53762817382812;-92.41499328613281;7.060913562774658;-1.20916748046875;-8.297409057617188;-0.2020263671875
1445424716603;124.65556335449219;-92.81375122070312;6.415460586547852;-0.601165771484375;-7.885528564453125;-0.5550537109375
1445424716636;122.67205810546875;-93.38850402832031;5.350499629974365;-0.1892852783203125;-7.80706787109375;-1.00616455078125
1445424716669;121.6412353515625;-93.5324478149414;4.847043037414551;-0.208892822265625;-7.7089996337890625;-0.88848876953125
1445424716704;119.494140625;-93.5497055053711;3.9009082317352295;-0.267730712890625;-7.669769287109375;-0.9080963134765625
1445424716735;117.36322021484375;-93.34185791015625;2.9371182918548584;-0.5030975341796875;-8.650436401367188;-0.9277191162109375
1445424716769;116.37179565429688;-93.11328887939453;2.5730504989624023;-0.4834747314453125;-10.396026611328125;-1.4180450439453125
1445424716802;114.4498291015625;-92.67526245117188;2.461254119873047;-0.4638671875;-11.023651123046875;-1.1630706787109375
1445424716835;112.89968872070312;-92.44567108154297;2.8110709190368652;0.0656890869140625;-10.788284301757812;-0.6138916015625
1445424716867;112.36532592773438;-92.26875305175781;2.7138445377349854;0.477569580078125;-11.023651123046875;-1.9868316650390625
1445424716900;111.61624145507812;-92.4493637084961;2.4184701442718506;-1.111114501953125;-12.35736083984375;-1.51611328125
1445424716933;111.17518615722656;-92.8570785522461;1.967358112335205;-0.9345855712890625;-13.90679931640625;0.2294769287109375
1445424716973;111.56903076171875;-92.28673553466797;0.26944854855537415;1.9485626220703125;-11.965087890625;0.7982635498046875
1445424717000;111.84298706054688;-92.54074096679688;-0.4925276041030884;3.2430419921875;-10.788284301757812;0.955169677734375
1445424717032;111.97100830078125;-92.76704406738281;-1.003117561340332;1.9093475341796875;-10.160659790039062;2.1907958984375
1445424717068;111.19976806640625;-93.06019592285156;-1.1715666055679321;0.2618255615234375;-9.650726318359375;2.7399749755859375
1445424717103;109.52133178710938;-93.61210632324219;-0.8652317523956299;-1.0718841552734375;-9.513427734375;2.1123504638671875
1445424717133;108.820068359375;-93.63420104980469;-0.9423097968101501;1.164031982421875;-9.827239990234375;0.445220947265625
1445424717164;107.91909790039062;-93.37228393554688;-0.6856085658073425;1.6935882568359375;-9.160385131835938;0.24908447265625
1445424717197;107.45274353027344;-93.11060333251953;0.7076205015182495;0.8502197265625;-8.1993408203125;0.5236663818359375
1445424717231;107.3985595703125;-92.75383758544922;1.387946605682373;0.2618255615234375;-8.905410766601562;0.4256134033203125
1445424717264;107.86422729492188;-91.98596954345703;1.9228988885879517;0.301055908203125;-9.023101806640625;0.2294769287109375
1445424717296;108.32144165039062;-91.69762420654297;2.176112413406372;-0.326568603515625;-9.101547241210938;-0.0254974365234375
1445424717330;109.46881103515625;-91.22010803222656;2.8021583557128906;-0.954193115234375;-9.101547241210938;-0.123565673828125
1445424717362;110.85223388671875;-90.81716918945312;3.0752084255218506;-1.7583465576171875;-9.101547241210938;-0.5354461669921875
1445424717396;111.57437133789062;-90.66944122314453;2.947267770767212;-1.7779541015625;-9.12115478515625;-0.82965087890625
1445424717428;113.05604553222656;-90.40352630615234;2.3418426513671875;-1.7583465576171875;-9.081939697265625;-1.06500244140625
1445424717461;114.40695190429688;-90.13365936279297;1.8378511667251587;-2.719390869140625;-10.5921630859375;-0.515838623046875
1445424717496;114.68525695800781;-90.05946350097656;1.6322842836380005;-3.4450836181640625;-11.33746337890625;-0.77081298828125
1445424717528;114.36636352539062;-90.06194305419922;1.599289894104004;-2.9547576904296875;-11.749343872070312;-1.771087646484375
1445424717561;114.30923461914062;-90.20000457763672;2.441419839859009;-0.91497802734375;-13.141891479492188;-1.5553436279296875
1445424717593;114.19378662109375;-90.41986083984375;3.2138254642486572;-1.4249267578125;-12.435806274414062;1.8966064453125
1445424717627;113.07382202148438;-89.76490020751953;5.118424892425537;-1.169952392578125;-11.51397705078125;3.5048980712890625
1445424717660;112.46318054199219;-89.04452514648438;6.015923023223877;2.5173492431640625;-10.729446411132812;3.77947998046875
1445424717693;112.09347534179688;-87.76614379882812;7.011791706085205;3.615692138671875;-11.572830200195312;2.6222991943359375
1445424717726;112.45819091796875;-88.20115661621094;7.9372334480285645;1.8701171875;-11.78857421875;1.0532379150390625
1445424717758;112.57804870605469;-89.20857238769531;8.600567817687988;-2.5821075439453125;-10.670608520507812;0.896331787109375
1445424717791;112.33168029785156;-91.14679718017578;9.577598571777344;-3.8765869140625;-10.219512939453125;0.7394256591796875
1445424717824;111.10928344726562;-92.68801879882812;8.694912910461426;-2.9547576904296875;-8.88580322265625;0.1510162353515625
1445424717858;110.31672668457031;-93.33973693847656;7.533928871154785;-0.405029296875;-7.6501617431640625;-0.515838623046875
1445424717891;108.47659301757812;-94.19066619873047;5.732532978057861;0.1441497802734375;-7.7286224365234375;-0.77081298828125
1445424717923;106.51925659179688;-94.63026428222656;4.620568752288818;0.1245269775390625;-8.336624145507812;-1.0257720947265625
1445424717960;105.65798950195312;-94.8891830444336;4.164531707763672;-0.3069610595703125;-7.7286224365234375;-1.084625244140625
1445424717990;104.00067138671875;-95.24484252929688;3.5914108753204346;-0.287353515625;-7.68939208984375;-1.261138916015625
1445424718023;102.56942749023438;-95.2208023071289;2.99292254447937;-0.1696624755859375;-8.513153076171875;-1.8691558837890625
1445424718057;101.94476318359375;-95.34554290771484;2.80196213722229;-0.267730712890625;-8.983871459960938;-2.32025146484375
1445424718089;100.65875244140625;-95.62846374511719;2.9095005989074707;-0.7972869873046875;-10.631378173828125;-1.319976806640625
1445424718123;100.0743408203125;-95.1214828491211;2.481163740158081;0.28143310546875;-12.769241333007812;-2.4379425048828125
1445424718155;100.10256958007812;-95.0107192993164;1.9520854949951172;0.0656890869140625;-12.29852294921875;-3.51666259765625
1445424718188;100.2000732421875;-95.99443817138672;1.9926260709762573;-1.8367919921875;-11.631668090820312;-1.712249755859375
1445424718220;100.26873779296875;-95.71472930908203;1.6302907466888428;-0.326568603515625;-14.279464721679688;-0.2216339111328125
1445424718254;101.00360107421875;-94.81401824951172;-0.4094289541244507;1.105194091796875;-13.083053588867188;0.36676025390625
1445424718286;101.56683349609375;-95.27136993408203;-1.6320348978042603;2.9488525390625;-10.121444702148438;1.1709136962890625
1445424718322;101.4195556640625;-95.27079010009766;-1.7384198904037476;0.6737060546875;-9.493820190429688;2.210418701171875
1445424718352;100.165771484375;-95.54942321777344;-1.343833327293396;-0.7384490966796875;-9.101547241210938;2.210418701171875
1445424718386;98.3177490234375;-96.05892944335938;-0.7045602798461914;-1.15032958984375;-10.376419067382812;1.2297515869140625
1445424718420;97.57748413085938;-95.86774444580078;-0.5146480798721313;0.8109893798828125;-10.121444702148438;0.4059906005859375
1445424718451;96.2515869140625;-95.09231567382812;0.5005704164505005;1.0071258544921875;-8.88580322265625;0.1706390380859375
1445424718485;95.6959228515625;-94.75376892089844;1.1385273933410645;0.418731689453125;-7.885528564453125;0.2883148193359375
1445424718521;95.1790771484375;-93.6589126586914;1.7535492181777954;-0.01275634765625;-8.748504638671875;0.4256134033203125
1445424718550;95.46673583984375;-92.31299591064453;1.8213597536087036;-0.208892822265625;-8.728897094726562;0.2686920166015625
1445424718583;95.89205932617188;-91.67141723632812;1.9246259927749634;-1.0130462646484375;-8.787734985351562;0.052947998046875
1445424718617;97.13375854492188;-90.45234680175781;2.041393280029297;-1.3268585205078125;-8.866195678710938;0.0333404541015625
1445424718651;98.60806274414062;-89.4616928100586;1.614698052406311;-1.6406707763671875;-9.827239990234375;-0.5550537109375
1445424718683;99.3209228515625;-89.01533508300781;1.190263032913208;-2.1898345947265625;-10.31756591796875;-0.4962158203125
1445424718717;100.810546875;-88.4349365234375;0.345001757144928;-1.9348602294921875;-10.435256958007812;-0.3589324951171875
1445424718752;101.23348999023438;-88.32460021972656;-0.07143183797597885;-3.0135955810546875;-10.19989013671875;0.24908447265625
1445424718785;101.02603149414062;-88.41463470458984;0.0664355605840683;-3.680450439453125;-11.16094970703125;-0.4569854736328125
1445424718815;100.64605712890625;-88.69398498535156;0.8681110143661499;-1.6798858642578125;-14.181396484375;-0.1627960205078125
1445424718849;99.75759887695312;-88.70298767089844;2.1683974266052246;-0.601165771484375;-12.631942749023438;2.2888641357421875
1445424718880;99.0357666015625;-88.85549926757812;3.081528425216675;-0.4442596435546875;-11.062881469726562;3.6814117431640625
1445424718914;97.6031494140625;-88.69517517089844;4.747100353240967;2.10546875;-10.925582885742188;3.465667724609375
1445424718947;97.2384033203125;-88.1426773071289;5.14310884475708;3.3018798828125;-12.573104858398438;1.759307861328125
1445424718980;97.1346435546875;-87.9794692993164;5.755023002624512;2.0858612060546875;-12.02392578125;1.465118408203125
1445424719013;96.88360595703125;-89.43006896972656;6.741569995880127;-1.6995086669921875;-10.670608520507812;1.131683349609375
1445424719047;96.37832641601562;-90.31974792480469;6.931992530822754;-2.6409454345703125;-9.06231689453125;0.641357421875
1445424719079;94.75616455078125;-91.4141616821289;5.894224643707275;-1.974090576171875;-8.415084838867188;0.2294769287109375
1445424719111;92.33456420898438;-92.13419342041016;4.325967311859131;-0.954193115234375;-8.179718017578125;-0.064727783203125
1445424719145;90.86843872070312;-92.27008819580078;3.667285919189453;-0.542327880859375;-8.395462036132812;0.13140869140625
1445424719178;87.9754638671875;-92.07164001464844;2.381970167160034;0.026458740234375;-8.218948364257812;-0.0451202392578125
1445424719211;86.54928588867188;-91.94647216796875;1.7889565229415894;0.0656890869140625;-7.7286224365234375;-0.7119598388671875
1445424719243;83.665771484375;-92.17507934570312;1.015774130821228;-0.032379150390625;-7.68939208984375;-0.9669342041015625
1445424719276;80.73880004882812;-92.32134246826172;0.6341447830200195;-0.7384490966796875;-8.4935302734375;-0.9865570068359375
1445424719309;79.3765869140625;-92.16954040527344;0.4768090546131134;-0.8757476806640625;-9.788009643554688;-0.6531219482421875
1445424719343;76.86801147460938;-91.93136596679688;-0.016522228717803955;-0.601165771484375;-11.141326904296875;-0.868865966796875
1445424719375;75.21630859375;-91.93887329101562;-0.5810336470603943;0.7129364013671875;-12.59271240234375;-1.3003692626953125
1445424719408;74.74188232421875;-92.02985382080078;-0.8264558911323547;0.34027099609375;-12.690780639648438;-1.6533966064453125
1445424719442;74.529296875;-92.86905670166016;-1.2142919301986694;-0.3854217529296875;-13.455703735351562;-0.7119598388671875
1445424719475;74.30804443359375;-93.0538330078125;-1.9412583112716675;-0.287353515625;-13.0438232421875;0.6021270751953125
1445424719507;74.3438720703125;-93.30681610107422;-2.2775115966796875;1.673980712890625;-9.474197387695312;0.876708984375
1445424719541;73.96810913085938;-93.97988891601562;-2.948216438293457;1.673980712890625;-9.042709350585938;1.2885894775390625
1445424719574;72.16064453125;-93.82258605957031;-3.657726287841797;-0.2481231689453125;-10.788284301757812;2.9361114501953125
1445424719606;70.9908447265625;-93.7651138305664;-3.7221713066101074;-0.777679443359375;-10.749069213867188;2.3673248291015625
1445424719639;68.60714721679688;-93.39874267578125;-3.5583548545837402;0.7913818359375;-9.846847534179688;0.8571014404296875
1445424719673;67.427490234375;-93.16229248046875;-3.2452430725097656;0.9678955078125;-7.92474365234375;0.7982635498046875
1445424719706;65.13592529296875;-92.75349426269531;-2.1479196548461914;0.654083251953125;-7.92474365234375;0.9159393310546875
1445424719738;63.21551513671875;-91.69778442382812;-1.4363785982131958;0.6933135986328125;-8.611221313476562;0.8374786376953125
1445424719771;62.589385986328125;-91.07994079589844;-1.3507574796676636;0.4971771240234375;-8.532760620117188;0.6021270751953125
1445424719805;61.98834228515625;-90.02218627929688;-1.0722025632858276;-0.3069610595703125;-8.650436401367188;0.4648284912109375
1445424719838;61.7027587890625;-89.36547088623047;-0.5401137471199036;-1.8760223388671875;-9.140777587890625;0.4256134033203125
1445424719870;61.623077392578125;-89.1613540649414;-0.45818933844566345;-1.9544830322265625;-9.96453857421875;-0.4766082763671875
1445424719904;61.442840576171875;-88.92571258544922;-0.5266065001487732;-2.0133209228515625;-10.101821899414062;-0.4962158203125
1445424719938;61.39007568359375;-89.17868041992188;-0.37467440962791443;-1.6210479736328125;-10.219512939453125;-0.3981475830078125
1445424719970;61.2412109375;-89.27210235595703;-0.39306169748306274;-1.5622100830078125;-10.337188720703125;-0.5550537109375
1445424720003;60.507568359375;-89.71507263183594;-0.28358036279678345;-3.111663818359375;-11.043258666992188;-0.8492584228515625
1445424720036;59.276123046875;-90.5140151977539;0.6717935800552368;-2.621337890625;-12.65155029296875;-0.3197021484375
1445424720069;58.642913818359375;-90.94218444824219;1.1274381875991821;-1.6014404296875;-12.435806274414062;0.7001953125
1445424720102;56.95166015625;-91.1824951171875;2.0214381217956543;-0.5030975341796875;-10.415634155273438;3.4460601806640625
1445424720135;55.946929931640625;-90.88863372802734;2.512026309967041;1.36016845703125;-10.866744995117188;4.269805908203125
1445424720168;54.58447265625;-89.91682434082031;3.376776695251465;2.2231597900390625;-12.180831909179688;3.0537872314453125
1445424720202;54.20758056640625;-89.90507507324219;4.273783206939697;2.183929443359375;-12.906524658203125;1.3670501708984375
1445424720234;53.8658447265625;-90.77127838134766;4.757678985595703;-1.8171844482421875;-11.494369506835938;0.81787109375
1445424720268;51.848236083984375;-93.10546112060547;5.389180660247803;-3.4647064208984375;-10.474472045898438;0.641357421875
1445424720301;48.17041015625;-95.04999542236328;4.541949272155762;-3.8373565673828125;-8.473922729492188;0.4256134033203125
1445424720334;45.643707275390625;-95.61238098144531;3.5625157356262207;-3.24896240234375;-8.1993408203125;0.58251953125
1445424720369;39.786712646484375;-95.78958129882812;1.6291290521621704;-1.6602783203125;-8.846572875976562;1.014007568359375
1445424720401;34.3795166015625;-95.63748168945312;-0.16716399788856506;1.0071258544921875;-8.650436401367188;0.680572509765625
1445424720434;32.29010009765625;-95.60086822509766;-0.9355401396751404;2.066253662109375;-7.57171630859375;-0.574676513671875
1445424720467;28.820587158203125;-95.54251861572266;-1.7098313570022583;1.36016845703125;-7.826690673828125;-1.18267822265625
1445424720497;27.299591064453125;-95.64251708984375;-1.7601271867752075;0.0068511962890625;-9.317291259765625;-1.3984375
1445424720531;24.592071533203125;-96.14446258544922;-1.8494104146957397;-0.601165771484375;-9.886077880859375;-1.6141815185546875
1445424720563;22.16741943359375;-96.61760711669922;-1.9107930660247803;-1.405303955078125;-10.25872802734375;-1.4180450439453125
