sep=;
timestamp;gyro-alpha;gyro-beta;gyro-gamma;accel-x;accel-y;accel-z
1445424842946;23.588623046875;-103.87149047851562;11.297348022460938;-1.738739013671875;-8.866195678710938;-3.1832427978515625
1445424842974;26.3004150390625;-103.21501922607422;9.748605728149414;-1.8956451416015625;-7.5128631591796875;-1.888763427734375
1445424843007;27.9595947265625;-102.15279388427734;5.739255905151367;-2.2094573974609375;-9.101547241210938;-1.6337890625
1445424843040;31.6904296875;-100.94237518310547;3.4365174770355225;-0.6207733154296875;-12.180831909179688;-2.2418060302734375
1445424843075;34.00958251953125;-101.0606689453125;3.0922844409942627;-0.2481231689453125;-11.984695434570312;-2.967498779296875
1445424843107;34.71826171875;-101.74231719970703;1.9989769458770752;-0.8169097900390625;-10.376419067382812;-3.0067291259765625
1445424843139;31.58624267578125;-101.92973327636719;1.3564460277557373;-0.7580718994140625;-9.709564208984375;-2.5556182861328125
1445424843173;30.5177001953125;-102.22108459472656;0.9927365779876709;-0.777679443359375;-9.631103515625;-2.457550048828125
1445424843206;30.881500244140625;-102.66560363769531;-0.15785782039165497;-0.640380859375;-6.2772369384765625;-2.1045074462890625
1445424843239;31.86090087890625;-102.41480255126953;-1.4730472564697266;-0.3854217529296875;-9.493820190429688;-1.143463134765625
1445424843272;35.1607666015625;-101.4696044921875;-5.501360893249512;-0.4442596435546875;-12.631942749023438;-1.6730194091796875
1445424843304;34.444244384765625;-99.56736755371094;-9.573314666748047;0.28143310546875;-12.063156127929688;-2.908660888671875
1445424843338;30.94525146484375;-98.02313232421875;-10.128798484802246;2.242767333984375;-9.866470336914062;-2.065277099609375
1445424843370;27.781158447265625;-97.73126220703125;-10.567506790161133;2.10546875;-9.533035278320312;-2.1241302490234375
1445424843404;28.015716552734375;-100.35497283935547;-10.821803092956543;0.8894500732421875;-8.787734985351562;-2.1633453369140625
1445424843436;27.39593505859375;-101.37451934814453;-10.505455017089844;0.5167999267578125;-8.513153076171875;-1.96722412109375
1445424843470;24.726776123046875;-101.34060668945312;-9.465807914733887;0.477569580078125;-8.1405029296875;-1.771087646484375
1445424843502;22.368408203125;-99.38848876953125;-8.204591751098633;0.869842529296875;-8.277786254882812;-1.06500244140625
1445424843535;21.460296630859375;-98.13642883300781;-7.665356159210205;1.0267486572265625;-8.277786254882812;-0.4766082763671875
1445424843569;20.564483642578125;-96.6500473022461;-7.18054723739624;1.222869873046875;-8.003204345703125;0.386383056640625
1445424843602;18.73199462890625;-92.9836654663086;-6.286226272583008;1.105194091796875;-7.3363494873046875;0.445220947265625
1445424843634;16.26129150390625;-88.64347076416016;-5.529636383056641;1.12481689453125;-7.552093505859375;0.5236663818359375
1445424843667;13.810516357421875;-84.67532348632812;-4.67200231552124;1.3797760009765625;-8.532760620117188;0.994384765625
1445424843703;13.340606689453125;-83.37118530273438;-4.362280368804932;1.5759124755859375;-9.160385131835938;1.21014404296875
1445424843733;13.510528564453125;-82.20259857177734;-4.1138529777526855;1.6543731689453125;-10.729446411132812;1.2297515869140625
1445424843767;13.50897216796875;-82.92517852783203;-4.000307083129883;1.36016845703125;-10.376419067382812;1.21014404296875
1445424843801;13.074798583984375;-83.41371154785156;-3.9901058673858643;0.16375732421875;-9.90570068359375;0.4844512939453125
1445424843832;11.205535888671875;-83.64995574951172;-3.626744508743286;-0.34619140625;-9.788009643554688;0.2883148193359375
1445424843865;10.207672119140625;-83.59960174560547;-3.3416168689727783;-0.97381591796875;-9.748779296875;-0.0451202392578125
1445424843898;8.51995849609375;-83.58614349365234;-2.7442309856414795;-1.169952392578125;-9.768402099609375;0.01373291015625
1445424843931;7.136688232421875;-83.94365692138672;-2.0880117416381836;-0.660003662109375;-10.062606811523438;0.4844512939453125
1445424843964;6.361053466796875;-84.2265853881836;-1.800413966178894;-0.542327880859375;-10.356796264648438;0.6609649658203125
1445424843996;3.976318359375;-84.57073211669922;-0.968390941619873;-0.522705078125;-10.121444702148438;0.955169677734375
1445424844031;2.088958740234375;-84.4077377319336;0.10409438610076904;-0.34619140625;-9.886077880859375;2.70074462890625
1445424844063;1.684814453125;-84.10294342041016;0.7092039585113525;-0.5619354248046875;-10.02337646484375;2.838043212890625
1445424844097;0.213623046875;-83.0958023071289;2.5651328563690186;-0.954193115234375;-11.90625;3.093017578125
1445424844130;358.105224609375;-82.8869400024414;4.448870658874512;-1.1307220458984375;-15.024765014648438;2.1907958984375
1445424844163;357.6667785644531;-83.29725646972656;5.036314964294434;-0.954193115234375;-17.08416748046875;1.4258880615234375
1445424844195;358.2767028808594;-85.19185638427734;5.712084770202637;-0.2481231689453125;-17.535263061523438;-1.319976806640625
1445424844229;358.5447998046875;-86.58646392822266;5.794130325317383;-0.3657989501953125;-13.2203369140625;-2.2418060302734375
1445424844261;357.926513671875;-88.7596206665039;5.305696964263916;-0.4638671875;-10.964813232421875;-1.692626953125
1445424844294;357.2569885253906;-89.52720642089844;4.408915042877197;-0.6207733154296875;-7.8462982177734375;-0.1039581298828125
1445424844328;357.57513427734375;-89.23869323730469;3.2990200519561768;-1.169952392578125;-6.2183990478515625;0.30792236328125
1445424844361;357.58648681640625;-88.90474700927734;2.9025628566741943;-1.3072357177734375;-6.414520263671875;0.36676025390625
1445424844394;357.0807189941406;-89.00617980957031;2.6030752658843994;-0.7580718994140625;-8.1405029296875;-0.241241455078125
1445424844426;357.3492736816406;-89.95600891113281;2.254423141479492;-0.1892852783203125;-11.200164794921875;-1.829925537109375
1445424844460;358.6856384277344;-93.50918579101562;1.0083792209625244;0.04608154296875;-12.631942749023438;-2.5359954833984375
1445424844492;358.625244140625;-96.899169921875;-0.4454570412635803;-0.3069610595703125;-12.200454711914062;-3.477447509765625
1445424844526;357.4463195800781;-97.5306167602539;-1.144264578819275;-0.7580718994140625;-10.415634155273438;-3.22247314453125
1445424844558;355.7317199707031;-97.15032196044922;-2.17903208732605;-0.8757476806640625;-9.434967041015625;-2.908660888671875
1445424844591;355.5923156738281;-96.9536361694336;-2.3731143474578857;-0.640380859375;-8.866195678710938;-1.947601318359375
1445424844626;355.8354187011719;-97.37000274658203;-2.42456316947937;-0.3069610595703125;-8.94464111328125;-1.5945587158203125
1445424844658;356.1059265136719;-98.45272064208984;-2.5234358310699463;0.242218017578125;-9.297683715820312;-1.3984375
1445424844690;355.6095886230469;-99.25482177734375;-2.8178932666778564;0.536407470703125;-9.984146118164062;-1.96722412109375
1445424844723;355.01043701171875;-99.2900390625;-3.0165109634399414;0.5756378173828125;-10.042984008789062;-2.37908935546875
1445424844757;353.85888671875;-99.0098648071289;-3.400284767150879;0.477569580078125;-9.572265625;-2.7517547607421875
1445424844790;353.4192199707031;-98.8251724243164;-3.540235757827759;0.3795013427734375;-9.395751953125;-2.8105926513671875
1445424844822;352.9965515136719;-98.37967681884766;-3.471358299255371;0.1833648681640625;-9.395751953125;-2.5359954833984375
1445424844855;352.9595947265625;-97.80175018310547;-3.1323728561401367;-0.01275634765625;-9.68994140625;-2.2221832275390625
1445424844890;352.7576904296875;-97.49065399169922;-2.9854907989501953;-0.3069610595703125;-10.180282592773438;-1.947601318359375
1445424844921;351.7397766113281;-96.82731628417969;-2.791332244873047;-0.208892822265625;-10.08221435546875;-1.829925537109375
1445424844957;350.5168762207031;-95.91072082519531;-2.741346836090088;-0.032379150390625;-10.396026611328125;-1.8691558837890625
1445424844986;349.99407958984375;-95.28239440917969;-2.61099910736084;0.28143310546875;-10.964813232421875;-1.8691558837890625
1445424845020;349.5185852050781;-94.18936157226562;-2.202397108078003;1.1444244384765625;-11.121719360351562;-1.4180450439453125
1445424845056;348.65350341796875;-93.48463439941406;-2.207979440689087;1.24249267578125;-10.297958374023438;-0.574676513671875
1445424845087;347.9112548828125;-93.09728240966797;-2.21435284614563;0.9090576171875;-10.219512939453125;-0.3589324951171875
1445424845119;346.07763671875;-92.28970336914062;-1.7623108625411987;0.1833648681640625;-10.25872802734375;-0.515838623046875
1445424845152;345.24578857421875;-92.0995101928711;-1.4653979539871216;-0.0519866943359375;-10.31756591796875;-0.6138916015625
1445424845185;343.4994201660156;-92.27095794677734;-1.1109589338302612;-0.326568603515625;-10.101821899414062;-0.4373779296875
1445424845217;340.744873046875;-92.51556396484375;-0.5851721167564392;-0.522705078125;-10.02337646484375;0.4256134033203125
1445424845252;339.29010009765625;-92.61140441894531;-0.17949680984020233;-0.091217041015625;-9.807632446289062;0.7982635498046875
1445424845285;337.276123046875;-92.98603820800781;0.6163929104804993;0.1833648681640625;-9.866470336914062;0.7786407470703125
1445424845317;336.77410888671875;-93.3834457397461;0.9429817795753479;0.8502197265625;-9.788009643554688;0.445220947265625
1445424845352;335.98602294921875;-94.494384765625;1.4086241722106934;0.987518310546875;-9.611495971679688;0.2294769287109375
1445424845383;334.34722900390625;-95.50670623779297;1.5010477304458618;0.536407470703125;-10.101821899414062;-0.6531219482421875
1445424845417;333.1471252441406;-95.83609771728516;1.4574207067489624;-0.3854217529296875;-10.278350830078125;-1.457275390625
1445424845449;330.58917236328125;-96.08079528808594;1.6034595966339111;-0.895355224609375;-10.376419067382812;-1.5357208251953125
1445424845483;328.3125;-95.96654510498047;2.0183773040771484;-1.7191162109375;-10.14105224609375;-1.457275390625
1445424845516;327.53955078125;-95.75372314453125;2.232250452041626;-1.6995086669921875;-9.729171752929688;-0.4962158203125
1445424845548;326.6979675292969;-95.16436767578125;2.559748411178589;-1.2680206298828125;-9.768402099609375;-0.0254974365234375
1445424845582;326.863525390625;-94.54154205322266;2.523922920227051;-0.3069610595703125;-9.96453857421875;-0.241241455078125
1445424845614;326.7757263183594;-94.21514892578125;2.345798969268799;0.1833648681640625;-10.042984008789062;-0.3785400390625
1445424845648;325.766357421875;-93.55233764648438;1.6326223611831665;0.4579620361328125;-10.121444702148438;-0.633514404296875
1445424845680;324.9253845214844;-92.9046401977539;0.863207995891571;0.16375732421875;-10.239120483398438;-0.3981475830078125
1445424845715;324.8586120605469;-92.60601043701172;0.5708596110343933;0.04608154296875;-10.278350830078125;-0.2608642578125
1445424845746;325.4964294433594;-91.99925994873047;0.08799848705530167;-0.150054931640625;-10.121444702148438;-0.3589324951171875
1445424845780;326.179931640625;-91.41703033447266;-0.5363757610321045;-0.3854217529296875;-9.96453857421875;-0.574676513671875
1445424845812;326.2173767089844;-91.12075805664062;-0.9785882830619812;-0.4442596435546875;-10.003753662109375;-0.692352294921875
1445424845846;325.6839599609375;-90.24403381347656;-2.068697452545166;-0.4442596435546875;-10.062606811523438;-1.261138916015625
1445424845880;325.1161804199219;-89.67243957519531;-2.677042007446289;-0.228515625;-10.572540283203125;-0.9865570068359375
1445424845912;324.3315734863281;-88.79183959960938;-3.5552480220794678;0.0656890869140625;-10.552932739257812;-0.633514404296875
1445424845944;324.82379150390625;-88.47258758544922;-3.9581260681152344;0.359893798828125;-9.984146118164062;0.052947998046875
1445424845978;325.2869567871094;-88.05294036865234;-4.025478839874268;0.4383392333984375;-9.670333862304688;0.36676025390625
1445424846010;325.9749755859375;-86.59396362304688;-4.024013519287109;0.477569580078125;-9.768402099609375;0.562896728515625
1445424846043;326.1845397949219;-85.03968048095703;-3.783668041229248;0.6344757080078125;-10.19989013671875;1.072845458984375
1445424846079;326.2825927734375;-84.48334503173828;-3.6550159454345703;0.654083251953125;-10.042984008789062;1.4062652587890625
1445424846109;326.01953125;-83.92578887939453;-3.5819144248962402;0.5756378173828125;-10.062606811523438;1.3474273681640625
1445424846143;325.02587890625;-83.5184097290039;-3.606255054473877;0.4971771240234375;-10.19989013671875;1.465118408203125
1445424846176;324.4669494628906;-83.29499816894531;-3.6089444160461426;0.4971771240234375;-10.219512939453125;1.4258880615234375
1445424846209;323.557373046875;-83.02445983886719;-3.5647501945495605;0.6933135986328125;-10.19989013671875;1.2297515869140625
1445424846242;323.2304992675781;-83.0057144165039;-3.4318668842315674;0.7325439453125;-10.25872802734375;1.1709136962890625
1445424846275;323.175048828125;-82.9464340209961;-3.40286922454834;0.6737060546875;-10.239120483398438;0.9747772216796875
1445424846309;322.8796081542969;-82.65825653076172;-3.357377767562866;0.536407470703125;-10.278350830078125;0.759033203125
1445424846340;322.70526123046875;-82.52088928222656;-3.3257462978363037;0.5560302734375;-10.239120483398438;0.876708984375
1445424846374;322.35540771484375;-82.38688659667969;-3.301523447036743;0.4971771240234375;-10.180282592773438;0.896331787109375
1445424846406;321.8601379394531;-82.27759552001953;-3.322877883911133;0.5167999267578125;-10.31756591796875;0.8571014404296875
1445424846439;321.57183837890625;-82.32186126708984;-3.329449415206909;0.7325439453125;-10.121444702148438;1.072845458984375
1445424846473;321.47900390625;-82.37871551513672;-3.3805482387542725;0.8306121826171875;-9.925308227539062;1.1512908935546875
1445424846506;321.9820251464844;-82.30144500732422;-3.468916416168213;0.9678955078125;-10.003753662109375;1.4258880615234375
1445424846537;322.38787841796875;-82.2536849975586;-3.5100231170654297;0.9678955078125;-9.984146118164062;1.4062652587890625
1445424846572;322.94805908203125;-82.33818054199219;-3.5810699462890625;0.654083251953125;-9.944915771484375;1.26898193359375
1445424846604;323.0341491699219;-82.4278335571289;-3.5976338386535645;0.4579620361328125;-10.062606811523438;1.308197021484375
1445424846638;323.0162353515625;-82.53478240966797;-3.5616209506988525;0.3991241455078125;-10.062606811523438;1.2297515869140625
1445424846672;322.8078918457031;-82.54264831542969;-3.447373867034912;0.28143310546875;-10.003753662109375;1.1709136962890625
1445424846703;322.715576171875;-82.56780242919922;-3.3431174755096436;0.242218017578125;-10.042984008789062;1.21014404296875
1445424846736;322.6040954589844;-82.65968322753906;-3.122692584991455;0.28143310546875;-10.08221435546875;1.1512908935546875
1445424846769;322.4181823730469;-82.76133728027344;-2.9095771312713623;0.301055908203125;-10.219512939453125;1.014007568359375
1445424846802;322.36358642578125;-82.8322982788086;-2.8184428215026855;0.3991241455078125;-10.121444702148438;1.0924530029296875
1445424846835;322.3619689941406;-82.99250030517578;-2.64257550239563;0.3795013427734375;-10.042984008789062;1.014007568359375
1445424846868;322.4657287597656;-83.0299072265625;-2.420581102371216;0.3795013427734375;-9.96453857421875;1.1512908935546875
1445424846901;322.64794921875;-83.01457977294922;-2.3029282093048096;0.4579620361328125;-10.062606811523438;1.2297515869140625
1445424846934;323.12969970703125;-82.95626068115234;-2.099644899368286;0.477569580078125;-10.003753662109375;1.190521240234375
1445424846967;323.4136047363281;-82.97797393798828;-2.0076770782470703;0.4383392333984375;-10.101821899414062;1.131683349609375
1445424847000;323.8837890625;-83.03247833251953;-1.9474774599075317;0.359893798828125;-10.180282592773438;1.072845458984375
1445424847033;323.67254638671875;-82.99615478515625;-2.0349276065826416;0.0853118896484375;-10.042984008789062;1.1512908935546875
1445424847067;323.33160400390625;-82.98486328125;-2.0491878986358643;-0.0519866943359375;-10.02337646484375;1.072845458984375
1445424847099;322.6351318359375;-83.06874084472656;-1.9671752452850342;-0.032379150390625;-10.101821899414062;0.9747772216796875
1445424847133;321.7998046875;-83.12319946289062;-1.8463077545166016;0.0853118896484375;-10.19989013671875;0.896331787109375
1445424847165;321.54376220703125;-83.1222915649414;-1.77821946144104;0.34027099609375;-10.25872802734375;1.249359130859375
1445424847198;322.07830810546875;-83.2101821899414;-1.624373435974121;0.4971771240234375;-10.278350830078125;1.3670501708984375
1445424847231;322.8194580078125;-83.40396118164062;-1.5532522201538086;0.4579620361328125;-10.396026611328125;1.0924530029296875
1445424847265;322.85198974609375;-83.56429290771484;-1.494104266166687;0.301055908203125;-10.337188720703125;0.9159393310546875
1445424847297;323.6358642578125;-83.86946105957031;-1.2599793672561646;0.301055908203125;-10.25872802734375;1.7200775146484375
1445424847331;325.670654296875;-84.14989471435547;-0.9247743487358093;0.34027099609375;-10.062606811523438;1.700469970703125
1445424847363;326.7215881347656;-84.35325622558594;-0.7842206954956055;0.1833648681640625;-9.866470336914062;1.44549560546875
1445424847397;328.286376953125;-84.98005676269531;-0.5956220030784607;0.04608154296875;-10.31756591796875;0.7001953125
1445424847429;328.9934387207031;-85.25028228759766;-0.6051421165466309;0.536407470703125;-10.807907104492188;0.759033203125
1445424847462;331.29168701171875;-85.6958999633789;-0.954519510269165;0.9678955078125;-10.572540283203125;0.896331787109375
1445424847496;335.1846618652344;-85.71106719970703;-1.421309232711792;1.18365478515625;-9.591873168945312;1.21014404296875
1445424847528;337.0927734375;-85.54634094238281;-1.5279996395111084;0.4971771240234375;-9.356521606445312;1.190521240234375
1445424847562;339.6547546386719;-85.4532241821289;-1.4496334791183472;0.10491943359375;-9.611495971679688;1.1120758056640625
1445424847595;340.9586486816406;-86.35728454589844;-1.5569181442260742;-0.777679443359375;-10.180282592773438;0.9747772216796875
1445424847627;341.1491394042969;-87.03302001953125;-1.6015831232070923;-0.8757476806640625;-10.278350830078125;0.7001953125
1445424847660;341.1245422363281;-87.909912109375;-1.529255986213684;-0.4834747314453125;-10.494094848632812;0.1706390380859375
1445424847694;340.8463134765625;-88.17776489257812;-1.35050630569458;0.10491943359375;-10.160659790039062;0.052947998046875
1445424847727;340.6672668457031;-88.28250122070312;-1.2404507398605347;0.34027099609375;-9.944915771484375;0.1706390380859375
1445424847759;340.34814453125;-88.73324584960938;-0.8601461052894592;0.3991241455078125;-9.572265625;0.36676025390625
1445424847794;340.1119079589844;-89.03765106201172;-0.6229220628738403;0.0853118896484375;-9.572265625;-0.0254974365234375
1445424847825;338.994873046875;-89.67511749267578;-0.27723249793052673;-0.1304473876953125;-9.68994140625;-0.241241455078125
1445424847859;337.3125;-90.27452087402344;0.043168507516384125;-0.5619354248046875;-9.984146118164062;-0.6138916015625
1445424847893;336.4410095214844;-90.45994567871094;0.22127734124660492;-0.7580718994140625;-10.14105224609375;-0.3785400390625
1445424847924;334.6192321777344;-90.58343505859375;0.5561304688453674;-0.7972869873046875;-10.239120483398438;-0.3197021484375
1445424847958;332.51251220703125;-90.7664566040039;0.8247695565223694;-0.6992340087890625;-10.19989013671875;-0.3785400390625
1445424847990;331.4750061035156;-90.90603637695312;0.9466244578361511;-0.405029296875;-10.160659790039062;-0.241241455078125
1445424848024;329.62548828125;-91.05400848388672;1.2152612209320068;-0.34619140625;-10.219512939453125;-0.241241455078125
1445424848056;328.02996826171875;-91.06446838378906;1.3911319971084595;-0.208892822265625;-10.19989013671875;-0.2804718017578125
1445424848091;327.22308349609375;-91.06814575195312;1.392775297164917;-0.2481231689453125;-10.278350830078125;-0.3197021484375
1445424848122;325.4180603027344;-90.90889739990234;1.3032492399215698;-0.640380859375;-10.239120483398438;-0.3785400390625
1445424848155;324.1969299316406;-90.82293701171875;1.3912004232406616;-0.8757476806640625;-10.278350830078125;-0.4177703857421875
1445424848188;321.98797607421875;-90.83123016357422;1.7233765125274658;-0.9345855712890625;-10.31756591796875;-0.3981475830078125
1445424848222;320.59765625;-91.08470153808594;2.0620386600494385;-0.640380859375;-10.239120483398438;-0.2608642578125
1445424848254;320.325927734375;-91.158203125;2.1809449195861816;-0.228515625;-10.180282592773438;-0.123565673828125
1445424848288;320.2414855957031;-91.13087463378906;2.2795708179473877;-0.0519866943359375;-10.14105224609375;-0.1039581298828125
1445424848320;320.4503479003906;-91.06932067871094;2.2289371490478516;0.04608154296875;-10.08221435546875;-0.123565673828125
1445424848358;320.5953674316406;-91.04183197021484;2.1465766429901123;-0.326568603515625;-10.14105224609375;-0.3197021484375
1445424848388;320.4508361816406;-90.91326141357422;2.0600533485412598;-0.4442596435546875;-10.121444702148438;-0.3197021484375
1445424848420;319.99664306640625;-90.70059967041016;2.009016513824463;-0.6992340087890625;-10.08221435546875;-0.4177703857421875
1445424848452;319.5386047363281;-90.6085205078125;1.9505409002304077;-0.7384490966796875;-10.180282592773438;-0.4766082763671875
1445424848485;318.3597106933594;-90.3084716796875;1.797411561012268;-0.6796112060546875;-9.96453857421875;-0.1627960205078125
1445424848518;317.8979797363281;-90.11868286132812;1.7308231592178345;-0.4442596435546875;-10.042984008789062;-0.005889892578125
1445424848551;317.19189453125;-89.75008392333984;1.6202309131622314;-0.326568603515625;-10.180282592773438;0.052947998046875
1445424848584;316.6468200683594;-89.47473907470703;1.5777151584625244;-0.0519866943359375;-10.376419067382812;-0.123565673828125
1445424848617;316.59136962890625;-89.40078735351562;1.558117151260376;0.10491943359375;-10.14105224609375;0.0333404541015625
1445424848650;316.6409912109375;-89.1053695678711;1.4076796770095825;0.026458740234375;-10.08221435546875;0.19024658203125
1445424848683;316.4331970214844;-88.54674530029297;1.1501102447509766;-0.0519866943359375;-10.160659790039062;0.2883148193359375
1445424848717;316.5301208496094;-88.39532470703125;1.0847824811935425;-0.150054931640625;-10.337188720703125;0.2294769287109375
1445424848749;316.97161865234375;-88.24117279052734;1.0875235795974731;-0.1304473876953125;-10.297958374023438;0.2294769287109375
1445424848782;317.5420837402344;-87.9971694946289;1.1454238891601562;-0.2481231689453125;-10.396026611328125;0.327545166015625
1445424848816;317.76123046875;-87.9288558959961;1.1717989444732666;-0.3854217529296875;-10.376419067382812;0.2294769287109375
1445424848848;317.94329833984375;-87.99807739257812;1.3351529836654663;-0.58154296875;-10.219512939453125;-0.0843353271484375
1445424848882;318.67413330078125;-87.96953582763672;1.6943540573120117;-0.267730712890625;-9.866470336914062;0.36676025390625
1445424848914;319.3729248046875;-87.80778503417969;1.8603888750076294;-0.1304473876953125;-9.768402099609375;0.680572509765625
1445424848947;321.0146484375;-87.2408447265625;2.1200931072235107;-0.1696624755859375;-9.552658081054688;1.190521240234375
1445424848982;321.95013427734375;-86.85900115966797;2.245955228805542;-0.208892822265625;-9.650726318359375;1.4847259521484375
1445424849013;323.6813659667969;-86.12382507324219;2.6265060901641846;-0.267730712890625;-10.042984008789062;1.6612396240234375
1445424849046;324.9759216308594;-85.42033386230469;3.0126187801361084;-0.3854217529296875;-10.572540283203125;1.44549560546875
1445424849080;325.4553527832031;-85.08323669433594;3.06593656539917;-0.7384490966796875;-10.239120483398438;1.1709136962890625
1445424849113;326.3006286621094;-84.6862564086914;2.9789645671844482;-0.7972869873046875;-10.02337646484375;1.2297515869140625
1445424849144;326.8218994140625;-84.62550354003906;2.9630870819091797;-0.7580718994140625;-9.984146118164062;1.3670501708984375
1445424849181;327.6071472167969;-84.5751953125;2.8342936038970947;-0.836517333984375;-10.180282592773438;1.26898193359375
1445424849211;327.6769104003906;-84.70362091064453;2.598619222640991;-1.169952392578125;-10.25872802734375;0.81787109375
1445424849244;327.56982421875;-84.79206085205078;2.50541090965271;-1.111114501953125;-10.180282592773438;0.9159393310546875
1445424849277;327.2804260253906;-84.78643035888672;2.338402509689331;-0.9934234619140625;-10.180282592773438;1.072845458984375
1445424849311;327.0743103027344;-84.61349487304688;2.2017343044281006;-0.5030975341796875;-10.415634155273438;1.38665771484375
1445424849344;327.1022033691406;-84.633544921875;1.9253642559051514;0.0656890869140625;-10.278350830078125;1.249359130859375
1445424849376;327.0752868652344;-84.65339660644531;1.6954046487808228;0.2029876708984375;-10.02337646484375;1.21014404296875
1445424849409;326.81561279296875;-84.67823028564453;1.117190957069397;0.0853118896484375;-9.846847534179688;1.0532379150390625
1445424849443;326.7818908691406;-84.74222564697266;0.8630748987197876;-0.267730712890625;-10.337188720703125;0.7001953125
1445424849475;326.67706298828125;-85.11546325683594;0.7098456025123596;-0.5619354248046875;-10.278350830078125;0.7394256591796875
1445424849508;326.5915222167969;-85.52888488769531;0.6833219528198242;-0.405029296875;-10.297958374023438;0.6021270751953125
1445424849541;326.467041015625;-85.70149993896484;0.560405433177948;-0.228515625;-10.003753662109375;0.7001953125
1445424849574;325.9244079589844;-85.97330474853516;0.09482526779174805;-0.0716094970703125;-10.042984008789062;0.680572509765625
1445424849608;325.66766357421875;-86.08023834228516;-0.16628460586071014;0.1245269775390625;-10.219512939453125;0.7001953125
1445424849641;325.6319274902344;-86.38624572753906;-0.6862421035766602;0.242218017578125;-10.278350830078125;0.7001953125
1445424849674;325.84527587890625;-86.87944793701172;-1.2098581790924072;0.359893798828125;-10.101821899414062;0.6609649658203125
1445424849706;325.87322998046875;-87.12518310546875;-1.4821642637252808;0.28143310546875;-9.944915771484375;0.7198028564453125
1445424849739;325.9578552246094;-87.4428482055664;-1.9596832990646362;0.242218017578125;-9.96453857421875;0.6021270751953125
1445424849772;325.86444091796875;-87.77054595947266;-2.244554042816162;0.0853118896484375;-9.984146118164062;0.30792236328125
1445424849805;325.662841796875;-88.0276870727539;-2.3650782108306885;0.0853118896484375;-10.25872802734375;0.07257080078125
1445424849839;325.0584716796875;-88.54190826416016;-2.5761704444885254;0.1245269775390625;-10.297958374023438;0.052947998046875
1445424849873;324.7682189941406;-88.88265991210938;-2.8523740768432617;0.3991241455078125;-10.121444702148438;0.2294769287109375
1445424849904;324.8747253417969;-89.00459289550781;-3.012129545211792;0.6933135986328125;-10.101821899414062;0.4256134033203125
1445424849939;325.5575866699219;-89.24504852294922;-3.3675174713134766;0.9090576171875;-10.14105224609375;0.445220947265625
1445424849972;326.4624328613281;-89.62830352783203;-3.872213363647461;0.987518310546875;-9.96453857421875;0.2686920166015625
1445424850004;326.6991271972656;-89.8671646118164;-4.131560325622559;0.8502197265625;-9.886077880859375;0.1510162353515625
1445424850036;327.004150390625;-90.30176544189453;-4.521040916442871;0.7521514892578125;-10.14105224609375;-0.0843353271484375
1445424850069;327.4212341308594;-90.59034729003906;-4.780413627624512;0.7521514892578125;-10.160659790039062;-0.1627960205078125
1445424850102;327.6927490234375;-90.68354034423828;-4.883605003356934;0.7717742919921875;-10.08221435546875;-0.0843353271484375
1445424850135;328.2908935546875;-90.92566680908203;-5.1164774894714355;0.7913818359375;-10.062606811523438;-0.2216339111328125
1445424850169;328.5294189453125;-91.09272003173828;-5.250580310821533;0.7913818359375;-9.984146118164062;-0.2804718017578125
1445424850202;328.81121826171875;-91.41326904296875;-5.483730316162109;0.869842529296875;-9.96453857421875;-0.2608642578125
1445424850234;329.1885681152344;-91.54117584228516;-5.634757995605469;0.9090576171875;-10.003753662109375;-0.182403564453125
1445424850269;329.4127197265625;-91.58192443847656;-5.691174030303955;0.9482879638671875;-10.101821899414062;-0.300079345703125
1445424850300;329.65948486328125;-91.68173217773438;-5.788058280944824;0.9482879638671875;-10.101821899414062;-0.241241455078125
1445424850334;329.7957763671875;-91.79839324951172;-5.864337921142578;0.9482879638671875;-10.121444702148438;-0.3197021484375
1445424850366;329.8382873535156;-91.83068084716797;-5.883342266082764;1.0071258544921875;-10.02337646484375;-0.2804718017578125
1445424850399;330.12548828125;-91.89022827148438;-5.944439888000488;1.0659637451171875;-10.02337646484375;-0.241241455078125
1445424850432;330.63153076171875;-92.03208923339844;-5.998960971832275;1.105194091796875;-10.003753662109375;-0.241241455078125
1445424850465;330.96905517578125;-92.11152648925781;-6.002495288848877;1.18365478515625;-9.944915771484375;-0.2020263671875
1445424850499;331.7823486328125;-92.170654296875;-5.993506908416748;1.24249267578125;-9.925308227539062;-0.1627960205078125
1445424850532;332.7241516113281;-92.09969329833984;-5.831361293792725;1.105194091796875;-9.925308227539062;-0.0254974365234375
1445424850565;333.18157958984375;-92.09043884277344;-5.7100934982299805;1.046356201171875;-10.160659790039062;-0.123565673828125
1445424850597;333.7784729003906;-92.1473159790039;-5.445115566253662;0.869842529296875;-10.180282592773438;-0.3393096923828125
1445424850631;333.8641662597656;-92.15583801269531;-5.342463970184326;0.6737060546875;-10.219512939453125;-0.3197021484375
1445424850664;333.70635986328125;-92.03594970703125;-5.213641166687012;0.7129364013671875;-10.278350830078125;-0.3981475830078125
1445424850697;333.439208984375;-91.979248046875;-5.186122894287109;0.8502197265625;-10.219512939453125;-0.4569854736328125
1445424850730;333.3471374511719;-92.00210571289062;-5.20880651473999;0.8894500732421875;-10.042984008789062;-0.3981475830078125
1445424850762;333.1638488769531;-92.07563018798828;-5.214951038360596;0.8306121826171875;-10.02337646484375;-0.3393096923828125
1445424850795;333.07373046875;-92.04640197753906;-5.190922737121582;0.928680419921875;-10.042984008789062;-0.300079345703125
1445424850828;333.02020263671875;-92.04329681396484;-5.184661865234375;0.8894500732421875;-10.02337646484375;-0.3197021484375
1445424850861;332.8651428222656;-92.07511138916016;-5.143589019775391;0.8502197265625;-10.042984008789062;-0.2608642578125
1445424850895;332.80657958984375;-92.0711898803711;-5.124485969543457;0.8502197265625;-10.121444702148438;-0.2216339111328125
1445424850927;332.6266174316406;-91.96263122558594;-5.0982890129089355;0.8109893798828125;-10.14105224609375;-0.2216339111328125
1445424850961;332.2882385253906;-91.8271255493164;-5.0963664054870605;0.8306121826171875;-10.042984008789062;-0.1431732177734375
1445424850994;332.0703125;-91.772216796875;-5.110284328460693;0.8502197265625;-10.14105224609375;-0.2020263671875
1445424851026;331.6224365234375;-91.6175308227539;-5.14532995223999;0.8306121826171875;-10.160659790039062;-0.2216339111328125
1445424851059;331.2671813964844;-91.48860168457031;-5.202518463134766;0.869842529296875;-10.101821899414062;-0.1431732177734375
1445424851092;331.0486755371094;-91.42167663574219;-5.222362518310547;0.8306121826171875;-10.239120483398438;-0.1627960205078125
1445424851126;330.64935302734375;-91.28067779541016;-5.277225971221924;0.8894500732421875;-10.14105224609375;-0.241241455078125
1445424851159;330.36077880859375;-91.20702362060547;-5.412075042724609;0.928680419921875;-10.08221435546875;-0.1431732177734375
1445424851191;330.1888427734375;-91.13878631591797;-5.501465320587158;0.9482879638671875;-9.96453857421875;-0.0451202392578125
1445424851224;329.7942199707031;-90.88532257080078;-5.75274658203125;1.0267486572265625;-9.984146118164062;0.052947998046875
1445424851257;329.36810302734375;-90.60230255126953;-6.053653717041016;1.046356201171875;-10.062606811523438;0.052947998046875
1445424851290;329.2389221191406;-90.48417663574219;-6.238691806793213;1.105194091796875;-10.121444702148438;0.07257080078125
1445424851323;328.9582824707031;-90.27429962158203;-6.684640884399414;1.222869873046875;-10.180282592773438;-0.0843353271484375
1445424851356;328.7664489746094;-90.18922424316406;-6.913650989532471;1.164031982421875;-10.121444702148438;-0.1431732177734375
1445424851390;328.39208984375;-90.04593658447266;-7.401004314422607;1.2032623291015625;-10.121444702148438;-0.064727783203125
1445424851422;327.9158935546875;-89.86627197265625;-7.944350719451904;1.3405609130859375;-10.14105224609375;-0.005889892578125
1445424851455;327.6893310546875;-89.78203582763672;-8.222652435302734;1.3993988037109375;-10.239120483398438;-0.0843353271484375
1445424851488;327.37451171875;-89.72765350341797;-8.732512474060059;1.41900634765625;-10.121444702148438;-0.1039581298828125
1445424851522;327.3187255859375;-89.74369049072266;-9.292852401733398;1.556304931640625;-10.062606811523438;0.052947998046875
1445424851555;327.23541259765625;-89.69417572021484;-9.603096008300781;1.5759124755859375;-10.003753662109375;0.0921783447265625
1445424851592;326.931884765625;-89.49445343017578;-10.162426948547363;1.6543731689453125;-9.944915771484375;0.07257080078125
1445424851622;326.66583251953125;-89.27100372314453;-10.679101943969727;1.7132110595703125;-9.846847534179688;0.07257080078125
1445424851653;326.541015625;-89.17495727539062;-10.925159454345703;1.8701171875;-10.02337646484375;0.0333404541015625
1445424851686;326.44976806640625;-89.0172119140625;-11.316658020019531;2.0074005126953125;-9.944915771484375;0.24908447265625
1445424851720;326.53302001953125;-88.9662857055664;-11.510262489318848;2.164306640625;-9.96453857421875;0.19024658203125
1445424851752;326.55389404296875;-88.87187194824219;-11.897439956665039;2.242767333984375;-9.96453857421875;0.13140869140625
1445424851785;326.4512634277344;-88.80321502685547;-12.228233337402344;2.183929443359375;-9.807632446289062;0.2294769287109375
1445424851819;326.4249572753906;-88.79621124267578;-12.378232955932617;2.242767333984375;-9.788009643554688;0.327545166015625
1445424851851;326.45111083984375;-88.67777252197266;-12.582990646362305;2.242767333984375;-9.886077880859375;0.30792236328125
1445424851884;326.5437927246094;-88.62923431396484;-12.712940216064453;2.242767333984375;-9.846847534179688;0.2883148193359375
1445424851918;326.59844970703125;-88.63661193847656;-12.768484115600586;2.183929443359375;-9.886077880859375;0.3471527099609375
1445424851950;326.7693786621094;-88.52731323242188;-12.874493598937988;2.242767333984375;-9.788009643554688;0.445220947265625
1445424851983;326.83184814453125;-88.44165802001953;-12.911882400512695;2.2819976806640625;-9.90570068359375;0.4059906005859375
1445424852016;326.94622802734375;-88.35313415527344;-12.918204307556152;2.2623748779296875;-9.925308227539062;0.2294769287109375
1445424852049;327.1820068359375;-88.49116516113281;-12.928224563598633;2.2623748779296875;-9.944915771484375;0.19024658203125
1445424852083;327.2822570800781;-88.55139923095703;-12.938042640686035;2.242767333984375;-9.807632446289062;0.2294769287109375
1445424852116;327.5362548828125;-88.6131591796875;-13.024266242980957;2.301605224609375;-9.886077880859375;0.2686920166015625
1445424852149;327.791748046875;-88.61835479736328;-13.124316215515137;2.360443115234375;-9.866470336914062;0.2883148193359375
1445424852181;328.00750732421875;-88.68263244628906;-13.16175651550293;2.360443115234375;-9.925308227539062;0.30792236328125
1445424852215;328.5455627441406;-88.8477783203125;-13.146389961242676;2.32122802734375;-10.003753662109375;0.386383056640625
1445424852248;328.9302978515625;-88.97595977783203;-13.13906478881836;2.183929443359375;-9.866470336914062;0.2686920166015625
1445424852280;328.9658203125;-88.98239135742188;-13.149237632751465;2.164306640625;-9.846847534179688;0.24908447265625
1445424852313;328.9774169921875;-89.02227020263672;-13.170778274536133;2.242767333984375;-9.788009643554688;0.1706390380859375
1445424852346;329.30169677734375;-89.31110382080078;-13.171197891235352;2.360443115234375;-10.003753662109375;0.13140869140625
1445424852380;329.6112060546875;-89.49469757080078;-13.159710884094238;2.43890380859375;-9.96453857421875;0.111785888671875
1445424852412;330.20928955078125;-89.85328674316406;-13.187695503234863;2.3996734619140625;-9.827239990234375;0.07257080078125
1445424852445;330.3479919433594;-89.91267395019531;-13.229187965393066;2.3408355712890625;-9.788009643554688;0.13140869140625
1445424852478;330.4663391113281;-89.91317749023438;-13.279961585998535;2.2819976806640625;-9.807632446289062;0.111785888671875
1445424852512;330.732177734375;-90.09087371826172;-13.29193115234375;2.32122802734375;-9.90570068359375;-0.005889892578125
1445424852545;330.8673095703125;-90.2245864868164;-13.294355392456055;2.3408355712890625;-9.96453857421875;-0.2020263671875
1445424852583;331.0379943847656;-90.44957733154297;-13.341695785522461;2.301605224609375;-9.886077880859375;-0.1431732177734375
1445424852610;331.1030578613281;-90.58735656738281;-13.372271537780762;2.301605224609375;-9.846847534179688;-0.1039581298828125
1445424852645;331.2109069824219;-90.67253112792969;-13.374372482299805;2.2819976806640625;-9.807632446289062;-0.005889892578125
1445424852676;331.44989013671875;-90.8711166381836;-13.3626070022583;2.2819976806640625;-9.788009643554688;-0.0254974365234375
1445424852709;331.59844970703125;-91.0234146118164;-13.337722778320312;2.242767333984375;-9.807632446289062;-0.1431732177734375
1445424852750;331.79443359375;-91.14412689208984;-13.342447280883789;2.360443115234375;-9.748779296875;-0.182403564453125
1445424852775;331.8777160644531;-91.20256042480469;-13.325780868530273;2.32122802734375;-9.748779296875;-0.2020263671875
1445424852809;331.9541015625;-91.2801284790039;-13.294930458068848;2.1446990966796875;-9.846847534179688;-0.2608642578125
1445424852848;332.02032470703125;-91.3597183227539;-13.09092903137207;2.125091552734375;-9.866470336914062;-0.1431732177734375
1445424852875;332.06390380859375;-91.35842895507812;-12.856958389282227;2.1446990966796875;-9.827239990234375;-0.182403564453125
1445424852919;331.9688720703125;-91.40859985351562;-12.674482345581055;2.2231597900390625;-9.846847534179688;-0.2804718017578125
1445424852966;332.10003662109375;-91.6248550415039;-12.503497123718262;2.2231597900390625;-9.866470336914062;-0.3393096923828125
1445424852975;332.14202880859375;-91.69854736328125;-12.389123916625977;2.2231597900390625;-9.866470336914062;-0.3393096923828125
1445424853007;332.1449279785156;-91.6888427734375;-12.246889114379883;2.10546875;-9.807632446289062;-0.1627960205078125
1445424853049;332.14434814453125;-91.58995819091797;-11.983255386352539;2.10546875;-9.925308227539062;-0.1627960205078125
1445424853073;332.0505676269531;-91.52977752685547;-11.882201194763184;1.98779296875;-9.925308227539062;-0.2608642578125
1445424853134;330.8636474609375;-91.45779418945312;-11.547659873962402;1.8701171875;-9.944915771484375;-0.2216339111328125
1445424853149;330.8636474609375;-91.45779418945312;-11.547659873962402;1.8897247314453125;-10.003753662109375;-0.2804718017578125
1445424853170;330.4931640625;-91.38536071777344;-11.452844619750977;1.9093475341796875;-9.96453857421875;-0.2608642578125
1445424853247;328.80682373046875;-91.16305541992188;-11.217626571655273;1.791656494140625;-9.866470336914062;-0.2216339111328125
1445424853251;328.80682373046875;-91.16305541992188;-11.217626571655273;1.791656494140625;-9.866470336914062;-0.2216339111328125
1445424853281;327.92779541015625;-91.0828857421875;-11.0800199508667;1.7720489501953125;-9.807632446289062;-0.1627960205078125
1445424853313;327.0099792480469;-90.82998657226562;-10.990766525268555;1.791656494140625;-9.827239990234375;-0.123565673828125
1445424853347;326.47967529296875;-90.67697143554688;-10.933065414428711;1.7720489501953125;-9.90570068359375;-0.0843353271484375
1445424853380;325.4487609863281;-90.40446472167969;-10.796246528625488;1.791656494140625;-9.886077880859375;-0.1039581298828125
1445424853412;324.9780578613281;-90.29908752441406;-10.732084274291992;1.8308868408203125;-10.003753662109375;0.111785888671875
1445424853445;324.27294921875;-90.0474624633789;-10.623697280883789;1.8701171875;-10.042984008789062;0.07257080078125
1445424853478;323.74542236328125;-89.83403015136719;-10.539505004882812;1.98779296875;-9.944915771484375;0.111785888671875
1445424853510;323.54119873046875;-89.73445892333984;-10.526058197021484;2.0074005126953125;-9.944915771484375;0.1510162353515625
1445424853544;323.0538330078125;-89.48372650146484;-10.511247634887695;1.9681854248046875;-10.02337646484375;0.1510162353515625
1445424853577;322.4736633300781;-89.21138763427734;-10.509549140930176;1.98779296875;-10.062606811523438;0.2883148193359375
1445424853610;322.24346923828125;-89.12958526611328;-10.521036148071289;1.9681854248046875;-9.96453857421875;0.386383056640625
1445424853643;321.8509826660156;-88.96942901611328;-10.607782363891602;2.0270233154296875;-9.96453857421875;0.2686920166015625
1445424853677;321.35504150390625;-88.6708984375;-10.788236618041992;2.0270233154296875;-9.846847534179688;0.3471527099609375
1445424853711;321.0310974121094;-88.438720703125;-10.842901229858398;1.9093475341796875;-9.788009643554688;0.4059906005859375
1445424853742;320.37664794921875;-88.06392669677734;-10.887642860412598;1.8897247314453125;-9.846847534179688;0.386383056640625
1445424853775;319.6942138671875;-87.81564331054688;-10.879676818847656;1.8897247314453125;-9.846847534179688;0.386383056640625
1445424853808;319.37542724609375;-87.67960357666016;-10.86393928527832;1.928955078125;-9.886077880859375;0.445220947265625
1445424853841;318.798095703125;-87.35783386230469;-10.872653007507324;1.8897247314453125;-9.944915771484375;0.5432891845703125
1445424853874;318.46966552734375;-87.19165802001953;-10.882190704345703;1.8308868408203125;-9.90570068359375;0.4844512939453125
1445424853907;317.6288757324219;-86.91373443603516;-10.906877517700195;1.8308868408203125;-9.886077880859375;0.4648284912109375
1445424853940;316.7272644042969;-86.71026611328125;-10.982101440429688;1.928955078125;-9.925308227539062;0.24908447265625
1445424853973;316.3853759765625;-86.62540435791016;-11.017845153808594;2.1446990966796875;-10.042984008789062;0.4648284912109375
1445424854006;316.1712646484375;-86.41053771972656;-10.965616226196289;2.1446990966796875;-10.062606811523438;0.6021270751953125
1445424854039;316.42218017578125;-86.23139190673828;-10.91728401184082;2.1446990966796875;-9.866470336914062;0.759033203125
1445424854072;316.5212097167969;-86.13372802734375;-10.920969009399414;2.066253662109375;-9.90570068359375;0.759033203125
1445424854106;316.4575500488281;-85.88043212890625;-10.959817886352539;2.10546875;-9.90570068359375;0.7982635498046875
1445424854138;316.3704528808594;-85.6715087890625;-11.0153226852417;2.1446990966796875;-9.90570068359375;0.7786407470703125
1445424854171;316.4159240722656;-85.62113189697266;-11.025196075439453;2.0858612060546875;-9.866470336914062;0.81787109375
1445424854205;316.73052978515625;-85.5086898803711;-11.064133644104004;2.0858612060546875;-9.886077880859375;0.896331787109375
1445424854237;316.8480224609375;-85.41111755371094;-11.071117401123047;1.98779296875;-9.886077880859375;0.955169677734375
1445424854270;316.89678955078125;-85.17743682861328;-11.10227108001709;2.0074005126953125;-9.866470336914062;0.935546875
1445424854306;317.0386962890625;-84.97750854492188;-11.11495590209961;1.98779296875;-9.846847534179688;1.014007568359375
1445424854339;317.12872314453125;-84.90617370605469;-11.109512329101562;1.9681854248046875;-9.788009643554688;0.935546875
1445424854369;317.26123046875;-84.76054382324219;-11.091690063476562;1.9093475341796875;-9.827239990234375;0.9747772216796875
1445424854402;317.2228698730469;-84.6286392211914;-11.036316871643066;1.8308868408203125;-9.925308227539062;0.896331787109375
1445424854435;317.1824035644531;-84.5886459350586;-10.974591255187988;1.791656494140625;-9.866470336914062;0.935546875
1445424854468;317.1617736816406;-84.50971984863281;-10.846150398254395;1.850494384765625;-9.944915771484375;0.896331787109375
1445424854502;317.1534423828125;-84.41964721679688;-10.721824645996094;1.8701171875;-9.96453857421875;0.8571014404296875
1445424854535;317.22344970703125;-84.37603759765625;-10.660054206848145;1.8701171875;-9.886077880859375;0.994384765625
1445424854567;317.17767333984375;-84.29362487792969;-10.543844223022461;1.7132110595703125;-9.827239990234375;1.014007568359375
1445424854600;317.0240478515625;-84.20372009277344;-10.481369972229004;1.7132110595703125;-9.90570068359375;0.994384765625
1445424854633;316.90289306640625;-84.13638305664062;-10.401446342468262;1.8308868408203125;-10.02337646484375;1.0532379150390625
1445424854666;316.9971923828125;-84.12690734863281;-10.345776557922363;1.791656494140625;-10.14105224609375;1.0532379150390625
1445424854700;316.9320373535156;-84.07276916503906;-10.280288696289062;1.6935882568359375;-10.02337646484375;0.9159393310546875
1445424854732;316.5219421386719;-84.01592254638672;-10.213756561279297;1.732818603515625;-10.042984008789062;0.994384765625
1445424854765;316.3372497558594;-83.99352264404297;-10.153067588806152;1.7720489501953125;-9.984146118164062;0.9747772216796875
1445424854800;316.3509826660156;-83.99650573730469;-10.125641822814941;1.791656494140625;-10.042984008789062;1.014007568359375
1445424854831;316.323974609375;-84.02265167236328;-10.041400909423828;1.7720489501953125;-10.062606811523438;1.0336151123046875
1445424854864;316.2879333496094;-84.03816223144531;-9.991209030151367;1.791656494140625;-10.062606811523438;1.072845458984375
1445424854897;316.34619140625;-84.1031265258789;-9.92308521270752;1.811279296875;-10.121444702148438;1.014007568359375
1445424854931;316.5378112792969;-84.21578979492188;-9.8981294631958;1.8308868408203125;-9.984146118164062;1.072845458984375
1445424854963;316.67889404296875;-84.29310607910156;-9.886378288269043;1.811279296875;-9.827239990234375;1.1709136962890625
1445424854997;317.1035461425781;-84.50531768798828;-9.851680755615234;1.850494384765625;-9.768402099609375;1.131683349609375
1445424855029;317.4855041503906;-84.849365234375;-9.749383926391602;1.8701171875;-9.90570068359375;0.896331787109375
1445424855064;317.6545715332031;-85.01744842529297;-9.68022346496582;1.732818603515625;-10.003753662109375;0.955169677734375
1445424855102;318.0722351074219;-85.31387329101562;-9.501019477844238;1.5955352783203125;-9.866470336914062;0.7982635498046875
1445424855132;318.4221496582031;-85.7164535522461;-9.182646751403809;1.556304931640625;-9.827239990234375;0.6609649658203125
1445424855161;318.5871887207031;-85.92515563964844;-8.979888916015625;1.556304931640625;-9.670333862304688;0.6021270751953125
1445424855194;319.2763366699219;-86.35589599609375;-8.328706741333008;1.53668212890625;-9.650726318359375;0.5236663818359375
1445424855227;320.41357421875;-86.68173217773438;-7.448668003082275;1.53668212890625;-9.984146118164062;0.641357421875
1445424855263;320.983154296875;-86.81830596923828;-6.9964070320129395;1.2817230224609375;-10.219512939453125;0.759033203125
1445424855292;321.9544677734375;-86.98741149902344;-6.268160343170166;1.164031982421875;-10.25872802734375;0.7394256591796875
1445424855326;322.9163513183594;-86.98760223388672;-5.783229827880859;1.1444244384765625;-10.297958374023438;0.8374786376953125
1445424855359;323.3880310058594;-86.91558074951172;-5.620211601257324;1.12481689453125;-10.239120483398438;0.7786407470703125
1445424855391;324.4228820800781;-86.7829360961914;-5.4149298667907715;1.2032623291015625;-10.042984008789062;0.58251953125
1445424855425;325.02667236328125;-86.82148742675781;-5.371898651123047;1.0659637451171875;-9.984146118164062;0.3471527099609375
1445424855458;325.9732360839844;-87.0086441040039;-5.241852760314941;0.928680419921875;-10.003753662109375;0.2686920166015625
1445424855491;326.0579833984375;-87.13469696044922;-4.997100830078125;0.4579620361328125;-10.19989013671875;0.111785888671875
1445424855527;325.7590637207031;-87.15399169921875;-4.825173377990723;0.0853118896484375;-10.356796264648438;0.1706390380859375
1445424855557;325.2956848144531;-87.07585906982422;-4.510159015655518;0.0656890869140625;-10.415634155273438;0.2686920166015625
1445424855589;325.1236267089844;-87.0499038696289;-4.396401405334473;0.34027099609375;-10.239120483398438;0.386383056640625
1445424855624;324.85003662109375;-87.09418487548828;-4.3831467628479;0.5167999267578125;-10.08221435546875;0.5432891845703125
1445424855656;323.9932861328125;-87.13976287841797;-4.439011573791504;0.654083251953125;-10.160659790039062;0.445220947265625
1445424855689;323.13812255859375;-87.24815368652344;-4.461956977844238;0.7913818359375;-10.08221435546875;0.2883148193359375
1445424855722;322.7210693359375;-87.38833618164062;-4.431705474853516;0.6933135986328125;-10.062606811523438;0.2098541259765625
1445424855755;321.7697448730469;-87.62682342529297;-4.194000244140625;0.301055908203125;-10.180282592773438;0.2686920166015625
1445424855788;321.31182861328125;-87.64708709716797;-3.986729383468628;0.242218017578125;-10.121444702148438;0.36676025390625
1445424855822;320.6294860839844;-87.55439758300781;-3.5521857738494873;0.3206634521484375;-10.101821899414062;0.6021270751953125
1445424855857;320.5662536621094;-87.32062530517578;-3.135970115661621;0.7129364013671875;-10.02337646484375;0.759033203125
1445424855888;320.9149169921875;-87.19737243652344;-3.0104897022247314;1.2817230224609375;-10.062606811523438;0.641357421875
1445424855921;322.1346740722656;-86.99044799804688;-3.0161032676696777;1.3797760009765625;-10.101821899414062;0.680572509765625
1445424855953;323.28997802734375;-86.75688171386719;-3.143183469772339;0.8109893798828125;-9.886077880859375;0.759033203125
1445424855986;323.4088439941406;-86.63959503173828;-3.116767406463623;0.301055908203125;-10.180282592773438;0.58251953125
1445424856019;323.3341369628906;-86.40047454833984;-3.077880859375;0.2618255615234375;-10.25872802734375;0.445220947265625
1445424856053;323.3084411621094;-86.17228698730469;-3.045801877975464;0.359893798828125;-10.062606811523438;0.5432891845703125
1445424856085;323.43182373046875;-86.04405975341797;-3.01875376701355;0.418731689453125;-10.02337646484375;0.58251953125
1445424856118;323.76824951171875;-85.72242736816406;-2.927438974380493;0.4383392333984375;-9.90570068359375;0.6609649658203125
1445424856152;323.9053955078125;-85.41427612304688;-2.821434497833252;0.3991241455078125;-9.807632446289062;0.7982635498046875
1445424856184;323.83935546875;-85.23576354980469;-2.7216415405273438;0.3206634521484375;-9.886077880859375;0.935546875
1445424856217;323.83892822265625;-84.79536437988281;-2.4749081134796143;0.4383392333984375;-10.121444702148438;0.9747772216796875
1445424856251;324.0611267089844;-84.34529113769531;-2.2405076026916504;0.34027099609375;-10.239120483398438;0.935546875
1445424856283;324.13958740234375;-84.06526947021484;-2.148463010787964;0.242218017578125;-10.14105224609375;1.0532379150390625
1445424856316;324.3276062011719;-83.41487884521484;-1.884069800376892;0.10491943359375;-10.14105224609375;1.308197021484375
1445424856349;324.4827880859375;-83.06744384765625;-1.6618574857711792;-0.0716094970703125;-10.180282592773438;1.523956298828125
1445424856383;324.68597412109375;-82.41227722167969;-1.1569554805755615;-0.1108245849609375;-10.180282592773438;1.50433349609375
1445424856415;324.5344543457031;-81.78543090820312;-0.7838467359542847;-0.0716094970703125;-10.239120483398438;1.523956298828125
1445424856448;324.42437744140625;-81.50270080566406;-0.6635335683822632;-0.032379150390625;-10.180282592773438;1.56317138671875
1445424856481;324.41302490234375;-81.01092529296875;-0.6208643913269043;0.2618255615234375;-10.180282592773438;1.8573760986328125
1445424856515;324.70947265625;-80.64924621582031;-0.7692971229553223;0.418731689453125;-10.160659790039062;1.9946746826171875
1445424856547;324.8155212402344;-80.53966522216797;-0.9081833362579346;0.4383392333984375;-10.121444702148438;1.8966064453125
1445424856580;324.7745666503906;-80.3006591796875;-1.2101502418518066;0.301055908203125;-10.121444702148438;1.876983642578125
1445424856614;324.61065673828125;-80.1921615600586;-1.352776288986206;0.2029876708984375;-10.003753662109375;1.7200775146484375
1445424856647;324.05718994140625;-80.0718002319336;-1.5923919677734375;0.1833648681640625;-9.944915771484375;1.7789306640625
1445424856679;323.36669921875;-80.09662628173828;-1.7672946453094482;0.1833648681640625;-9.925308227539062;1.7789306640625
1445424856712;322.9805603027344;-80.10137176513672;-1.85538649559021;0.3206634521484375;-10.003753662109375;1.582794189453125
1445424856745;322.19635009765625;-80.12882232666016;-2.0288209915161133;0.359893798828125;-10.02337646484375;1.56317138671875
1445424856779;321.59857177734375;-80.22824096679688;-2.120906352996826;0.3795013427734375;-10.003753662109375;1.50433349609375
1445424856811;321.3577880859375;-80.29214477539062;-2.1353671550750732;0.3795013427734375;-9.90570068359375;1.5435638427734375
1445424856844;321.0118408203125;-80.44090270996094;-2.109316110610962;0.3206634521484375;-9.807632446289062;1.700469970703125
1445424856877;320.9796142578125;-80.4595947265625;-2.007716417312622;0.34027099609375;-10.101821899414062;1.876983642578125
1445424856911;321.1502380371094;-80.41836547851562;-2.0020318031311035;0.5560302734375;-10.219512939453125;1.8377685546875
1445424856943;321.7384338378906;-80.32769012451172;-2.157580852508545;0.8306121826171875;-10.160659790039062;1.8573760986328125
1445424856976;322.0869445800781;-80.30355834960938;-2.2710366249084473;0.595245361328125;-9.96453857421875;1.7200775146484375
1445424857009;322.4222106933594;-80.3455810546875;-2.3968334197998047;0.34027099609375;-9.96453857421875;1.700469970703125
1445424857043;322.2062683105469;-80.4948959350586;-2.3310060501098633;0.0068511962890625;-10.003753662109375;1.700469970703125
1445424857078;322.0225830078125;-80.55854034423828;-2.276301622390747;0.0853118896484375;-10.08221435546875;1.6612396240234375
1445424857108;321.6253967285156;-80.64161682128906;-2.182845115661621;0.2029876708984375;-10.062606811523438;1.700469970703125
1445424857141;321.5997009277344;-80.76044464111328;-2.173593759536743;0.5756378173828125;-10.160659790039062;1.582794189453125
1445424857174;321.69036865234375;-80.8298110961914;-2.219417095184326;0.595245361328125;-10.121444702148438;1.641632080078125
1445424857208;321.74066162109375;-80.9559555053711;-2.3995165824890137;0.477569580078125;-10.042984008789062;1.759307861328125
1445424857242;321.4984436035156;-81.15909576416016;-2.6379263401031494;0.34027099609375;-10.14105224609375;1.44549560546875
1445424857274;321.1929626464844;-81.24124145507812;-2.758166790008545;0.2618255615234375;-10.02337646484375;1.32781982421875
1445424857305;320.52880859375;-81.25625610351562;-2.9539291858673096;0.2618255615234375;-9.670333862304688;1.44549560546875
1445424857340;320.3481750488281;-80.94254302978516;-3.009497880935669;0.5167999267578125;-9.768402099609375;1.44549560546875
1445424857372;320.49017333984375;-80.69447326660156;-2.9969234466552734;0.6737060546875;-9.807632446289062;1.50433349609375
1445424857406;321.3158874511719;-80.30923461914062;-2.879027843475342;0.7521514892578125;-10.02337646484375;1.7985382080078125
1445424857439;322.0070495605469;-80.2981948852539;-2.8288748264312744;0.869842529296875;-10.219512939453125;1.7200775146484375
1445424857473;323.2558898925781;-80.4653091430664;-2.8935537338256836;0.8109893798828125;-10.239120483398438;1.759307861328125
1445424857506;323.3633728027344;-80.31652069091797;-3.10056471824646;0.3991241455078125;-9.944915771484375;1.6024017333984375
1445424857540;323.1494140625;-80.17755126953125;-3.1414732933044434;0.1245269775390625;-9.846847534179688;1.4847259521484375
1445424857570;322.46990966796875;-80.11542510986328;-3.0423083305358887;0.1245269775390625;-9.96453857421875;1.3670501708984375
1445424857603;322.16400146484375;-80.12247467041016;-2.964381456375122;0.3206634521484375;-10.239120483398438;1.582794189453125
1445424857636;321.80780029296875;-80.09089660644531;-2.8698365688323975;0.536407470703125;-10.278350830078125;1.582794189453125
1445424857670;321.9355773925781;-80.01111602783203;-3.0117979049682617;0.9090576171875;-10.25872802734375;1.8377685546875
1445424857702;322.23345947265625;-79.97445678710938;-3.1653382778167725;1.0659637451171875;-10.003753662109375;1.9750518798828125
1445424857735;322.8161926269531;-79.91102600097656;-3.505058526992798;0.9482879638671875;-9.925308227539062;1.9358367919921875
1445424857768;323.06658935546875;-79.82917022705078;-3.729438543319702;0.5756378173828125;-9.807632446289062;2.0535125732421875
1445424857801;323.02728271484375;-79.79228973388672;-3.7890784740448;0.418731689453125;-9.925308227539062;2.1711883544921875
1445424857835;322.6825866699219;-79.58990478515625;-3.9914913177490234;0.4383392333984375;-10.003753662109375;2.0731201171875
1445424857867;321.9093322753906;-79.3523941040039;-4.265425205230713;0.6148681640625;-10.239120483398438;1.8573760986328125
1445424857900;321.6058349609375;-79.28736877441406;-4.4360432624816895;0.8306121826171875;-10.121444702148438;1.9162139892578125
1445424857933;321.13861083984375;-79.22699737548828;-4.8815178871154785;0.9090576171875;-9.944915771484375;1.9554443359375
1445424857966;320.8233947753906;-79.17800903320312;-5.133023262023926;0.7717742919921875;-9.846847534179688;1.9162139892578125
1445424857999;319.8618469238281;-79.10025787353516;-5.5196356773376465;0.8306121826171875;-9.96453857421875;1.8966064453125
1445424858033;318.8135681152344;-79.24300384521484;-5.9046759605407715;0.9482879638671875;-9.944915771484375;1.700469970703125
1445424858065;318.2892150878906;-79.32686614990234;-6.1053948402404785;1.0855865478515625;-9.827239990234375;1.6612396240234375
1445424858098;317.396728515625;-79.43553924560547;-6.398981094360352;1.12481689453125;-9.729171752929688;1.7200775146484375
1445424858131;316.89471435546875;-79.4391860961914;-6.5980987548828125;1.12481689453125;-9.748779296875;1.9162139892578125
1445424858165;316.6002197265625;-79.42025756835938;-6.635239601135254;1.0267486572265625;-10.003753662109375;1.8966064453125
1445424858198;316.1436767578125;-79.41049194335938;-6.701675891876221;1.12481689453125;-9.944915771484375;1.9358367919921875
1445424858231;316.05755615234375;-79.16459655761719;-6.748683452606201;1.3209381103515625;-9.827239990234375;2.1319580078125
1445424858266;316.15985107421875;-79.00865173339844;-6.772233486175537;1.438629150390625;-9.827239990234375;2.0338897705078125
1445424858296;316.2376708984375;-78.88179779052734;-6.871291637420654;1.3993988037109375;-9.827239990234375;1.9750518798828125
1445424858329;316.40570068359375;-78.77210998535156;-6.939120769500732;1.36016845703125;-9.925308227539062;2.1123504638671875
1445424858362;316.5934753417969;-78.75504302978516;-6.94849967956543;1.36016845703125;-9.944915771484375;2.1319580078125
1445424858397;317.0009460449219;-78.82825469970703;-6.954869270324707;1.3209381103515625;-10.003753662109375;2.1711883544921875
1445424858429;317.1335144042969;-79.01737976074219;-6.935204029083252;1.18365478515625;-9.827239990234375;1.9162139892578125
1445424858461;317.0793762207031;-79.13145446777344;-6.91718053817749;1.18365478515625;-9.886077880859375;1.7985382080078125
1445424858494;317.0443420410156;-79.33651733398438;-6.817096710205078;1.2032623291015625;-9.846847534179688;1.6808624267578125
1445424858527;317.1766052246094;-79.46046447753906;-6.73234224319458;1.164031982421875;-9.866470336914062;1.6220245361328125
1445424858560;317.42266845703125;-79.79769134521484;-6.470836162567139;1.0855865478515625;-9.709564208984375;1.7200775146484375
1445424858593;318.06036376953125;-79.95425415039062;-6.104692459106445;1.2032623291015625;-9.90570068359375;2.0535125732421875
1445424858626;318.6803283691406;-79.9319076538086;-5.934127330780029;1.3405609130859375;-10.219512939453125;2.0338897705078125
1445424858660;320.1369323730469;-80.05250549316406;-5.71265983581543;1.3405609130859375;-10.003753662109375;1.818145751953125
1445424858692;321.62396240234375;-80.37550354003906;-5.743536949157715;1.3209381103515625;-9.96453857421875;1.9750518798828125
1445424858727;322.3668212890625;-80.32012939453125;-5.7959675788879395;1.222869873046875;-9.768402099609375;2.0142822265625
1445424858759;323.8510437011719;-80.11100006103516;-5.787754535675049;1.105194091796875;-9.533035278320312;1.9554443359375
1445424858791;325.2456359863281;-80.33968353271484;-5.600520610809326;0.7717742919921875;-9.807632446289062;1.9358367919921875
1445424858824;325.82080078125;-80.4726333618164;-5.443148612976074;0.5756378173828125;-9.90570068359375;1.8377685546875
1445424858857;326.62713623046875;-80.66738891601562;-5.013700008392334;0.477569580078125;-10.02337646484375;1.641632080078125
1445424858890;326.86798095703125;-80.74103546142578;-4.831015586853027;0.6148681640625;-10.180282592773438;1.465118408203125
1445424858924;327.0902404785156;-80.84298706054688;-4.617945671081543;0.6344757080078125;-10.160659790039062;1.523956298828125
1445424858956;327.24322509765625;-81.102294921875;-4.505554676055908;0.7325439453125;-10.121444702148438;1.50433349609375
1445424858989;327.477783203125;-81.31358337402344;-4.476346969604492;0.8109893798828125;-10.02337646484375;1.3670501708984375
1445424859023;327.89019775390625;-81.71115112304688;-4.397653102874756;0.7521514892578125;-10.042984008789062;1.308197021484375
1445424859055;327.94635009765625;-81.90937805175781;-4.312044143676758;0.6148681640625;-10.160659790039062;1.21014404296875
1445424859090;327.781005859375;-82.06047821044922;-4.291516304016113;0.418731689453125;-10.042984008789062;1.131683349609375
1445424859122;327.1836242675781;-82.40460205078125;-4.2138872146606445;0.418731689453125;-10.101821899414062;1.0924530029296875
1445424859155;326.7071533203125;-82.65416717529297;-4.094934463500977;0.477569580078125;-10.042984008789062;1.0336151123046875
1445424859194;326.478271484375;-82.8145980834961;-4.015331745147705;0.6933135986328125;-10.042984008789062;1.1709136962890625
1445424859221;326.4184875488281;-82.87859344482422;-3.995016574859619;0.7129364013671875;-9.96453857421875;1.2297515869140625
1445424859253;326.51287841796875;-82.88553619384766;-3.997920513153076;0.8109893798828125;-9.984146118164062;1.38665771484375
1445424859285;326.64739990234375;-82.87395477294922;-4.001789093017578;0.7913818359375;-10.02337646484375;1.2885894775390625
1445424859319;326.57470703125;-82.8608627319336;-4.0745744705200195;0.8306121826171875;-10.121444702148438;1.1709136962890625
1445424859352;326.5810852050781;-82.86270904541016;-4.120494365692139;0.8502197265625;-10.08221435546875;1.32781982421875
1445424859385;326.7496032714844;-82.82575225830078;-4.192349910736084;0.7913818359375;-9.96453857421875;1.4062652587890625
1445424859419;326.6331787109375;-82.77434539794922;-4.205198764801025;0.6344757080078125;-10.042984008789062;1.26898193359375
1445424859451;326.48016357421875;-82.74810028076172;-4.208578586578369;0.7717742919921875;-10.14105224609375;1.3474273681640625
1445424859485;326.432373046875;-82.70598602294922;-4.272704124450684;0.869842529296875;-10.121444702148438;1.465118408203125
1445424859517;326.8564147949219;-82.60687255859375;-4.386842250823975;0.9482879638671875;-10.02337646484375;1.5435638427734375
1445424859550;326.9628601074219;-82.5859603881836;-4.43438196182251;0.869842529296875;-9.984146118164062;1.465118408203125
1445424859584;326.8474426269531;-82.60565948486328;-4.516580581665039;0.654083251953125;-9.925308227539062;1.2885894775390625
1445424859617;326.6813049316406;-82.60057830810547;-4.550461769104004;0.654083251953125;-10.08221435546875;1.21014404296875
1445424859650;326.457763671875;-82.55960845947266;-4.552954196929932;0.6933135986328125;-10.101821899414062;1.32781982421875
1445424859683;326.614990234375;-82.60992431640625;-4.5501508712768555;0.7913818359375;-10.003753662109375;1.50433349609375
1445424859715;326.769775390625;-82.5802993774414;-4.57293701171875;0.869842529296875;-10.042984008789062;1.4062652587890625
1445424859749;326.9248046875;-82.4797592163086;-4.64527702331543;0.928680419921875;-10.003753662109375;1.3474273681640625
1445424859780;326.9793395996094;-82.49542999267578;-4.754495143890381;0.8894500732421875;-10.160659790039062;1.3670501708984375
1445424859815;326.99615478515625;-82.51702880859375;-4.812338352203369;0.8109893798828125;-10.003753662109375;1.32781982421875
1445424859847;326.8138122558594;-82.45054626464844;-4.91122579574585;0.7521514892578125;-9.944915771484375;1.2885894775390625
1445424859880;326.3832702636719;-82.36404418945312;-4.931508541107178;0.6933135986328125;-10.160659790039062;1.2885894775390625
1445424859913;326.202880859375;-82.3245849609375;-4.938824653625488;0.8109893798828125;-10.356796264648438;1.308197021484375
1445424859946;326.0528259277344;-82.0862808227539;-5.1147894859313965;1.105194091796875;-10.042984008789062;1.38665771484375
1445424859979;326.2684020996094;-81.90278625488281;-5.3067803382873535;1.0855865478515625;-9.493820190429688;1.308197021484375
1445424860012;326.69146728515625;-81.91706848144531;-5.337445259094238;1.105194091796875;-9.552658081054688;1.582794189453125
1445424860045;327.42083740234375;-82.0728759765625;-5.250574588775635;0.928680419921875;-9.788009643554688;1.9554443359375
1445424860079;327.4355163574219;-82.19281768798828;-5.164779186248779;0.5756378173828125;-10.180282592773438;1.3670501708984375
1445424860111;326.4776611328125;-82.30859375;-4.9872941970825195;0.5560302734375;-10.356796264648438;1.1120758056640625
1445424860144;325.6222839355469;-82.28567504882812;-4.908781051635742;0.7325439453125;-10.415634155273438;1.1512908935546875
1445424860178;325.5106506347656;-82.31388092041016;-4.878896236419678;0.9678955078125;-10.14105224609375;1.6220245361328125
1445424860210;325.8012390136719;-82.41785430908203;-4.855232238769531;1.0267486572265625;-10.062606811523438;1.9162139892578125
1445424860244;326.2039794921875;-82.45413208007812;-4.875730514526367;1.1444244384765625;-10.003753662109375;1.7985382080078125
1445424860276;326.1205749511719;-82.54266357421875;-4.934024333953857;1.164031982421875;-10.02337646484375;1.3670501708984375
1445424860309;325.39788818359375;-82.86107635498047;-5.084829807281494;1.0659637451171875;-10.062606811523438;0.8374786376953125
1445424860342;324.62445068359375;-83.1104965209961;-5.1423659324646;1.0267486572265625;-9.96453857421875;0.9747772216796875
1445424860375;324.5354309082031;-83.25971984863281;-5.131300926208496;1.046356201171875;-9.944915771484375;1.131683349609375
1445424860409;324.8392333984375;-83.69522857666016;-4.959610939025879;0.7913818359375;-9.807632446289062;1.249359130859375
1445424860441;325.07281494140625;-83.84854888916016;-4.838669300079346;0.654083251953125;-9.827239990234375;1.072845458984375
1445424860475;324.965087890625;-83.98280334472656;-4.567165851593018;0.5756378173828125;-9.925308227539062;0.9747772216796875
1445424860507;324.36785888671875;-84.08696746826172;-4.337702751159668;0.654083251953125;-10.101821899414062;0.935546875
1445424860540;324.04449462890625;-84.15966796875;-4.220510005950928;0.6737060546875;-10.19989013671875;1.0532379150390625
1445424860573;323.8898010253906;-84.36744689941406;-3.8960628509521484;0.7521514892578125;-10.180282592773438;1.0532379150390625
1445424860606;324.2731628417969;-84.62437438964844;-3.435534715652466;0.5756378173828125;-9.925308227539062;1.0924530029296875
1445424860638;324.3879699707031;-84.7332763671875;-3.185727119445801;0.4971771240234375;-10.042984008789062;1.014007568359375
1445424860673;324.3827819824219;-84.99357604980469;-2.669264078140259;0.301055908203125;-10.278350830078125;0.9747772216796875
1445424860705;324.3821716308594;-85.46620178222656;-2.153343439102173;0.242218017578125;-10.278350830078125;0.8374786376953125
1445424860739;324.4560546875;-85.71092224121094;-1.9193809032440186;0.22259521484375;-10.31756591796875;0.7982635498046875
1445424860771;324.99835205078125;-86.04521942138672;-1.5157513618469238;0.418731689453125;-10.101821899414062;0.896331787109375
1445424860805;326.6026916503906;-86.30990600585938;-1.2489700317382812;0.7129364013671875;-10.02337646484375;1.2885894775390625
1445424860838;327.9336242675781;-86.55146026611328;-1.166123628616333;0.7717742919921875;-9.886077880859375;1.4847259521484375
1445424860872;331.422119140625;-87.3610610961914;-1.1130330562591553;0.9482879638671875;-9.827239990234375;1.3670501708984375
1445424860904;333.4241943359375;-87.78359985351562;-1.1139527559280396;1.0071258544921875;-10.239120483398438;1.0924530029296875
1445424860938;337.8363952636719;-88.35250091552734;-1.206010103225708;1.0855865478515625;-10.376419067382812;1.072845458984375
1445424860969;342.57623291015625;-88.52725982666016;-1.5463147163391113;0.8306121826171875;-10.160659790039062;0.9747772216796875
1445424861002;344.65142822265625;-88.35271453857422;-1.7322603464126587;0.0656890869140625;-9.866470336914062;0.7001953125
1445424861036;347.46087646484375;-87.3355941772461;-1.5631682872772217;-0.405029296875;-9.925308227539062;0.5432891845703125
1445424861068;348.3949279785156;-86.69419860839844;-1.138024926185608;-1.287628173828125;-10.02337646484375;0.8374786376953125
1445424861101;350.9718322753906;-85.58186340332031;-0.47034406661987305;-1.5622100830078125;-10.062606811523438;0.935546875
1445424861134;352.8688049316406;-84.56597900390625;0.007005426101386547;-1.9544830322265625;-10.160659790039062;0.8374786376953125
1445424861167;353.640869140625;-84.22154998779297;0.07106344401836395;-1.6995086669921875;-10.376419067382812;0.36676025390625
1445424861200;355.04144287109375;-84.10130310058594;0.06440336257219315;-1.346466064453125;-10.494094848632812;0.2294769287109375
1445424861233;356.1040344238281;-84.52538299560547;-0.21048064529895782;-0.3854217529296875;-11.062881469726562;-0.2020263671875
1445424861265;356.5000305175781;-84.83273315429688;-0.5228500366210938;0.2618255615234375;-10.7686767578125;-0.241241455078125
1445424861298;357.1023864746094;-85.58386993408203;-1.4049279689788818;0.359893798828125;-10.297958374023438;-0.182403564453125
1445424861332;357.54779052734375;-86.08882141113281;-2.1111056804656982;0.2029876708984375;-9.944915771484375;0.07257080078125
1445424861368;357.79345703125;-86.0816879272461;-2.3870368003845215;0.04608154296875;-9.729171752929688;0.01373291015625
1445424861398;358.0561828613281;-85.77468872070312;-2.897838592529297;-0.091217041015625;-9.434967041015625;0.19024658203125
1445424861431;358.0868835449219;-85.44139862060547;-3.2267274856567383;0.6344757080078125;-9.748779296875;1.50433349609375
1445424861464;358.4636535644531;-85.45365905761719;-3.2765140533447266;1.0855865478515625;-9.925308227539062;1.641632080078125
1445424861497;359.7605285644531;-85.63584899902344;-3.270395517349243;1.9093475341796875;-10.31756591796875;0.8571014404296875
1445424861530;0.169708251953125;-85.65106964111328;-3.3602309226989746;1.438629150390625;-10.356796264648438;0.1510162353515625
1445424861564;0.483856201171875;-85.86202239990234;-3.7902143001556396;0.987518310546875;-10.297958374023438;-0.2216339111328125
1445424861596;0.03326416015625;-86.30181121826172;-4.204631328582764;0.0656890869140625;-10.239120483398438;-0.9669342041015625
1445424861631;359.4073181152344;-86.52910614013672;-4.316426753997803;-0.836517333984375;-9.572265625;-0.9277191162109375
1445424861662;357.5447082519531;-86.8893814086914;-3.9954214096069336;-1.0130462646484375;-9.474197387695312;-0.515838623046875
1445424861695;355.97613525390625;-86.96244049072266;-2.8706650733947754;-0.97381591796875;-10.003753662109375;0.0333404541015625
1445424861732;354.6524353027344;-86.86844635009766;-1.3560280799865723;-0.1108245849609375;-11.023651123046875;-0.0451202392578125
1445424861761;353.75897216796875;-86.90457153320312;-0.7670269012451172;0.242218017578125;-11.376693725585938;-0.0451202392578125
1445424861795;351.0719909667969;-86.9962158203125;-0.29107487201690674;0.2618255615234375;-10.670608520507812;0.2686920166015625
1445424861828;349.2862243652344;-86.93668365478516;-0.19728697836399078;-0.7972869873046875;-9.513427734375;0.641357421875
1445424861860;345.68109130859375;-86.76862335205078;0.16113761067390442;-1.09149169921875;-9.533035278320312;0.81787109375
1445424861893;342.7049560546875;-86.6229248046875;0.7639904022216797;-0.954193115234375;-10.572540283203125;0.680572509765625
1445424861926;341.13897705078125;-86.54898834228516;0.8892332315444946;-0.6796112060546875;-10.749069213867188;0.7394256591796875
1445424861960;337.75152587890625;-86.84648895263672;0.8376816511154175;0.0068511962890625;-10.25872802734375;1.0532379150390625
1445424861992;336.1199951171875;-87.03506469726562;0.659130334854126;0.3206634521484375;-9.748779296875;0.994384765625
1445424862026;332.7439270019531;-87.05043029785156;0.1096544936299324;0.1245269775390625;-9.670333862304688;0.9747772216796875
1445424862058;329.6961364746094;-87.31684875488281;-0.37415358424186707;-0.3657989501953125;-9.631103515625;1.1512908935546875
1445424862092;328.383056640625;-87.59001922607422;-0.5473933815956116;-0.660003662109375;-9.748779296875;1.072845458984375
1445424862124;325.60418701171875;-87.6797866821289;-0.7392587065696716;-0.601165771484375;-9.866470336914062;0.759033203125
1445424862157;322.7865905761719;-87.56648254394531;-0.8537830114364624;-0.150054931640625;-9.788009643554688;0.6021270751953125
1445424862190;321.7967224121094;-87.59099578857422;-0.8195089101791382;0.4579620361328125;-9.886077880859375;0.8374786376953125
1445424862223;320.8084411621094;-87.42015075683594;-0.6040987372398376;0.7717742919921875;-10.101821899414062;0.8374786376953125
1445424862256;320.3594665527344;-87.12108612060547;-0.5095986127853394;1.046356201171875;-10.435256958007812;0.6021270751953125
1445424862290;320.261962890625;-87.11969757080078;-0.5332235097885132;1.0659637451171875;-10.572540283203125;0.4256134033203125
1445424862322;320.5521545410156;-87.22451782226562;-0.5723622441291809;0.654083251953125;-10.572540283203125;0.5236663818359375
1445424862356;321.787109375;-87.08871459960938;-0.4902189373970032;0.2618255615234375;-10.19989013671875;0.7786407470703125
1445424862388;322.5502624511719;-86.89288330078125;-0.46901896595954895;0.22259521484375;-10.101821899414062;0.8374786376953125
1445424862422;324.0712890625;-86.51786804199219;-0.6036393642425537;0.301055908203125;-10.02337646484375;0.7786407470703125
1445424862455;324.7329406738281;-86.37631225585938;-0.7735611796379089;0.242218017578125;-9.90570068359375;0.7198028564453125
1445424862488;325.8420715332031;-86.09598541259766;-1.2204011678695679;0.16375732421875;-9.944915771484375;0.7982635498046875
1445424862522;326.7817077636719;-85.89486694335938;-1.6112456321716309;0.0853118896484375;-10.494094848632812;0.7198028564453125
1445424862553;327.3311462402344;-85.89134979248047;-1.7965573072433472;0.3206634521484375;-10.356796264648438;0.36676025390625
1445424862586;328.4748229980469;-86.00019836425781;-2.2940316200256348;0.3795013427734375;-10.5333251953125;0.2686920166015625
1445424862619;329.1908874511719;-86.10147857666016;-2.9372799396514893;0.6148681640625;-10.435256958007812;0.19024658203125
1445424862652;329.392578125;-86.24054718017578;-3.309291124343872;0.6148681640625;-10.239120483398438;0.327545166015625
1445424862685;329.9060974121094;-86.752197265625;-4.027212619781494;0.6737060546875;-10.180282592773438;0.562896728515625
1445424862722;330.1451721191406;-86.95063781738281;-4.277037620544434;0.5560302734375;-10.02337646484375;0.58251953125
1445424862752;330.1104736328125;-87.0252914428711;-4.6589579582214355;0.3991241455078125;-10.02337646484375;0.5236663818359375
1445424862784;329.3034362792969;-86.9832992553711;-4.854622840881348;0.1833648681640625;-10.180282592773438;0.5236663818359375
1445424862817;328.7239685058594;-87.017822265625;-4.904331684112549;0.1833648681640625;-10.121444702148438;0.386383056640625
1445424862850;327.5559997558594;-87.2499008178711;-4.9233574867248535;0.2029876708984375;-10.042984008789062;0.30792236328125
1445424862883;326.2901611328125;-87.34150695800781;-4.775992393493652;0.2029876708984375;-10.042984008789062;0.19024658203125
1445424862918;325.4846496582031;-87.3175277709961;-4.627209186553955;0.10491943359375;-9.925308227539062;0.07257080078125
1445424862948;323.54290771484375;-87.2951889038086;-4.2253828048706055;0.0656890869140625;-9.846847534179688;0.1706390380859375
1445424862982;322.19390869140625;-87.11376953125;-3.7630295753479004;0.22259521484375;-10.396026611328125;0.876708984375
1445424863015;322.37713623046875;-86.93148040771484;-3.5165035724639893;0.5167999267578125;-10.5921630859375;1.0336151123046875
1445424863048;322.98809814453125;-86.6315689086914;-3.32043194770813;1.12481689453125;-10.121444702148438;0.8571014404296875
1445424863081;322.8135986328125;-86.56050109863281;-3.443129777908325;1.30133056640625;-9.768402099609375;0.759033203125
1445424863114;322.1606750488281;-86.3652572631836;-3.8738579750061035;1.41900634765625;-9.827239990234375;0.876708984375
1445424863147;322.1337585449219;-86.4332275390625;-4.035709381103516;1.673980712890625;-9.886077880859375;0.680572509765625
1445424863181;322.2721252441406;-86.61246490478516;-4.039474964141846;1.3993988037109375;-10.19989013671875;0.36676025390625
1445424863213;322.45880126953125;-86.66881561279297;-4.102747440338135;1.222869873046875;-10.415634155273438;0.327545166015625
1445424863246;323.25341796875;-86.5680160522461;-4.1347784996032715;1.2032623291015625;-10.356796264648438;0.504058837890625
1445424863279;323.9453125;-86.6671142578125;-4.138701915740967;1.0071258544921875;-9.572265625;0.7198028564453125
1445424863313;325.16986083984375;-86.79314422607422;-4.259951114654541;0.928680419921875;-9.297683715820312;0.8571014404296875
1445424863347;326.3750915527344;-86.4863052368164;-4.3203277587890625;0.7913818359375;-9.729171752929688;0.8571014404296875
1445424863381;327.1055603027344;-86.28313446044922;-4.22805643081665;0.8502197265625;-9.96453857421875;0.7786407470703125
1445424863411;328.9815979003906;-86.13513946533203;-3.993624687194824;0.9090576171875;-9.611495971679688;0.759033203125
1445424863445;330.0386657714844;-86.17268371582031;-3.8490114212036133;1.0071258544921875;-10.003753662109375;0.8374786376953125
1445424863477;332.308837890625;-85.8708267211914;-3.470313787460327;1.105194091796875;-10.415634155273438;0.8374786376953125
1445424863510;334.0909423828125;-85.84274291992188;-3.3874151706695557;0.869842529296875;-10.670608520507812;0.504058837890625
1445424863543;334.4615478515625;-86.08935546875;-3.403024673461914;-0.267730712890625;-9.670333862304688;0.5236663818359375
1445424863576;334.47259521484375;-86.13388061523438;-3.023024320602417;-3.0724334716796875;-8.042434692382812;1.700469970703125
1445424863609;336.4409484863281;-85.4157943725586;-2.889345169067383;1.3797760009765625;-12.769241333007812;-0.4373779296875
1445424863643;334.7205810546875;-84.78874206542969;-3.4603424072265625;2.43890380859375;-10.08221435546875;-0.0451202392578125
1445424863675;330.5647277832031;-85.27393341064453;-5.229789733886719;1.8308868408203125;-9.395751953125;0.3471527099609375
1445424863708;330.56549072265625;-87.75761413574219;-5.74188232421875;1.41900634765625;-9.572265625;0.896331787109375
1445424863745;331.49609375;-88.55081176757812;-5.248523712158203;0.7521514892578125;-9.925308227539062;0.680572509765625
1445424863775;331.2745666503906;-87.93950653076172;-5.148350238800049;0.477569580078125;-10.121444702148438;0.562896728515625
1445424863807;330.10174560546875;-86.65501403808594;-5.104757785797119;0.0656890869140625;-10.572540283203125;0.36676025390625
1445424863841;329.5986633300781;-86.43646240234375;-5.1822991371154785;0.301055908203125;-10.415634155273438;0.4844512939453125
1445424863874;328.8160400390625;-86.61127471923828;-5.354883670806885;0.4971771240234375;-10.239120483398438;0.5432891845703125
1445424863906;328.71044921875;-86.67723083496094;-5.394215106964111;0.8306121826171875;-9.827239990234375;0.7786407470703125
1445424863939;328.8232421875;-86.54387664794922;-5.316192626953125;0.9678955078125;-9.807632446289062;0.876708984375
1445424863972;328.65771484375;-86.48175811767578;-5.2612385749816895;0.9090576171875;-9.90570068359375;0.9159393310546875
1445424864006;328.2733154296875;-86.41913604736328;-5.262718677520752;0.8894500732421875;-10.14105224609375;0.8571014404296875
1445424864038;328.1863098144531;-86.38282775878906;-5.242434978485107;0.928680419921875;-10.19989013671875;0.7786407470703125
1445424864072;328.2545166015625;-86.35861206054688;-5.187465190887451;1.0659637451171875;-10.19989013671875;0.7982635498046875
1445424864104;328.4046630859375;-86.33709716796875;-5.154416084289551;0.8894500732421875;-10.121444702148438;0.7982635498046875
1445424864143;328.7697448730469;-86.34322357177734;-5.081157207489014;0.7913818359375;-10.042984008789062;0.7394256591796875
1445424864173;328.8726806640625;-86.36933135986328;-5.009751319885254;0.7325439453125;-10.003753662109375;0.7198028564453125
1445424864203;328.80975341796875;-86.35809326171875;-4.964731693267822;0.8109893798828125;-10.101821899414062;0.7001953125
1445424864237;328.8421936035156;-86.3642349243164;-4.884101390838623;0.8109893798828125;-10.121444702148438;0.7394256591796875
1445424864269;329.13629150390625;-86.36210632324219;-4.8129119873046875;0.8502197265625;-10.062606811523438;0.7786407470703125
1445424864302;329.2125244140625;-86.3313217163086;-4.784070014953613;0.8109893798828125;-10.101821899414062;0.7786407470703125
1445424864336;329.20660400390625;-86.30339813232422;-4.746339797973633;0.8109893798828125;-9.96453857421875;0.759033203125
1445424864368;329.10528564453125;-86.3141860961914;-4.72568941116333;0.7521514892578125;-10.180282592773438;0.58251953125
1445424864401;329.0361328125;-86.30491638183594;-4.698700428009033;0.6933135986328125;-10.19989013671875;0.680572509765625
1445424864434;328.930908203125;-86.33525085449219;-4.647879600524902;0.6737060546875;-10.062606811523438;0.7982635498046875
1445424864466;328.9496765136719;-86.33041381835938;-4.619089126586914;0.7717742919921875;-9.866470336914062;0.9159393310546875
1445424864500;329.1127624511719;-86.26770782470703;-4.551351547241211;0.7325439453125;-9.827239990234375;0.935546875
1445424864533;329.1446838378906;-86.12588500976562;-4.527882099151611;0.7717742919921875;-9.670333862304688;0.759033203125
1445424864566;329.0992126464844;-86.05374145507812;-4.569525718688965;0.8894500732421875;-10.180282592773438;0.4844512939453125
1445424864599;328.8524169921875;-85.95539093017578;-4.604512691497803;0.8502197265625;-10.631378173828125;0.2686920166015625
1445424864633;328.350830078125;-86.27361297607422;-4.511787414550781;0.6737060546875;-11.043258666992188;-0.1431732177734375
1445424864665;328.0938415527344;-86.66973876953125;-4.4517436027526855;0.5756378173828125;-11.004043579101562;-0.182403564453125
1445424864698;327.53302001953125;-87.02184295654297;-4.171571731567383;0.1833648681640625;-10.396026611328125;0.7001953125
1445424864731;327.6412658691406;-86.93826293945312;-3.960744857788086;0.3206634521484375;-9.474197387695312;1.641632080078125
1445424864764;328.3691711425781;-87.5177001953125;-3.5909736156463623;0.5167999267578125;-9.278060913085938;1.700469970703125
1445424864797;328.45330810546875;-88.10066986083984;-3.245858907699585;1.2032623291015625;-9.160385131835938;1.0924530029296875
1445424864831;327.8742370605469;-88.22289276123047;-3.3008480072021484;1.53668212890625;-9.317291259765625;0.7198028564453125
1445424864864;326.5951232910156;-88.49864196777344;-3.707036256790161;1.497467041015625;-9.513427734375;0.7001953125
1445424864896;326.1767883300781;-88.6418685913086;-3.895789861679077;1.24249267578125;-10.14105224609375;0.4844512939453125
1445424864931;326.21630859375;-88.59065246582031;-3.885143995285034;0.9482879638671875;-10.239120483398438;0.327545166015625
1445424864962;326.14581298828125;-88.33732604980469;-3.97881817817688;0.242218017578125;-10.415634155273438;0.19024658203125
1445424864995;325.5940246582031;-87.97689819335938;-4.104515075683594;-0.1892852783203125;-10.572540283203125;0.1706390380859375
1445424865028;325.4278259277344;-87.77874755859375;-4.101342678070068;-0.091217041015625;-10.396026611328125;0.2883148193359375
1445424865061;325.5209655761719;-87.62428283691406;-4.007015705108643;0.477569580078125;-10.14105224609375;0.680572509765625
1445424865095;326.0362854003906;-87.60260009765625;-3.7272465229034424;1.0071258544921875;-10.062606811523438;0.504058837890625
1445424865128;326.26763916015625;-87.63428497314453;-3.6102120876312256;1.0855865478515625;-10.042984008789062;0.327545166015625
1445424865160;326.3524169921875;-87.8682632446289;-3.551306962966919;0.7325439453125;-10.278350830078125;0.2686920166015625
1445424865193;326.3394470214844;-87.97755432128906;-3.5276920795440674;0.3795013427734375;-10.297958374023438;0.562896728515625
1445424865227;326.3984680175781;-88.28236389160156;-3.4350788593292236;0.3206634521484375;-10.062606811523438;0.7982635498046875
1445424865259;326.743408203125;-88.59285736083984;-3.273094892501831;0.4579620361328125;-9.611495971679688;0.955169677734375
1445424865291;326.89935302734375;-88.5685043334961;-3.205413818359375;0.654083251953125;-9.729171752929688;0.6021270751953125
1445424865326;326.8072509765625;-88.38444519042969;-3.2086684703826904;0.6933135986328125;-9.846847534179688;0.4059906005859375
1445424865359;326.5325927734375;-88.29572296142578;-3.3418612480163574;0.6737060546875;-10.101821899414062;0.1510162353515625
1445424865391;326.36456298828125;-88.23185729980469;-3.440293550491333;0.6737060546875;-10.356796264648438;0.111785888671875
1445424865424;325.7892761230469;-87.9748306274414;-3.5237913131713867;0.418731689453125;-10.5921630859375;0.0333404541015625
1445424865457;325.4998779296875;-87.88937377929688;-3.522920846939087;0.2618255615234375;-10.435256958007812;0.24908447265625
1445424865490;325.1146545410156;-87.78168487548828;-3.4292755126953125;0.3206634521484375;-10.356796264648438;0.36676025390625
1445424865523;325.0546569824219;-87.78380584716797;-3.3128976821899414;0.5167999267578125;-10.239120483398438;0.4256134033203125
1445424865556;325.1437072753906;-87.82563018798828;-3.286137104034424;0.6933135986328125;-10.062606811523438;0.6609649658203125
1445424865589;325.32952880859375;-87.93860626220703;-3.2694320678710938;0.7129364013671875;-10.042984008789062;0.621734619140625
1445424865623;325.6055603027344;-88.04911041259766;-3.255253553390503;0.7717742919921875;-9.90570068359375;0.680572509765625
1445424865655;325.7942199707031;-88.06163024902344;-3.2415387630462646;0.654083251953125;-9.90570068359375;0.759033203125
1445424865691;326.0157470703125;-87.99431610107422;-3.217141628265381;0.6148681640625;-9.96453857421875;0.7001953125
1445424865723;326.1300354003906;-87.88013458251953;-3.2613842487335205;0.654083251953125;-9.886077880859375;0.641357421875
1445424865754;326.15478515625;-87.75663757324219;-3.3028252124786377;0.654083251953125;-10.160659790039062;0.4844512939453125
1445424865788;326.0556335449219;-87.49958038330078;-3.3724899291992188;0.6148681640625;-10.062606811523438;0.4059906005859375
1445424865820;325.7032775878906;-87.27489471435547;-3.3916685581207275;0.4971771240234375;-10.474472045898438;0.386383056640625
1445424865854;325.5635070800781;-87.15220642089844;-3.3346903324127197;0.536407470703125;-10.5921630859375;0.3471527099609375
1445424865888;325.53619384765625;-87.07623291015625;-3.2097809314727783;0.5756378173828125;-10.278350830078125;0.4844512939453125
1445424865919;325.62811279296875;-87.12902069091797;-3.1793580055236816;0.654083251953125;-10.042984008789062;0.5236663818359375
1445424865953;325.7797546386719;-87.25344848632812;-3.1506755352020264;0.6148681640625;-10.278350830078125;0.4256134033203125
1445424865985;325.74542236328125;-87.39204406738281;-3.1184022426605225;0.5756378173828125;-10.454864501953125;0.4844512939453125
1445424866018;325.8663635253906;-87.53734588623047;-3.090764284133911;0.5756378173828125;-9.96453857421875;0.9159393310546875
1445424866051;326.6629943847656;-87.8525161743164;-3.00236439704895;0.6148681640625;-9.611495971679688;1.014007568359375
1445424866084;327.4809265136719;-87.79232025146484;-2.923069715499878;0.6344757080078125;-9.474197387695312;0.896331787109375
1445424866118;327.6316833496094;-87.73445892333984;-2.932121515274048;0.5167999267578125;-9.709564208984375;0.5236663818359375
1445424866150;327.32427978515625;-87.68701171875;-3.04512095451355;0.477569580078125;-9.827239990234375;0.36676025390625
1445424866182;326.7947692871094;-87.53882598876953;-3.0664024353027344;0.359893798828125;-10.5333251953125;0.24908447265625
1445424866217;326.67791748046875;-87.43595886230469;-2.9702308177948;0.2618255615234375;-10.435256958007812;0.2098541259765625
1445424866249;326.2525329589844;-87.16971588134766;-2.5956664085388184;-0.01275634765625;-10.101821899414062;0.19024658203125
1445424866282;325.4967346191406;-86.64288330078125;-2.188159465789795;0.04608154296875;-10.356796264648438;0.4059906005859375
1445424866315;325.3771057128906;-86.3824234008789;-1.9664099216461182;0.1833648681640625;-10.356796264648438;0.4844512939453125
1445424866348;325.87335205078125;-86.27825164794922;-1.6392707824707031;0.536407470703125;-10.552932739257812;0.504058837890625
1445424866382;326.2295837402344;-86.39070129394531;-1.605495810508728;0.8502197265625;-10.376419067382812;0.641357421875
1445424866414;327.0169982910156;-86.65541076660156;-1.887811303138733;0.9678955078125;-10.278350830078125;0.8374786376953125
1445424866447;328.0630798339844;-86.81339263916016;-2.3912065029144287;0.928680419921875;-9.96453857421875;1.0336151123046875
1445424866481;328.6264953613281;-86.87128448486328;-2.665334463119507;0.9090576171875;-9.807632446289062;0.994384765625
1445424866514;329.4596252441406;-87.00428009033203;-3.181859254837036;0.7717742919921875;-9.670333862304688;0.896331787109375
1445424866547;329.5431213378906;-87.0621109008789;-3.5647501945495605;0.4971771240234375;-9.650726318359375;0.8374786376953125
1445424866579;329.2203674316406;-86.9642333984375;-3.651982545852661;0.2618255615234375;-9.768402099609375;0.759033203125
1445424866612;328.3598937988281;-86.69586944580078;-3.5877809524536133;-0.1304473876953125;-10.454864501953125;0.5236663818359375
1445424866645;328.1525573730469;-86.40570068359375;-3.4287476539611816;-0.1108245849609375;-10.552932739257812;0.052947998046875
1445424866679;328.0453796386719;-86.26155853271484;-3.554313898086548;-0.0716094970703125;-10.5333251953125;-0.1431732177734375
1445424866711;326.7434387207031;-86.05970764160156;-4.090662002563477;0.10491943359375;-10.494094848632812;-0.005889892578125
1445424866745;325.82061767578125;-86.05091094970703;-4.426302909851074;0.536407470703125;-10.337188720703125;0.386383056640625
1445424866777;323.9325256347656;-86.30303192138672;-5.156968116760254;0.7521514892578125;-10.297958374023438;0.562896728515625
1445424866810;322.6811828613281;-86.78644561767578;-5.884666919708252;1.2621002197265625;-10.042984008789062;0.6609649658203125
1445424866843;322.31524658203125;-86.98682403564453;-6.251805782318115;1.41900634765625;-9.788009643554688;0.7001953125
1445424866876;321.7127990722656;-87.11820983886719;-6.9620466232299805;1.438629150390625;-9.591873168945312;0.7394256591796875
1445424866910;321.2607421875;-87.0828857421875;-7.65779972076416;1.2032623291015625;-9.474197387695312;0.680572509765625
1445424866942;321.069580078125;-87.02558898925781;-7.875169277191162;1.2032623291015625;-9.611495971679688;0.7982635498046875
1445424866976;321.1334228515625;-86.90921020507812;-8.014192581176758;1.3405609130859375;-9.984146118164062;0.7394256591796875
1445424867008;321.8575439453125;-86.72941589355469;-7.9204888343811035;1.497467041015625;-10.25872802734375;0.3471527099609375
1445424867042;322.3433837890625;-86.63743591308594;-7.833735942840576;1.47784423828125;-10.297958374023438;0.1706390380859375
1445424867074;323.3503723144531;-86.50659942626953;-7.676961898803711;1.4582366943359375;-10.278350830078125;0.2098541259765625
1445424867107;323.7875061035156;-86.42793273925781;-7.600246906280518;1.4582366943359375;-10.180282592773438;0.5236663818359375
1445424867140;324.5568542480469;-86.3740234375;-7.524238109588623;1.3797760009765625;-10.121444702148438;0.641357421875
1445424867175;324.9926452636719;-86.48802185058594;-7.592888355255127;1.24249267578125;-10.02337646484375;0.8374786376953125
1445424867207;325.17144775390625;-86.54411315917969;-7.661021709442139;1.2817230224609375;-10.08221435546875;0.680572509765625
1445424867240;325.6328430175781;-86.6067886352539;-7.790865898132324;1.2817230224609375;-10.003753662109375;0.7198028564453125
1445424867274;326.062255859375;-86.70162200927734;-7.96038818359375;1.3209381103515625;-9.729171752929688;0.759033203125
1445424867305;326.0940246582031;-86.74848937988281;-8.059069633483887;1.18365478515625;-9.650726318359375;0.7786407470703125
1445424867338;325.96337890625;-86.7701644897461;-8.132150650024414;1.0659637451171875;-9.768402099609375;0.680572509765625
1445424867372;325.906005859375;-86.85875701904297;-8.08539867401123;1.222869873046875;-9.886077880859375;0.30792236328125
1445424867405;325.96270751953125;-86.88737487792969;-8.057377815246582;1.3209381103515625;-10.08221435546875;0.2686920166015625
1445424867438;326.22601318359375;-86.96846771240234;-7.925565242767334;1.3797760009765625;-10.278350830078125;0.327545166015625
1445424867470;326.44488525390625;-87.06843566894531;-7.863560676574707;1.2817230224609375;-10.239120483398438;0.36676025390625
1445424867504;326.6537170410156;-87.17179107666016;-7.731657981872559;1.222869873046875;-9.90570068359375;0.30792236328125
1445424867536;326.747802734375;-87.28529357910156;-7.627490997314453;1.3797760009765625;-9.886077880859375;0.1706390380859375
1445424867569;326.7894287109375;-87.38497924804688;-7.539867877960205;1.3993988037109375;-9.886077880859375;0.24908447265625
1445424867602;326.95599365234375;-87.68480682373047;-7.372191429138184;1.2817230224609375;-9.925308227539062;0.2686920166015625
1445424867635;326.8246765136719;-87.8664779663086;-7.023831367492676;1.0267486572265625;-9.886077880859375;0.4648284912109375
1445424867669;326.78216552734375;-87.84237670898438;-6.8111252784729;0.869842529296875;-10.101821899414062;0.641357421875
1445424867701;326.50909423828125;-87.52454376220703;-6.37951135635376;0.869842529296875;-10.160659790039062;0.562896728515625
1445424867734;326.1807861328125;-87.27833557128906;-6.174940586090088;0.7717742919921875;-10.062606811523438;0.641357421875
1445424867768;325.26324462890625;-86.91676330566406;-5.959047317504883;0.7325439453125;-9.709564208984375;0.680572509765625
1445424867801;324.39044189453125;-86.61029052734375;-5.893254280090332;0.987518310546875;-9.90570068359375;0.8571014404296875
1445424867835;324.13787841796875;-86.3957290649414;-5.857235908508301;1.2621002197265625;-10.297958374023438;0.6609649658203125
1445424867866;323.8903503417969;-86.1050796508789;-5.814774990081787;1.3209381103515625;-10.219512939453125;0.4256134033203125
1445424867899;323.57843017578125;-85.80976867675781;-5.8194475173950195;1.222869873046875;-10.415634155273438;0.4648284912109375
1445424867933;323.50006103515625;-85.54300689697266;-5.782174587249756;1.0659637451171875;-10.25872802734375;0.5432891845703125
1445424867966;323.39727783203125;-85.15389251708984;-5.753311634063721;1.0267486572265625;-10.160659790039062;0.621734619140625
1445424867998;323.0418701171875;-84.764892578125;-5.783071517944336;0.8894500732421875;-10.003753662109375;1.2297515869140625
1445424868031;322.7657775878906;-84.56517028808594;-5.789021968841553;1.105194091796875;-10.042984008789062;0.994384765625
1445424868064;322.3413391113281;-84.16962432861328;-5.785749912261963;1.24249267578125;-10.101821899414062;0.876708984375
1445424868097;321.796875;-83.67436218261719;-5.786439895629883;1.2621002197265625;-9.846847534179688;0.7786407470703125
1445424868131;321.4523620605469;-83.33018493652344;-5.794604301452637;1.2817230224609375;-9.866470336914062;1.1120758056640625
1445424868163;321.1896667480469;-82.64248657226562;-5.708703994750977;1.2621002197265625;-10.02337646484375;1.6220245361328125
1445424868199;321.5764465332031;-82.33946990966797;-5.493087291717529;0.9678955078125;-9.886077880859375;1.7200775146484375
1445424868229;321.5865783691406;-82.1871337890625;-5.37821626663208;0.8306121826171875;-9.807632446289062;1.6024017333984375
1445424868262;320.8270568847656;-81.57776641845703;-5.120619297027588;0.7521514892578125;-10.14105224609375;1.21014404296875
1445424868296;320.25225830078125;-81.17212677001953;-4.980918884277344;1.0071258544921875;-10.376419067382812;1.1709136962890625
1445424868328;319.44049072265625;-80.53531646728516;-4.811166286468506;1.164031982421875;-10.435256958007812;1.308197021484375
1445424868362;319.84588623046875;-80.3606185913086;-4.810619831085205;1.30133056640625;-10.14105224609375;1.9162139892578125
1445424868394;320.3531494140625;-80.31488800048828;-4.8619489669799805;1.222869873046875;-9.866470336914062;2.151580810546875
1445424868427;321.30224609375;-79.8949966430664;-4.990326881408691;1.12481689453125;-9.807632446289062;2.151580810546875
1445424868460;321.5547180175781;-79.5651626586914;-5.014492034912109;0.8306121826171875;-9.748779296875;2.092742919921875
1445424868494;321.4048156738281;-79.1260986328125;-4.9597249031066895;0.6933135986328125;-9.90570068359375;2.092742919921875
1445424868527;321.3067626953125;-78.93840026855469;-4.756897926330566;0.7129364013671875;-9.96453857421875;2.1123504638671875
1445424868559;321.36370849609375;-78.86580657958984;-4.652385234832764;0.8109893798828125;-9.886077880859375;2.0142822265625
1445424868592;321.6580505371094;-78.73042297363281;-4.480325698852539;0.7913818359375;-9.807632446289062;2.1319580078125
1445424868625;322.3412780761719;-78.62964630126953;-4.3234124183654785;0.8306121826171875;-9.748779296875;2.2888641357421875
1445424868659;322.5990905761719;-78.51107788085938;-4.231253623962402;0.5756378173828125;-9.827239990234375;2.2300262451171875
1445424868691;322.3507080078125;-78.19906616210938;-4.02061128616333;0.4971771240234375;-9.925308227539062;2.1319580078125
1445424868724;321.8934326171875;-78.09809112548828;-3.8432867527008057;0.536407470703125;-10.062606811523438;2.0535125732421875
1445424868757;321.829345703125;-78.1048812866211;-3.7685482501983643;0.6933135986328125;-9.984146118164062;2.2300262451171875
1445424868794;322.18255615234375;-78.04277801513672;-3.6670615673065186;0.7129364013671875;-9.886077880859375;2.328094482421875
1445424868823;322.5559997558594;-77.87726593017578;-3.552640676498413;0.6737060546875;-9.729171752929688;2.3084869384765625
1445424868856;322.72369384765625;-77.81599426269531;-3.482405185699463;0.6933135986328125;-9.925308227539062;2.3084869384765625
1445424868890;322.75933837890625;-77.6986083984375;-3.3655524253845215;0.6148681640625;-9.96453857421875;2.2496490478515625
1445424868922;322.0467834472656;-77.59957122802734;-3.2506821155548096;0.3991241455078125;-10.062606811523438;2.0142822265625
1445424868955;321.61822509765625;-77.63735961914062;-3.2016520500183105;0.3206634521484375;-10.101821899414062;1.9554443359375
1445424868989;320.96881103515625;-77.82275390625;-3.1850991249084473;0.3795013427734375;-10.180282592773438;2.0338897705078125
1445424869020;320.7285461425781;-77.97347259521484;-3.2027089595794678;0.536407470703125;-10.19989013671875;1.9358367919921875
1445424869054;320.7374267578125;-78.45470428466797;-3.3117122650146484;0.7325439453125;-10.101821899414062;1.7985382080078125
1445424869088;320.8902893066406;-78.89141082763672;-3.5134072303771973;0.654083251953125;-9.886077880859375;1.641632080078125
1445424869121;320.81597900390625;-79.04524230957031;-3.564234972000122;0.2618255615234375;-9.788009643554688;1.7200775146484375
1445424869153;320.3664855957031;-79.43321990966797;-3.4956133365631104;0.2029876708984375;-9.866470336914062;1.700469970703125
1445424869185;320.44720458984375;-79.7281723022461;-3.3530964851379395;0.595245361328125;-10.121444702148438;1.818145751953125
1445424869220;320.7436218261719;-79.91326904296875;-3.3167426586151123;0.6737060546875;-10.160659790039062;1.7985382080078125
1445424869252;321.166015625;-80.37984466552734;-3.35186505317688;0.536407470703125;-9.90570068359375;1.876983642578125
1445424869285;321.1277160644531;-80.6705093383789;-3.4028007984161377;0.5167999267578125;-9.925308227539062;1.641632080078125
1445424869318;321.1094970703125;-80.77870178222656;-3.414454936981201;0.654083251953125;-10.003753662109375;1.56317138671875
1445424869352;321.4642333984375;-81.03668212890625;-3.491246223449707;0.8109893798828125;-10.02337646484375;1.700469970703125
1445424869385;321.9472351074219;-81.29920196533203;-3.6145153045654297;0.7129364013671875;-10.101821899414062;1.7397003173828125
1445424869418;322.1138610839844;-81.41706848144531;-3.6710057258605957;0.6737060546875;-10.101821899414062;1.641632080078125
1445424869450;322.268798828125;-81.64542388916016;-3.795452833175659;0.654083251953125;-10.02337646484375;1.582794189453125
1445424869483;322.39471435546875;-81.74918365478516;-3.854621410369873;0.8894500732421875;-10.14105224609375;1.582794189453125
1445424869517;323.1160583496094;-82.04264068603516;-4.002706527709961;1.0071258544921875;-10.160659790039062;1.6024017333984375
1445424869549;324.01953125;-82.41520690917969;-4.232060432434082;0.8109893798828125;-10.042984008789062;1.465118408203125
1445424869584;324.0233154296875;-82.57107543945312;-4.344638347625732;0.3795013427734375;-10.02337646484375;1.1120758056640625
1445424869615;323.4082336425781;-82.92221069335938;-4.504024505615234;0.301055908203125;-10.003753662109375;1.131683349609375
1445424869648;323.15887451171875;-83.1444320678711;-4.53231954574585;0.4579620361328125;-9.90570068359375;1.0924530029296875
1445424869681;322.9398498535156;-83.55622100830078;-4.508510112762451;0.477569580078125;-9.846847534179688;1.0336151123046875
1445424869713;322.548828125;-83.94010162353516;-4.464844226837158;0.595245361328125;-10.003753662109375;0.9159393310546875
1445424869747;322.2603454589844;-84.37454223632812;-4.475429534912109;0.8306121826171875;-10.219512939453125;0.955169677734375
1445424869780;322.2943115234375;-84.5826416015625;-4.512150287628174;0.987518310546875;-10.101821899414062;0.955169677734375
1445424869813;322.2602233886719;-84.92400360107422;-4.633110523223877;0.8502197265625;-10.042984008789062;0.896331787109375
1445424869845;322.04107666015625;-85.0582046508789;-4.6738176345825195;0.6933135986328125;-10.25872802734375;0.36676025390625
1445424869880;321.0489807128906;-85.39891815185547;-4.719746112823486;0.6933135986328125;-10.160659790039062;0.19024658203125
1445424869912;320.21307373046875;-85.60932159423828;-4.791973114013672;0.654083251953125;-9.611495971679688;0.6021270751953125
1445424869946;319.92681884765625;-85.54120635986328;-4.708203315734863;0.6148681640625;-9.748779296875;0.759033203125
1445424869978;320.141357421875;-85.352783203125;-4.330897331237793;1.105194091796875;-10.454864501953125;0.876708984375
1445424870012;321.4464416503906;-85.75051879882812;-4.437300205230713;1.5759124755859375;-10.415634155273438;0.994384765625
1445424870045;322.042236328125;-85.94656372070312;-4.681052207946777;1.6543731689453125;-10.376419067382812;0.9747772216796875
1445424870077;322.80755615234375;-86.21956634521484;-5.335439682006836;1.497467041015625;-10.376419067382812;0.641357421875
1445424870110;323.1867370605469;-86.74211120605469;-5.945364952087402;1.0267486572265625;-10.435256958007812;0.6021270751953125
1445424870143;323.32904052734375;-87.13102722167969;-6.221823215484619;0.8502197265625;-10.278350830078125;0.6609649658203125
1445424870176;323.4779052734375;-87.7891845703125;-6.652780055999756;0.6148681640625;-10.160659790039062;0.504058837890625
1445424870209;323.5592346191406;-87.86003112792969;-6.823927879333496;0.9678955078125;-10.219512939453125;0.111785888671875
1445424870243;323.9546813964844;-87.91776275634766;-7.300335884094238;1.2621002197265625;-10.278350830078125;0.01373291015625
1445424870275;324.22314453125;-88.27842712402344;-8.343006134033203;1.75244140625;-10.14105224609375;0.36676025390625
1445424870308;324.055419921875;-88.47205352783203;-9.167279243469238;2.046630859375;-9.846847534179688;0.7982635498046875
1445424870341;322.9609375;-88.9070053100586;-11.119514465332031;2.0858612060546875;-9.493820190429688;0.8571014404296875
1445424870373;322.2679443359375;-89.03939819335938;-12.891059875488281;2.2623748779296875;-9.415359497070312;0.876708984375
1445424870407;322.2825012207031;-89.1114273071289;-13.568265914916992;2.3996734619140625;-9.670333862304688;0.641357421875
1445424870440;323.5309143066406;-89.72826385498047;-14.32694149017334;2.38006591796875;-9.729171752929688;0.2294769287109375
1445424870473;325.47705078125;-90.82233428955078;-14.741800308227539;2.3408355712890625;-9.827239990234375;-0.3197021484375
1445424870507;326.048828125;-91.19052124023438;-14.958739280700684;2.301605224609375;-9.788009643554688;-0.300079345703125
1445424870539;326.23455810546875;-91.4276123046875;-15.250701904296875;2.1446990966796875;-9.278060913085938;-0.0254974365234375
1445424870572;326.3216247558594;-91.48368835449219;-15.281299591064453;2.38006591796875;-9.513427734375;0.111785888671875
1445424870605;326.8263244628906;-91.69368743896484;-15.069786071777344;2.4585113525390625;-9.729171752929688;-0.0451202392578125
1445424870639;327.4575500488281;-92.0766830444336;-14.729543685913086;2.38006591796875;-9.591873168945312;-0.3393096923828125
1445424870671;327.57403564453125;-92.33135223388672;-14.491863250732422;2.0858612060546875;-9.572265625;-0.4177703857421875
1445424870705;327.4982604980469;-92.85505676269531;-14.017208099365234;2.0074005126953125;-9.807632446289062;-0.3981475830078125
1445424870737;327.3158264160156;-93.0578384399414;-13.723109245300293;1.5955352783203125;-9.140777587890625;-0.77081298828125
1445424870773;326.79168701171875;-93.45580291748047;-13.044715881347656;1.3993988037109375;-10.219512939453125;-0.7904205322265625
1445424870803;326.2007141113281;-93.69470977783203;-12.099752426147461;1.41900634765625;-10.415634155273438;-1.0453948974609375
1445424870840;325.8002014160156;-93.8448715209961;-11.091249465942383;1.41900634765625;-9.96453857421875;-1.319976806640625
1445424870870;325.3350830078125;-93.85674285888672;-10.641376495361328;1.556304931640625;-10.337188720703125;-1.1042327880859375
1445424870901;324.0093688964844;-93.59890747070312;-9.679322242736816;1.6543731689453125;-9.611495971679688;-0.6138916015625
1445424870935;323.5193176269531;-93.49129486083984;-9.226899147033691;2.0270233154296875;-10.08221435546875;0.0333404541015625
1445424870969;323.2434387207031;-93.1593017578125;-8.224105834960938;2.2231597900390625;-10.042984008789062;-0.123565673828125
1445424871001;323.5625305175781;-92.73837280273438;-7.302340984344482;2.125091552734375;-9.925308227539062;0.2294769287109375
1445424871034;323.452880859375;-92.39739227294922;-6.99808406829834;1.811279296875;-10.160659790039062;0.3471527099609375
1445424871067;323.058349609375;-91.13004302978516;-6.411561965942383;1.5955352783203125;-10.239120483398438;0.111785888671875
1445424871100;322.93511962890625;-90.2510757446289;-6.123623371124268;1.3209381103515625;-10.101821899414062;0.1706390380859375
1445424871133;322.8686828613281;-90.06161499023438;-6.062923431396484;1.2032623291015625;-9.768402099609375;0.876708984375
1445424871167;322.9903564453125;-89.62753295898438;-5.677677154541016;1.18365478515625;-10.101821899414062;0.9747772216796875
1445424871199;323.9133605957031;-89.14567565917969;-4.92815637588501;1.222869873046875;-10.729446411132812;0.641357421875
1445424871232;324.07958984375;-89.00931549072266;-4.8495001792907715;1.0855865478515625;-10.631378173828125;0.386383056640625
1445424871265;323.0992431640625;-88.77459716796875;-5.2084431648254395;0.7129364013671875;-9.827239990234375;0.1706390380859375
1445424871299;322.03369140625;-88.76306915283203;-5.434907913208008;0.536407470703125;-9.611495971679688;-0.005889892578125
1445424871331;321.6606140136719;-88.7479476928711;-5.449908256530762;0.6148681640625;-9.748779296875;-0.064727783203125
1445424871365;321.419189453125;-88.3504409790039;-5.267416954040527;1.222869873046875;-10.19989013671875;0.2098541259765625
1445424871398;321.5867614746094;-88.15185546875;-5.130158424377441;1.5170745849609375;-10.31756591796875;0.4256134033203125
1445424871431;322.3305969238281;-88.01426696777344;-4.989719867706299;1.673980712890625;-10.31756591796875;0.955169677734375
1445424871462;323.0787658691406;-87.76103210449219;-5.028698444366455;1.2621002197265625;-10.101821899414062;0.8571014404296875
1445424871497;323.21978759765625;-87.59477996826172;-5.1137495040893555;0.7129364013671875;-10.219512939453125;0.5432891845703125
1445424871529;322.9877624511719;-87.38289642333984;-5.30308723449707;0.418731689453125;-10.19989013671875;0.386383056640625
1445424871562;322.7951965332031;-87.2587890625;-5.309104919433594;0.1245269775390625;-10.062606811523438;0.386383056640625
1445424871595;322.9111328125;-87.1522216796875;-5.197373390197754;0.16375732421875;-10.003753662109375;0.4844512939453125
1445424871628;323.4173278808594;-86.94099426269531;-4.846465587615967;0.4579620361328125;-10.101821899414062;0.6609649658203125
1445424871661;323.646728515625;-86.84532165527344;-4.681472301483154;0.7325439453125;-10.19989013671875;0.621734619140625
1445424871694;323.64801025390625;-86.63549041748047;-4.507837295532227;0.7129364013671875;-10.180282592773438;0.562896728515625
1445424871728;323.41558837890625;-86.40042877197266;-4.399860858917236;0.7325439453125;-10.337188720703125;0.562896728515625
1445424871760;323.3250732421875;-86.31568908691406;-4.302091598510742;0.654083251953125;-10.121444702148438;0.6609649658203125
1445424871793;323.2855224609375;-86.15349578857422;-4.094607353210449;0.6344757080078125;-10.08221435546875;0.7786407470703125
1445424871826;323.49041748046875;-85.92524719238281;-3.9270107746124268;0.7325439453125;-10.02337646484375;0.9747772216796875
1445424871860;323.5389404296875;-85.77806854248047;-3.84468150138855;0.6344757080078125;-10.08221435546875;0.9159393310546875
1445424871892;323.2908935546875;-85.47248840332031;-3.755575656890869;0.6933135986328125;-10.19989013671875;0.876708984375
1445424871924;322.91156005859375;-85.28392028808594;-3.728203296661377;0.6737060546875;-10.101821899414062;0.7394256591796875
1445424871958;322.69189453125;-85.18389892578125;-3.7365520000457764;0.595245361328125;-9.925308227539062;0.9159393310546875
1445424871991;322.190673828125;-84.84898376464844;-3.6613998413085938;0.4579620361328125;-10.101821899414062;1.0532379150390625
1445424872024;321.8844909667969;-84.66883087158203;-3.5843584537506104;0.4383392333984375;-9.96453857421875;0.9159393310546875
1445424872058;321.04547119140625;-84.3294677734375;-3.5409319400787354;0.3991241455078125;-10.003753662109375;0.9747772216796875
1445424872090;320.0034484863281;-83.89945983886719;-3.5777647495269775;0.6933135986328125;-10.31756591796875;0.9159393310546875
1445424872124;319.3758239746094;-83.74649810791016;-3.643639326095581;0.7325439453125;-10.042984008789062;0.680572509765625
1445424872156;318.07769775390625;-83.59249114990234;-3.8147616386413574;0.7129364013671875;-9.96453857421875;0.7982635498046875
1445424872189;317.6007995605469;-83.41229248046875;-3.8982019424438477;0.9482879638671875;-10.08221435546875;1.072845458984375
1445424872221;317.68072509765625;-83.33583068847656;-3.911403179168701;0.9482879638671875;-9.886077880859375;1.3670501708984375
1445424872255;317.8511657714844;-83.14274597167969;-3.964736223220825;0.8502197265625;-9.827239990234375;1.38665771484375
1445424872289;317.1556701660156;-82.68773651123047;-3.9178335666656494;0.536407470703125;-9.866470336914062;1.190521240234375
1445424872322;316.4373779296875;-82.44794464111328;-3.852663278579712;0.22259521484375;-10.08221435546875;0.994384765625
1445424872355;314.80499267578125;-82.07329559326172;-3.6173431873321533;0.28143310546875;-10.14105224609375;1.1120758056640625
1445424872388;313.97833251953125;-81.63346099853516;-3.342742919921875;0.5756378173828125;-10.219512939453125;1.4847259521484375
1445424872419;314.0331115722656;-81.34822845458984;-3.2179574966430664;0.7129364013671875;-10.25872802734375;1.7789306640625
1445424872453;314.723876953125;-80.79109191894531;-3.0074546337127686;0.7717742919921875;-10.003753662109375;2.1711883544921875
1445424872486;315.1739807128906;-80.55872344970703;-2.9611873626708984;0.7913818359375;-9.788009643554688;2.269256591796875
1445424872519;315.90252685546875;-79.9493179321289;-2.951107978820801;0.8306121826171875;-9.827239990234375;2.328094482421875
1445424872552;315.73388671875;-79.4434814453125;-2.853208303451538;0.654083251953125;-9.886077880859375;2.2888641357421875
1445424872585;315.675537109375;-79.25236511230469;-2.8280746936798096;0.4579620361328125;-10.08221435546875;2.210418701171875
1445424872618;315.7223205566406;-79.0929946899414;-2.820432424545288;0.359893798828125;-10.042984008789062;2.2300262451171875
1445424872651;315.817626953125;-79.02932739257812;-2.836433172225952;0.3206634521484375;-9.984146118164062;2.1319580078125
1445424872684;316.154541015625;-78.83377075195312;-2.851119041442871;0.34027099609375;-9.925308227539062;2.2888641357421875
1445424872716;316.705810546875;-78.56605529785156;-2.8032870292663574;0.34027099609375;-9.944915771484375;2.3084869384765625
1445424872750;316.9632873535156;-78.4631118774414;-2.7661688327789307;0.28143310546875;-9.827239990234375;2.3477020263671875
1445424872784;317.24444580078125;-78.27757263183594;-2.6918678283691406;0.22259521484375;-9.827239990234375;2.3084869384765625
1445424872816;317.58123779296875;-78.07659912109375;-2.552143096923828;0.3795013427734375;-10.25872802734375;2.269256591796875
1445424872849;317.8750305175781;-78.03160858154297;-2.5153164863586426;0.536407470703125;-10.042984008789062;2.1711883544921875
1445424872882;318.3282165527344;-78.08494567871094;-2.6105802059173584;0.4383392333984375;-9.925308227539062;2.1907958984375
1445424872915;318.44012451171875;-78.24778747558594;-2.658932685852051;0.28143310546875;-9.925308227539062;2.1123504638671875
1445424872949;318.51007080078125;-78.3421630859375;-2.622051477432251;0.3795013427734375;-10.08221435546875;2.0142822265625
1445424872981;319.0346984863281;-78.58918762207031;-2.5597100257873535;0.3795013427734375;-9.925308227539062;2.1123504638671875
1445424873014;319.6483459472656;-78.82823944091797;-2.523228168487549;0.3206634521484375;-9.807632446289062;2.151580810546875
1445424873048;319.886474609375;-78.93778991699219;-2.4712610244750977;0.242218017578125;-9.866470336914062;1.9946746826171875
1445424873080;320.1535339355469;-79.20223236083984;-2.317131280899048;0.1833648681640625;-9.925308227539062;1.9554443359375
1445424873114;320.103515625;-79.52769470214844;-2.1927082538604736;0.22259521484375;-9.984146118164062;1.7985382080078125
1445424873146;320.11279296875;-79.68082427978516;-2.1662051677703857;0.3206634521484375;-10.02337646484375;1.818145751953125
1445424873179;320.2806396484375;-79.96739959716797;-2.2079524993896484;0.4579620361328125;-10.003753662109375;1.8573760986328125
1445424873216;320.1754150390625;-80.3177261352539;-2.3547542095184326;0.4579620361328125;-10.062606811523438;1.4847259521484375
1445424873245;319.9718933105469;-80.5286865234375;-2.4465999603271484;0.4579620361328125;-10.042984008789062;1.2885894775390625
1445424873279;319.29632568359375;-80.92594909667969;-2.590784788131714;0.3795013427734375;-10.25872802734375;0.9159393310546875
1445424873311;318.88238525390625;-81.12075805664062;-2.6159253120422363;0.3991241455078125;-10.454864501953125;0.7786407470703125
1445424873345;318.37481689453125;-81.62777709960938;-2.6514148712158203;0.4579620361328125;-10.454864501953125;0.8374786376953125
1445424873377;318.1805725097656;-82.1744155883789;-2.7657294273376465;0.4579620361328125;-10.337188720703125;1.072845458984375
1445424873411;318.44805908203125;-82.30841827392578;-2.8512678146362305;0.928680419921875;-9.96453857421875;1.9554443359375
1445424873444;319.67694091796875;-82.59590148925781;-3.1960136890411377;1.0267486572265625;-9.886077880859375;2.092742919921875
1445424873477;320.4798889160156;-83.07657623291016;-3.5498881340026855;0.9090576171875;-9.827239990234375;1.7200775146484375
1445424873510;320.48681640625;-83.235595703125;-3.755197525024414;0.4579620361328125;-9.748779296875;1.4258880615234375
1445424873542;319.72198486328125;-83.47718811035156;-4.163578033447266;0.3991241455078125;-9.670333862304688;1.38665771484375
1445424873575;319.16436767578125;-83.65261840820312;-4.338228702545166;0.4579620361328125;-9.886077880859375;1.3474273681640625
1445424873608;319.1422119140625;-83.75056457519531;-4.360895156860352;0.5560302734375;-9.827239990234375;1.26898193359375
1445424873641;319.7059326171875;-83.88568115234375;-4.37082576751709;0.9090576171875;-9.68994140625;1.32781982421875
