sep=;
timestamp;gyro-alpha;gyro-beta;gyro-gamma;accel-x;accel-y;accel-z
1445424997565;306.0740966796875;-89.64961242675781;23.60906219482422;-1.9348602294921875;-6.179168701171875;0.13140869140625
1445424997598;305.4502868652344;-90.0552978515625;24.074148178100586;-2.1309967041015625;-5.3750152587890625;0.4256134033203125
1445424997632;304.4095153808594;-90.53887939453125;24.611833572387695;-2.856689453125;-7.061767578125;1.131683349609375
1445424997664;304.2989501953125;-90.38619995117188;24.452892303466797;-2.366363525390625;-9.12115478515625;1.2885894775390625
1445424997696;304.49346923828125;-89.99374389648438;23.750350952148438;-1.3660736083984375;-8.983871459960938;2.8576507568359375
1445424997730;306.5497741699219;-89.2548599243164;22.545276641845703;0.026458740234375;-7.493255615234375;1.56317138671875
1445424997762;307.6307067871094;-88.55403137207031;21.95915412902832;-0.542327880859375;-7.493255615234375;0.36676025390625
1445424997796;308.89178466796875;-87.96040344238281;21.81863784790039;-4.6611175537109375;-9.12115478515625;-2.26141357421875
1445424997830;309.4206848144531;-87.87201690673828;22.301244735717773;-6.95587158203125;-10.7098388671875;-1.2219085693359375
1445424997861;309.6788330078125;-86.64387512207031;23.314409255981445;-7.328521728515625;-10.729446411132812;-1.084625244140625
1445424997895;309.4519958496094;-85.54486083984375;23.76471519470215;-6.4459228515625;-13.1026611328125;-2.4379425048828125
1445424997929;309.9289855957031;-85.49520874023438;24.546382904052734;-7.3089141845703125;-13.691055297851562;-0.751190185546875
1445424997961;309.6764221191406;-85.23814392089844;25.07176399230957;-7.4265899658203125;-12.337738037109375;-0.5354461669921875
1445424997994;308.45501708984375;-85.30887603759766;25.904062271118164;-5.504486083984375;-11.376693725585938;-0.574676513671875
1445424998028;307.7003173828125;-85.76927185058594;26.279582977294922;-4.50421142578125;-9.00347900390625;0.2883148193359375
1445424998059;305.7674560546875;-86.60507202148438;26.804584503173828;-3.60198974609375;-7.57171630859375;0.24908447265625
1445424998093;303.90966796875;-87.78314208984375;26.80681037902832;-1.3660736083984375;-6.0222625732421875;0.052947998046875
1445424998126;303.0766296386719;-88.50316619873047;26.705713272094727;-0.6207733154296875;-6.2183990478515625;0.445220947265625
1445424998162;301.7381591796875;-89.31050872802734;26.339981079101562;-0.7972869873046875;-6.72833251953125;1.1120758056640625
1445424998192;301.156982421875;-89.1779556274414;25.699371337890625;-1.2680206298828125;-6.3949127197265625;2.2300262451171875
1445424998224;300.8136291503906;-88.61952209472656;25.365642547607422;-1.7583465576171875;-6.1595458984375;1.9162139892578125
1445424998258;300.0833435058594;-87.13471221923828;24.80116081237793;-4.5826568603515625;-8.807342529296875;1.1512908935546875
1445424998293;299.05157470703125;-85.92887878417969;24.47322654724121;-7.505035400390625;-10.474472045898438;-1.0257720947265625
1445424998323;298.39990234375;-85.62542724609375;24.323596954345703;-8.426864624023438;-10.7098388671875;-1.888763427734375
1445424998358;297.30548095703125;-86.32256317138672;24.266998291015625;-5.8379058837890625;-9.807632446289062;-0.5942840576171875
1445424998389;296.68853759765625;-87.43875885009766;23.68467903137207;-4.1119384765625;-12.435806274414062;-1.6337890625
1445424998422;296.8717956542969;-87.62205505371094;22.879762649536133;-4.131561279296875;-12.965362548828125;-1.12384033203125
1445424998456;297.7930603027344;-88.05653381347656;21.815383911132812;-5.072998046875;-12.02392578125;0.01373291015625
1445424998489;299.42718505859375;-89.03824615478516;22.143991470336914;-5.680999755859375;-10.788284301757812;0.386383056640625
1445424998521;300.5809631347656;-89.32132720947266;22.464548110961914;-5.6025543212890625;-10.396026611328125;0.621734619140625
1445424998554;302.4608154296875;-89.93193054199219;22.74937629699707;-3.503936767578125;-8.88580322265625;0.4648284912109375
1445424998588;303.5928955078125;-90.33682250976562;22.694063186645508;-2.5821075439453125;-7.9835968017578125;0.7198028564453125
1445424998621;306.25103759765625;-90.75875854492188;22.45294189453125;-1.5033721923828125;-6.630279541015625;1.0532379150390625
1445424998653;309.3935852050781;-90.86503601074219;22.161399841308594;-1.9936981201171875;-7.3363494873046875;2.720367431640625
1445424998688;311.5489501953125;-90.63884735107422;21.576581954956055;-1.405303955078125;-7.57171630859375;3.406829833984375
1445424998719;317.119384765625;-89.6446533203125;19.448118209838867;0.0068511962890625;-8.630828857421875;1.7985382080078125
1445424998753;323.364013671875;-89.89503479003906;17.618459701538086;-0.3657989501953125;-7.4736480712890625;1.072845458984375
1445424998786;326.5458068847656;-90.10972595214844;17.280582427978516;-4.484588623046875;-5.845733642578125;-0.5550537109375
1445424998818;330.20330810546875;-90.22250366210938;18.473346710205078;-7.897308349609375;-6.5322113037109375;-1.1630706787109375
1445424998852;331.3406677246094;-90.6065902709961;19.518470764160156;-9.368301391601562;-8.76812744140625;-2.575225830078125
1445424998885;334.16058349609375;-90.36768341064453;20.672866821289062;-8.26995849609375;-11.553207397460938;-3.22247314453125
1445424998918;337.8962707519531;-89.167236328125;20.55188751220703;-7.2892913818359375;-16.29962158203125;-2.4771575927734375
1445424998952;339.59881591796875;-88.57428741455078;20.605941772460938;-8.368026733398438;-15.417037963867188;-2.5556182861328125
1445424998983;341.97454833984375;-88.09117889404297;21.33469009399414;-7.956146240234375;-11.200164794921875;-1.9868316650390625
1445424999017;344.7696228027344;-87.91370391845703;20.01148796081543;-6.1125030517578125;-10.7098388671875;-1.771087646484375
1445424999050;346.3673400878906;-87.69922637939453;19.05829429626465;-4.4061431884765625;-10.8863525390625;-1.6533966064453125
1445424999083;349.7232971191406;-87.49610137939453;17.468891143798828;-1.738739013671875;-8.591598510742188;-1.143463134765625
1445424999116;353.96795654296875;-87.52764892578125;15.631135940551758;-0.1108245849609375;-4.6885528564453125;-0.6138916015625
1445424999149;356.6625671386719;-87.65863037109375;14.586666107177734;0.22259521484375;-3.8059539794921875;-0.5550537109375
1445424999182;2.909088134765625;-87.9202651977539;13.30032730102539;0.0656890869140625;-5.218109130859375;-0.3589324951171875
1445424999216;5.8450927734375;-88.0040283203125;13.274643898010254;-0.640380859375;-8.4935302734375;1.9162139892578125
1445424999248;13.231170654296875;-87.69644165039062;13.994637489318848;-2.425201416015625;-9.258453369140625;3.7598724365234375
1445424999281;19.293670654296875;-87.34841918945312;14.13350772857666;-4.425750732421875;-6.1399383544921875;2.8184356689453125
1445424999314;21.15081787109375;-87.79780578613281;13.976508140563965;-5.0926055908203125;-7.434417724609375;2.1319580078125
1445424999347;25.384857177734375;-89.88001251220703;14.16146469116211;-6.073272705078125;-11.043258666992188;0.7001953125
1445424999379;29.939849853515625;-90.59087371826172;14.385802268981934;-7.01470947265625;-13.122268676757812;0.4256134033203125
1445424999413;31.900787353515625;-90.47954559326172;14.827088356018066;-7.9953765869140625;-14.593276977539062;-0.2216339111328125
1445424999446;34.49932861328125;-90.4275894165039;16.47429656982422;-8.740676879882812;-14.181396484375;-0.4373779296875
1445424999479;35.84051513671875;-90.60332489013672;16.9339599609375;-6.1713409423828125;-11.690505981445312;-0.0451202392578125
1445424999511;38.72198486328125;-90.2310562133789;18.14814567565918;-5.4064178466796875;-10.513702392578125;0.0921783447265625
1445424999553;41.303131103515625;-89.79086303710938;20.167037963867188;-4.7787933349609375;-7.944366455078125;-0.1627960205078125
1445424999578;42.497955322265625;-89.60326385498047;21.122798919677734;-4.484588623046875;-6.5125885009765625;-0.241241455078125
1445424999610;44.7755126953125;-89.23775482177734;22.8255558013916;-4.3276824951171875;-4.1786041259765625;0.30792236328125
1445424999654;46.26055908203125;-88.889892578125;23.927066802978516;-4.8964691162109375;-4.39434814453125;1.21014404296875
1445424999679;46.638427734375;-88.68741607666016;24.183902740478516;-5.1710662841796875;-5.728057861328125;1.6612396240234375
1445424999713;47.648834228515625;-87.95574188232422;24.32533073425293;-3.7196807861328125;-7.3951873779296875;1.50433349609375
1445424999745;49.3270263671875;-86.973876953125;23.95111846923828;-2.8959197998046875;-7.5324859619140625;1.50433349609375
1445424999776;49.86865234375;-86.90608215332031;24.121122360229492;-0.3854217529296875;-7.3951873779296875;0.24908447265625
1445424999809;50.312896728515625;-87.90896606445312;25.722543716430664;-3.4058685302734375;-8.964248657226562;-1.2415313720703125
1445424999841;50.365814208984375;-88.78477478027344;27.314197540283203;-6.6224517822265625;-12.749618530273438;-1.12384033203125
1445424999875;50.20330810546875;-88.86418914794922;27.463672637939453;-6.9362640380859375;-13.122268676757812;-0.868865966796875
1445424999908;49.783660888671875;-88.61294555664062;27.346324920654297;-8.544540405273438;-14.220611572265625;-0.182403564453125
1445424999940;49.053192138671875;-88.69049835205078;27.266372680664062;-8.309188842773438;-11.749343872070312;-0.810028076171875
1445424999975;46.93865966796875;-89.16275787353516;26.58609962463379;-7.642333984375;-11.180557250976562;-1.00616455078125
1445425000009;44.26904296875;-89.81737518310547;25.610952377319336;-5.955596923828125;-8.650436401367188;-1.3984375
1445425000039;42.303924560546875;-90.11195373535156;25.29775047302246;-5.9752044677734375;-8.081649780273438;-1.3395843505859375
1445425000074;37.41461181640625;-90.93541717529297;25.231494903564453;-5.053375244140625;-4.6689453125;0.4844512939453125
1445425000105;32.108367919921875;-91.31427001953125;24.83122444152832;-2.935150146484375;-4.904296875;2.6811370849609375
1445425000139;29.543182373046875;-90.83829498291016;24.210363388061523;-2.2486724853515625;-6.806793212890625;3.1322479248046875
1445425000172;25.21795654296875;-89.2436294555664;22.55297088623047;-1.522979736328125;-8.022811889648438;2.6026763916015625
1445425000204;20.7451171875;-88.28307342529297;22.200496673583984;-0.6207733154296875;-5.7672882080078125;0.7394256591796875
1445425000237;18.37591552734375;-88.0966796875;22.44209861755371;-0.6796112060546875;-5.53192138671875;-0.5354461669921875
1445425000271;14.501251220703125;-87.40457916259766;22.889535903930664;-2.719390869140625;-7.6501617431640625;0.3471527099609375
1445425000304;10.80059814453125;-86.07252502441406;22.985788345336914;-5.01416015625;-10.729446411132812;1.3474273681640625
1445425000337;8.789459228515625;-85.55513763427734;22.792173385620117;-5.190673828125;-12.867294311523438;1.072845458984375
1445425000369;6.2523193359375;-85.5038833618164;21.992778778076172;-5.2102813720703125;-18.182510375976562;0.2098541259765625
1445425000403;5.25103759765625;-85.1881103515625;21.40589714050293;-6.89703369140625;-16.201568603515625;-0.0843353271484375
1445425000436;4.789306640625;-85.2748794555664;21.217910766601562;-7.093170166015625;-14.455978393554688;0.052947998046875
1445425000469;3.925384521484375;-84.8957290649414;20.736509323120117;-5.622161865234375;-12.788848876953125;-0.0843353271484375
1445425000502;3.5657958984375;-84.43502044677734;20.207509994506836;-1.8171844482421875;-8.88580322265625;-0.064727783203125
1445425000535;2.81768798828125;-84.04149627685547;19.235889434814453;-1.4445343017578125;-7.68939208984375;0.01373291015625
1445425000568;2.107635498046875;-84.05565643310547;18.943620681762695;-0.150054931640625;-4.0020904541015625;0.7394256591796875
1445425000602;1.80401611328125;-84.17253112792969;18.913185119628906;-0.0519866943359375;-4.78662109375;0.504058837890625
1445425000634;1.31341552734375;-84.66404724121094;18.837604522705078;-1.09149169921875;-5.9045867919921875;0.7982635498046875
1445425000666;0.50555419921875;-85.24761199951172;19.208948135375977;-3.621612548828125;-7.1990509033203125;1.759307861328125
1445425000700;0.044677734375;-85.24821472167969;19.42544937133789;-4.484588623046875;-8.336624145507812;1.9162139892578125
1445425000733;359.015869140625;-84.79769897460938;19.199167251586914;-3.5235443115234375;-9.591873168945312;1.4062652587890625
1445425000766;358.4900207519531;-84.59103393554688;18.667882919311523;-3.5823822021484375;-10.062606811523438;0.621734619140625
1445425000800;357.5262756347656;-84.43108367919922;17.63288116455078;-4.2884674072265625;-10.239120483398438;0.935546875
1445425000832;357.13397216796875;-85.42919921875;17.746856689453125;-3.9550323486328125;-8.728897094726562;0.680572509765625
1445425000864;357.2664794921875;-86.00990295410156;18.166091918945312;-4.0727081298828125;-8.473922729492188;0.896331787109375
1445425000897;357.48504638671875;-86.52674865722656;18.7005615234375;-4.700347900390625;-11.298233032226562;1.7789306640625
1445425000930;358.0391845703125;-86.95767974853516;18.55141830444336;-4.2688446044921875;-14.024490356445312;1.4062652587890625
1445425000964;358.6326904296875;-87.22796630859375;18.85411834716797;-4.9749298095703125;-14.181396484375;2.1123504638671875
1445425000997;0.1510009765625;-87.14691162109375;19.84717559814453;-5.70062255859375;-10.8863525390625;1.21014404296875
1445425001030;1.2225341796875;-87.60868835449219;20.757551193237305;-5.81829833984375;-9.729171752929688;-0.0843353271484375
1445425001062;1.70355224609375;-88.04219818115234;21.30430030822754;-4.79840087890625;-8.1993408203125;-0.3981475830078125
1445425001096;1.777191162109375;-88.80885314941406;22.427398681640625;-4.3276824951171875;-5.17889404296875;0.7394256591796875
1445425001128;1.419647216796875;-89.0406723022461;22.74074363708496;-2.68017578125;-5.1396636962890625;1.21014404296875
1445425001162;1.0518798828125;-88.64562225341797;22.45856285095215;-0.91497802734375;-7.0029296875;0.7982635498046875
1445425001195;1.610809326171875;-88.11786651611328;21.695423126220703;-0.85614013671875;-8.179718017578125;1.1709136962890625
1445425001228;1.949951171875;-88.09040832519531;21.446033477783203;-2.974365234375;-8.101272583007812;1.465118408203125
1445425001260;2.70587158203125;-88.56854248046875;21.325714111328125;-3.7196807861328125;-8.748504638671875;0.876708984375
1445425001293;3.251190185546875;-89.39053344726562;21.449567794799805;-5.4652557373046875;-10.25872802734375;0.24908447265625
1445425001327;3.322967529296875;-89.75381469726562;21.54952621459961;-6.5439910888671875;-11.827789306640625;0.4844512939453125
1445425001360;3.98583984375;-90.16815948486328;21.636581420898438;-6.95587158203125;-14.573654174804688;-0.0451202392578125
1445425001393;4.874420166015625;-90.07928466796875;21.850831985473633;-6.7401275634765625;-13.534149169921875;0.052947998046875
1445425001425;5.296539306640625;-89.89891815185547;21.962554931640625;-6.1713409423828125;-11.827789306640625;0.2686920166015625
1445425001458;6.355377197265625;-89.44388580322266;22.435733795166016;-4.9553070068359375;-8.532760620117188;0.445220947265625
1445425001492;6.93963623046875;-89.30522155761719;22.85582160949707;-4.1707763671875;-7.4148101806640625;-0.241241455078125
1445425001526;8.1392822265625;-89.22383117675781;23.778053283691406;-3.9746551513671875;-6.630279541015625;-0.241241455078125
1445425001558;8.816375732421875;-89.81009674072266;24.675485610961914;-3.9746551513671875;-4.080535888671875;0.24908447265625
1445425001592;8.761016845703125;-90.21044158935547;25.1544189453125;-5.2887420654296875;-4.7081756591796875;0.07257080078125
1445425001625;7.88568115234375;-90.48938751220703;25.916112899780273;-5.7986907958984375;-6.55181884765625;0.386383056640625
1445425001658;6.723907470703125;-90.22003936767578;25.89737319946289;-3.7785186767578125;-6.9636993408203125;1.131683349609375
1445425001689;6.28253173828125;-89.95635986328125;25.884037017822266;-3.170501708984375;-6.806793212890625;0.876708984375
1445425001723;4.7559814453125;-89.27543640136719;26.611114501953125;-4.0138702392578125;-8.2581787109375;0.3471527099609375
1445425001757;2.700775146484375;-88.61843872070312;27.7187557220459;-3.36663818359375;-8.76812744140625;0.2098541259765625
1445425001789;2.057952880859375;-88.1789321899414;28.136703491210938;-2.856689453125;-9.572265625;-0.2608642578125
1445425001822;1.11578369140625;-87.37907409667969;28.625852584838867;-4.1119384765625;-12.180831909179688;-0.692352294921875
1445425001855;0.24560546875;-87.37146759033203;28.77635383605957;-5.9163665771484375;-13.083053588867188;-0.633514404296875
1445425001888;357.84869384765625;-88.15071105957031;29.35512924194336;-9.152557373046875;-14.259841918945312;0.19024658203125
1445425001920;355.6231689453125;-88.57992553710938;29.162830352783203;-7.446197509765625;-13.67144775390625;-0.241241455078125
1445425001954;354.28619384765625;-88.72675323486328;28.538040161132812;-5.9163665771484375;-12.02392578125;-0.4962158203125
1445425001987;351.29815673828125;-89.60289764404297;27.26451301574707;-5.2691192626953125;-9.944915771484375;-0.0254974365234375
1445425002020;347.9124450683594;-90.72563171386719;26.69060707092285;-4.6611175537109375;-8.179718017578125;0.0333404541015625
1445425002052;345.7823181152344;-91.51824951171875;26.651460647583008;-3.7588958740234375;-6.8264007568359375;1.21014404296875
1445425002085;342.9739074707031;-92.63539123535156;26.747068405151367;-1.0718841552734375;-4.727783203125;2.151580810546875
1445425002119;341.6415710449219;-91.9775390625;26.46050262451172;-0.4834747314453125;-7.86590576171875;2.5438385009765625
1445425002151;341.2114562988281;-91.44194030761719;26.18437385559082;-0.895355224609375;-8.689666748046875;2.64190673828125
1445425002185;340.14404296875;-90.75270080566406;26.2835693359375;-2.0721588134765625;-7.35595703125;1.2297515869140625
1445425002218;339.2590637207031;-90.49943542480469;26.404136657714844;-1.6995086669921875;-6.37530517578125;1.014007568359375
1445425002251;339.0425109863281;-90.45989227294922;26.22205924987793;-2.307525634765625;-7.3951873779296875;0.445220947265625
1445425002284;338.35491943359375;-90.54053497314453;26.23748779296875;-4.818023681640625;-10.454864501953125;-0.7315826416015625
1445425002317;337.7174072265625;-90.75284576416016;26.685575485229492;-7.01470947265625;-11.78857421875;-0.3589324951171875
1445425002350;336.0381164550781;-90.84696960449219;27.996715545654297;-8.917205810546875;-14.710952758789062;-0.2216339111328125
1445425002382;334.85723876953125;-90.67300415039062;27.958677291870117;-5.4064178466796875;-14.946304321289062;-0.3589324951171875
1445425002417;334.289306640625;-90.6112060546875;27.845367431640625;-5.327972412109375;-13.84796142578125;-0.241241455078125
1445425002450;332.51104736328125;-91.00138854980469;28.239809036254883;-6.2301788330078125;-11.317855834960938;0.2294769287109375
1445425002481;330.2132263183594;-91.53626251220703;28.387557983398438;-4.0923309326171875;-8.611221313476562;0.7198028564453125
1445425002515;328.86627197265625;-91.89207458496094;28.204421997070312;-1.8367919921875;-6.2183990478515625;0.4648284912109375
1445425002550;326.4281921386719;-92.60650634765625;27.708688735961914;-0.267730712890625;-4.0020904541015625;0.58251953125
1445425002581;324.340087890625;-92.87828063964844;27.354679107666016;-0.1304473876953125;-3.5313720703125;1.21014404296875
1445425002614;323.5261535644531;-92.85287475585938;27.33283805847168;-1.1307220458984375;-6.1595458984375;0.7982635498046875
1445425002646;322.22698974609375;-92.27108001708984;27.908510208129883;-2.8174591064453125;-8.670059204101562;1.4847259521484375
1445425002680;321.95306396484375;-91.26142120361328;28.519573211669922;-8.6622314453125;-10.08221435546875;1.8573760986328125
1445425002713;320.3145446777344;-87.60921478271484;29.476722717285156;-9.858642578125;-10.435256958007812;0.111785888671875
1445425002746;317.1842041015625;-86.18133544921875;28.670345306396484;-7.9169158935546875;-9.96453857421875;-1.5553436279296875
1445425002779;316.51055908203125;-86.33934783935547;27.75448989868164;-5.5240936279296875;-9.474197387695312;-0.82965087890625
1445425002811;316.3114318847656;-85.22064208984375;26.640838623046875;-6.7989654541015625;-10.729446411132812;-1.574951171875
1445425002845;315.63726806640625;-84.6413803100586;26.288305282592773;-6.9951019287109375;-11.200164794921875;-0.0254974365234375
1445425002877;315.64569091796875;-84.56763458251953;26.089014053344727;-5.8379058837890625;-10.297958374023438;-0.0254974365234375
1445425002910;316.6385192871094;-84.28404235839844;25.910390853881836;-4.876861572265625;-9.493820190429688;0.6609649658203125
1445425002944;318.8486022949219;-83.63800048828125;25.72039222717285;-5.190673828125;-9.395751953125;1.0924530029296875
1445425002977;320.0975341796875;-83.52495574951172;25.725330352783203;-5.01416015625;-9.140777587890625;1.072845458984375
1445425003010;322.9375915527344;-83.5749282836914;25.774728775024414;-3.4450836181640625;-7.86590576171875;1.1512908935546875
1445425003043;324.44757080078125;-83.66626739501953;25.713199615478516;-2.9547576904296875;-6.689117431640625;1.9162139892578125
1445425003076;327.81787109375;-84.14214324951172;25.409881591796875;-2.9547576904296875;-6.4537506103515625;1.9162139892578125
1445425003109;330.91644287109375;-84.48141479492188;24.7978515625;-3.4450836181640625;-5.7672882080078125;2.2300262451171875
1445425003144;332.66339111328125;-84.09140014648438;24.13308334350586;-4.366912841796875;-5.29656982421875;1.7789306640625
1445425003175;333.09393310546875;-83.92298126220703;24.05377769470215;-5.3475799560546875;-6.061492919921875;1.0924530029296875
1445425003209;333.32574462890625;-83.61021423339844;23.966257095336914;-6.8578033447265625;-9.709564208984375;-0.3393096923828125
1445425003241;333.24945068359375;-83.4562759399414;23.77222442626953;-7.4265899658203125;-11.180557250976562;-0.3589324951171875
1445425003274;332.175537109375;-83.49465942382812;23.44938087463379;-8.623001098632812;-11.612045288085938;-0.3197021484375
1445425003308;329.48291015625;-84.30592346191406;23.579975128173828;-9.544830322265625;-11.945480346679688;-0.005889892578125
1445425003340;327.6386413574219;-84.74303436279297;23.932605743408203;-9.740951538085938;-11.78857421875;0.4059906005859375
1445425003374;322.8771057128906;-85.56112670898438;25.19842529296875;-8.21112060546875;-9.278060913085938;1.32781982421875
1445425003406;320.2209777832031;-85.813232421875;25.817638397216797;-6.249786376953125;-6.3360748291015625;2.269256591796875
1445425003439;314.7931823730469;-85.76093292236328;26.600852966308594;-5.426025390625;-5.1396636962890625;2.779205322265625
1445425003471;310.0587463378906;-84.76123809814453;26.550859451293945;-4.2688446044921875;-4.3747406005859375;3.5048980712890625
1445425003504;307.886474609375;-84.00934600830078;26.22764015197754;-3.8765869140625;-5.0612030029296875;3.6814117431640625
1445425003537;303.6628112792969;-83.08426666259766;25.283742904663086;-2.484039306640625;-7.434417724609375;2.955718994140625
1445425003571;299.1806640625;-83.50416564941406;25.01521110534668;-2.2486724853515625;-8.983871459960938;1.876983642578125
1445425003603;297.3841552734375;-83.91913604736328;25.518301010131836;-1.8760223388671875;-9.925308227539062;1.014007568359375
1445425003637;293.70587158203125;-83.84325408935547;26.8053035736084;-2.17022705078125;-11.631668090820312;-0.9865570068359375
1445425003669;289.5245666503906;-83.76113891601562;26.74583625793457;-3.8765869140625;-10.08221435546875;-0.574676513671875
1445425003703;287.3965759277344;-84.36537170410156;26.471118927001953;-4.7199554443359375;-9.591873168945312;-0.8492584228515625
1445425003736;283.465576171875;-85.8874282836914;26.501110076904297;-5.9752044677734375;-12.180831909179688;-0.4569854736328125
1445425003768;281.9810791015625;-85.9676742553711;26.267946243286133;-6.4655303955078125;-15.3778076171875;-0.0254974365234375
1445425003801;279.4001159667969;-84.82096862792969;24.76563835144043;-5.896759033203125;-14.75018310546875;0.07257080078125
1445425003835;276.38372802734375;-84.57286834716797;23.21169090270996;-4.2884674072265625;-11.317855834960938;0.0921783447265625
1445425003868;274.7059326171875;-85.01004791259766;22.901208877563477;-4.249237060546875;-9.258453369140625;0.052947998046875
1445425003901;271.0830383300781;-86.23086547851562;22.869409561157227;-3.856964111328125;-5.4534759521484375;0.7001953125
1445425003934;267.02093505859375;-87.52015686035156;23.417827606201172;-2.5821075439453125;-2.472259521484375;1.6024017333984375
1445425003968;264.98651123046875;-87.7784194946289;23.76324462890625;-1.7779541015625;-2.8056793212890625;2.2496490478515625
1445425004000;261.58734130859375;-87.46343231201172;24.39141082763672;-1.4837646484375;-7.297119140625;3.4460601806640625
1445425004033;259.3809814453125;-86.30128479003906;24.89522361755371;-2.11138916015625;-11.239395141601562;2.3477020263671875
1445425004066;258.1612548828125;-85.89990997314453;25.32698631286621;-2.0133209228515625;-10.494094848632812;1.3670501708984375
1445425004100;255.7540283203125;-87.012451171875;26.540206909179688;-2.34674072265625;-7.257904052734375;-0.3589324951171875
1445425004131;254.60009765625;-87.62484741210938;27.246788024902344;-4.8964691162109375;-8.807342529296875;-0.9865570068359375
1445425004165;251.48583984375;-88.13616180419922;28.464981079101562;-6.7989654541015625;-11.062881469726562;-0.7119598388671875
1445425004198;249.17510986328125;-88.07020568847656;28.53709602355957;-9.152557373046875;-14.946304321289062;-0.3589324951171875
1445425004231;248.58941650390625;-87.67669677734375;28.13123321533203;-7.093170166015625;-16.593826293945312;-1.3395843505859375
1445425004263;247.61203002929688;-87.65184783935547;27.069137573242188;-6.4459228515625;-15.260116577148438;-1.12384033203125
1445425004296;246.92874145507812;-88.3256607055664;26.471248626708984;-5.64178466796875;-11.004043579101562;-0.7315826416015625
1445425004335;246.4696044921875;-89.1450424194336;26.232128143310547;-4.9160919189453125;-9.042709350585938;-0.633514404296875
1445425004364;245.90597534179688;-90.87828063964844;25.459951400756836;-2.8959197998046875;-6.120330810546875;-0.77081298828125
1445425004395;246.10443115234375;-91.81709289550781;24.86722755432129;-1.0522613525390625;-5.100433349609375;-0.0451202392578125
1445425004429;246.61944580078125;-92.18903350830078;24.61434555053711;-0.34619140625;-5.1985015869140625;0.24908447265625
1445425004461;248.34814453125;-92.63679504394531;24.31541633605957;-0.6207733154296875;-7.042144775390625;0.8571014404296875
1445425004495;250.34136962890625;-92.44771575927734;24.423683166503906;-2.0721588134765625;-7.7286224365234375;1.50433349609375
1445425004528;251.76980590820312;-92.12130737304688;24.234710693359375;-2.6997833251953125;-8.1993408203125;1.6808624267578125
1445425004566;254.6019287109375;-92.00909423828125;23.455766677856445;-4.0923309326171875;-9.06231689453125;1.4847259521484375
1445425004595;256.09942626953125;-92.03912353515625;23.205120086669922;-5.426025390625;-7.68939208984375;0.1706390380859375
1445425004627;258.77520751953125;-91.90850067138672;23.297855377197266;-5.99481201171875;-10.7686767578125;-0.4373779296875
1445425004663;261.44256591796875;-91.45298767089844;23.318735122680664;-6.877410888671875;-14.024490356445312;0.1510162353515625
1445425004693;262.7323303222656;-91.0668716430664;23.399641036987305;-6.7401275634765625;-13.141891479492188;0.504058837890625
1445425004727;265.67303466796875;-90.68696594238281;23.84766387939453;-5.81829833984375;-11.729736328125;0.504058837890625
1445425004759;269.9629211425781;-90.0577392578125;24.709375381469727;-4.56304931640625;-11.27862548828125;0.935546875
1445425004794;272.6442565917969;-89.51632690429688;25.195837020874023;-3.54315185546875;-11.043258666992188;1.3670501708984375
1445425004827;278.8808898925781;-89.07203674316406;25.757400512695312;-1.1307220458984375;-9.023101806640625;1.818145751953125
1445425004859;285.40069580078125;-89.7291030883789;25.603200912475586;-1.1307220458984375;-6.0418701171875;2.52423095703125
1445425004891;288.44598388671875;-90.12721252441406;25.39739990234375;-2.1309967041015625;-5.1396636962890625;1.582794189453125
1445425004927;292.9495849609375;-91.18199920654297;25.462982177734375;-4.249237060546875;-3.13909912109375;0.81787109375
1445425004957;294.9576110839844;-91.6153793334961;25.630552291870117;-4.700347900390625;-4.923919677734375;1.56317138671875
1445425004991;299.33563232421875;-90.76773071289062;24.958547592163086;-4.7199554443359375;-7.316741943359375;1.7985382080078125
1445425005022;303.01727294921875;-89.65728759765625;23.17475700378418;-5.112213134765625;-11.357070922851562;0.4059906005859375
1445425005058;304.37750244140625;-89.5299301147461;22.104969024658203;-5.01416015625;-12.41619873046875;0.07257080078125
1445425005088;307.3555908203125;-90.47235107421875;20.80655288696289;-4.7199554443359375;-12.847686767578125;0.052947998046875
1445425005122;310.5410461425781;-91.41172790527344;21.192161560058594;-7.4658203125;-13.2203369140625;1.32781982421875
1445425005156;312.0917663574219;-91.83513641357422;21.653472900390625;-8.623001098632812;-14.318679809570312;1.38665771484375
1445425005187;315.0841369628906;-92.36627197265625;22.280941009521484;-6.190948486328125;-13.416473388671875;1.0924530029296875
1445425005220;318.3619689941406;-93.38301086425781;22.91405487060547;-2.935150146484375;-9.356521606445312;1.190521240234375
1445425005253;320.1977844238281;-94.01256561279297;23.567502975463867;-1.8760223388671875;-7.23828125;1.0924530029296875
1445425005287;323.6164245605469;-95.07207489013672;25.060373306274414;-1.15032958984375;-3.9432525634765625;1.1120758056640625
1445425005320;327.3655700683594;-95.02912139892578;25.565031051635742;-2.484039306640625;-3.786346435546875;1.3474273681640625
1445425005352;329.26605224609375;-94.66555786132812;25.229713439941406;-3.0135955810546875;-4.2570648193359375;0.955169677734375
1445425005386;332.7121276855469;-93.8968734741211;24.493579864501953;-3.3862457275390625;-6.983306884765625;0.19024658203125
1445425005419;334.2537841796875;-93.5087890625;24.366695404052734;-3.42547607421875;-9.101547241210938;-0.7315826416015625
1445425005451;336.4064636230469;-92.91583251953125;24.789392471313477;-4.5826568603515625;-10.788284301757812;-2.065277099609375
1445425005484;337.8665466308594;-92.51775360107422;25.223970413208008;-5.4848785400390625;-9.258453369140625;-3.6147308349609375
1445425005520;338.4599609375;-92.49951171875;25.404735565185547;-5.896759033203125;-9.278060913085938;-3.908935546875
1445425005550;338.9644775390625;-92.2065658569336;26.13650894165039;-7.9169158935546875;-12.278900146484375;-3.889312744140625
1445425005583;338.8835754394531;-92.43611907958984;27.00945472717285;-8.505325317382812;-15.201278686523438;-3.477447509765625
1445425005617;338.4716796875;-92.92791748046875;27.07205581665039;-7.779632568359375;-13.514541625976562;-3.4382171630859375
1445425005650;337.4353332519531;-94.33234405517578;26.807262420654297;-6.1517181396484375;-9.96453857421875;-2.7321319580078125
1445425005683;336.7984313964844;-94.95736694335938;26.40264320373535;-4.6022796630859375;-7.74822998046875;-1.947601318359375
1445425005716;335.7778015136719;-95.73563385009766;25.15651512145996;-3.3274078369140625;-6.5125885009765625;-0.5354461669921875
1445425005748;335.1353759765625;-96.19757843017578;24.358064651489258;-1.9544830322265625;-6.120330810546875;0.1706390380859375
1445425005783;334.6228332519531;-96.6795883178711;24.29230499267578;-0.9345855712890625;-6.49298095703125;1.1512908935546875
1445425005814;334.23663330078125;-97.04043579101562;24.459789276123047;-0.718841552734375;-6.7675628662109375;1.1709136962890625
1445425005847;334.60943603515625;-95.27464294433594;23.66811752319336;-1.7779541015625;-5.17889404296875;-0.7904205322265625
1445425005883;334.3505859375;-94.54680633544922;23.41581153869629;-2.974365234375;-5.8261260986328125;-1.18267822265625
1445425005917;333.49298095703125;-93.91377258300781;23.90806770324707;-3.7196807861328125;-7.826690673828125;-0.6531219482421875
1445425005947;332.8785705566406;-92.71842193603516;24.770776748657227;-6.0928802490234375;-10.964813232421875;-0.7119598388671875
1445425005979;332.23480224609375;-92.05101776123047;25.192901611328125;-6.89703369140625;-11.827789306640625;-0.82965087890625
1445425006013;332.58367919921875;-90.97390747070312;25.324745178222656;-6.132110595703125;-15.04437255859375;-0.515838623046875
1445425006046;333.07391357421875;-90.52865600585938;25.463848114013672;-5.99481201171875;-15.220901489257812;-0.77081298828125
1445425006079;333.0377197265625;-90.94055938720703;25.75101661682129;-6.0536651611328125;-14.377532958984375;-0.94732666015625
1445425006111;333.4762268066406;-91.75975799560547;25.90397834777832;-5.58294677734375;-13.181106567382812;-1.3395843505859375
1445425006145;333.7704772949219;-92.10983276367188;25.809574127197266;-4.7199554443359375;-11.062881469726562;-1.3984375
1445425006178;334.1934509277344;-93.33463287353516;25.615699768066406;-3.915802001953125;-9.650726318359375;-0.692352294921875
1445425006210;335.3333435058594;-94.51310729980469;24.829483032226562;-1.09149169921875;-6.806793212890625;-0.2020263671875
1445425006244;336.23028564453125;-94.8443832397461;24.229888916015625;-0.01275634765625;-5.492706298828125;0.2883148193359375
1445425006276;338.664306640625;-95.46688842773438;23.244524002075195;1.046356201171875;-3.845184326171875;0.621734619140625
1445425006310;340.9300537109375;-95.8544692993164;23.73110008239746;-1.0130462646484375;-6.238006591796875;0.6609649658203125
1445425006343;341.84002685546875;-95.32059478759766;24.44778060913086;-2.935150146484375;-7.375579833984375;0.896331787109375
1445425006375;342.95989990234375;-93.69470977783203;26.404430389404297;-6.0928802490234375;-7.7089996337890625;0.8571014404296875
1445425006408;344.74627685546875;-91.90241241455078;26.567922592163086;-5.64178466796875;-8.5523681640625;1.2885894775390625
1445425006441;346.41143798828125;-90.86761474609375;25.334938049316406;-4.818023681640625;-9.493820190429688;1.4062652587890625
1445425006475;349.6545715332031;-89.27301788330078;23.529258728027344;-4.4061431884765625;-9.395751953125;0.680572509765625
1445425006508;351.05072021484375;-89.18639373779297;23.894046783447266;-5.99481201171875;-9.160385131835938;-0.005889892578125
1445425006541;354.4174499511719;-88.76060485839844;25.209529876708984;-7.093170166015625;-10.297958374023438;-0.1627960205078125
1445425006582;358.11541748046875;-87.92620086669922;24.975465774536133;-7.9169158935546875;-13.67144775390625;0.24908447265625
1445425006609;0.238525390625;-87.6600570678711;24.913074493408203;-7.1716156005859375;-13.573379516601562;0.386383056640625
1445425006642;5.027801513671875;-87.3563003540039;25.68877410888672;-5.896759033203125;-10.572540283203125;0.24908447265625
1445425006672;10.479736328125;-86.91316986083984;26.4311466217041;-5.680999755859375;-9.238845825195312;-0.005889892578125
1445425006707;13.217437744140625;-86.62545776367188;26.671064376831055;-5.622161865234375;-8.670059204101562;-0.3589324951171875
1445425006739;18.74298095703125;-86.0379638671875;26.684417724609375;-4.6414947509765625;-6.630279541015625;-0.4569854736328125
1445425006772;23.514251708984375;-86.03692626953125;26.061073303222656;-4.1119384765625;-6.3360748291015625;-0.82965087890625
1445425006806;25.482421875;-86.25784301757812;25.437877655029297;-4.7787933349609375;-6.414520263671875;0.327545166015625
1445425006838;28.920806884765625;-86.27072143554688;23.744972229003906;-4.50421142578125;-6.3164520263671875;1.131683349609375
1445425006870;30.472930908203125;-85.89004516601562;22.794944763183594;-4.2100067138671875;-6.2183990478515625;1.465118408203125
1445425006904;33.176422119140625;-84.30912780761719;21.367616653442383;-3.739288330078125;-7.35595703125;0.8571014404296875
1445425006937;35.71722412109375;-82.45854949951172;20.64812469482422;-3.1508941650390625;-9.12115478515625;0.2098541259765625
1445425006970;37.100433349609375;-81.80221557617188;20.368677139282227;-4.0531005859375;-11.90625;0.5236663818359375
1445425007003;39.6251220703125;-81.57234954833984;20.041656494140625;-5.2887420654296875;-12.945755004882812;1.26898193359375
1445425007035;42.7191162109375;-82.0737533569336;20.199827194213867;-6.6028289794921875;-13.416473388671875;1.7985382080078125
1445425007072;44.51483154296875;-82.10212707519531;20.254098892211914;-6.700897216796875;-13.55377197265625;1.7397003173828125
1445425007101;48.28936767578125;-81.72657012939453;20.12002944946289;-6.0928802490234375;-11.945480346679688;1.818145751953125
1445425007135;51.622344970703125;-80.6983413696289;20.08745002746582;-4.759185791015625;-9.140777587890625;1.8573760986328125
1445425007168;52.971923828125;-80.103515625;20.126102447509766;-4.0334930419921875;-7.68939208984375;1.876983642578125
1445425007201;55.039306640625;-78.85346221923828;20.397655487060547;-3.170501708984375;-6.0811004638671875;1.7789306640625
1445425007234;55.70465087890625;-78.42646789550781;20.681392669677734;-3.033203125;-6.689117431640625;1.6220245361328125
1445425007267;56.658203125;-78.46051788330078;20.905685424804688;-3.2685699462890625;-7.8462982177734375;1.9358367919921875
1445425007299;57.363250732421875;-78.95452880859375;20.532194137573242;-3.42547607421875;-7.92474365234375;2.9164886474609375
1445425007339;57.8133544921875;-79.09607696533203;20.30326271057129;-2.7586212158203125;-7.9051361083984375;2.5634613037109375
1445425007367;59.383636474609375;-79.14685821533203;20.16086769104004;-0.954193115234375;-7.7089996337890625;2.1123504638671875
1445425007399;61.379608154296875;-79.5966567993164;20.2780818939209;-1.3660736083984375;-7.9051361083984375;0.327545166015625
1445425007433;61.9765625;-79.97808837890625;20.471357345581055;-2.2682952880859375;-8.356246948242188;-0.0843353271484375
1445425007465;62.102447509765625;-81.58335876464844;21.17879867553711;-4.818023681640625;-10.337188720703125;-0.7904205322265625
1445425007498;61.14605712890625;-83.37784576416016;21.973072052001953;-7.152008056640625;-12.278900146484375;0.0921783447265625
1445425007530;60.58270263671875;-83.9177017211914;22.019617080688477;-6.759735107421875;-12.318130493164062;-0.0451202392578125
1445425007564;59.238494873046875;-84.4639663696289;21.623167037963867;-4.994537353515625;-12.082763671875;-0.7315826416015625
1445425007596;58.32965087890625;-84.66471099853516;21.330461502075195;-4.9553070068359375;-11.062881469726562;-0.7904205322265625
1445425007630;55.8341064453125;-84.91156768798828;20.361875534057617;-5.2887420654296875;-10.454864501953125;-0.300079345703125
1445425007662;52.409912109375;-84.86772155761719;19.243038177490234;-4.935699462890625;-9.729171752929688;0.327545166015625
1445425007696;50.365203857421875;-84.86286926269531;18.888931274414062;-4.3865203857421875;-9.12115478515625;0.2294769287109375
1445425007728;45.909271240234375;-84.90230560302734;18.47962760925293;-3.2097320556640625;-7.9051361083984375;0.386383056640625
1445425007762;41.783966064453125;-84.67008209228516;18.133207321166992;-2.22906494140625;-7.8462982177734375;1.249359130859375
1445425007794;39.79022216796875;-84.66478729248047;17.989721298217773;-1.7191162109375;-8.042434692382812;1.6808624267578125
1445425007829;35.917755126953125;-84.54501342773438;17.77083396911621;-1.287628173828125;-7.74822998046875;2.445770263671875
1445425007861;32.231689453125;-83.67394256591797;17.68419647216797;-1.3856964111328125;-6.5125885009765625;1.4062652587890625
1445425007896;30.374542236328125;-83.35215759277344;17.91736602783203;-2.032928466796875;-7.1402130126953125;1.38665771484375
1445425007927;26.56646728515625;-83.05549621582031;18.725574493408203;-3.739288330078125;-8.513153076171875;1.3474273681640625
1445425007962;22.446746826171875;-81.97714233398438;19.105514526367188;-3.8373565673828125;-10.5921630859375;1.44549560546875
1445425007993;20.520782470703125;-81.38414764404297;18.772462844848633;-3.30780029296875;-11.533599853515625;1.4847259521484375
1445425008026;17.592132568359375;-80.08301544189453;17.572757720947266;-3.229339599609375;-15.142440795898438;2.3084869384765625
1445425008059;14.87689208984375;-78.63019561767578;16.130449295043945;-4.44537353515625;-15.711227416992188;2.720367431640625
1445425008091;13.5367431640625;-77.92631530761719;15.426612854003906;-4.308074951171875;-14.102935791015625;2.9949493408203125
1445425008124;11.03271484375;-76.68680572509766;14.3101167678833;-3.3862457275390625;-11.16094970703125;1.876983642578125
1445425008159;9.821624755859375;-75.72142791748047;13.735040664672852;-2.660552978515625;-9.827239990234375;1.6612396240234375
1445425008191;7.879486083984375;-73.66275024414062;12.465448379516602;-0.6992340087890625;-6.689117431640625;1.131683349609375
1445425008225;6.18817138671875;-71.71333312988281;12.00605297088623;0.34027099609375;-4.2374420166015625;2.3673248291015625
1445425008258;5.532470703125;-70.70761108398438;12.02481460571289;0.418731689453125;-4.413970947265625;3.0537872314453125
1445425008290;5.0257568359375;-68.73834991455078;11.427046775817871;-0.1696624755859375;-6.414520263671875;2.1319580078125
1445425008323;4.34246826171875;-67.47444152832031;10.96364974975586;-1.464141845703125;-7.4148101806640625;2.5634613037109375
1445425008356;4.15869140625;-67.34330749511719;10.948418617248535;-1.5426025390625;-7.7874603271484375;3.15185546875
1445425008388;3.91680908203125;-67.86503601074219;10.965649604797363;-3.3470306396484375;-10.239120483398438;3.289154052734375
1445425008422;3.14288330078125;-69.12032318115234;12.24177074432373;-4.3276824951171875;-11.16094970703125;4.1717529296875
1445425008454;2.85113525390625;-69.7535629272461;13.139041900634766;-4.3473052978515625;-11.827789306640625;4.3090362548828125
1445425008487;2.755950927734375;-71.86270141601562;14.986820220947266;-3.915802001953125;-12.9261474609375;4.720916748046875
1445425008521;3.34893798828125;-72.87508392333984;15.690390586853027;-3.621612548828125;-13.0438232421875;6.1919097900390625
1445425008553;6.3182373046875;-72.74594116210938;15.543939590454102;-2.993988037109375;-13.063430786132812;5.603515625
1445425008587;10.60150146484375;-72.15937042236328;15.526777267456055;-2.542877197265625;-12.141616821289062;4.0148468017578125
1445425008621;13.073333740234375;-72.07903289794922;16.16332244873047;-2.719390869140625;-10.847137451171875;3.583343505859375
1445425008653;18.95361328125;-71.27027130126953;16.9932861328125;-2.3271331787109375;-7.669769287109375;2.6222991943359375
1445425008686;25.532318115234375;-70.24208068847656;16.226144790649414;-1.464141845703125;-5.3161773681640625;1.7397003173828125
1445425008719;28.698577880859375;-69.98844146728516;15.62943172454834;-1.6798858642578125;-5.0612030029296875;1.8377685546875
1445425008752;33.802490234375;-70.6893539428711;14.770912170410156;-2.719390869140625;-5.9634246826171875;2.46539306640625
1445425008785;37.54766845703125;-71.61833190917969;13.83188247680664;-3.2097320556640625;-6.355682373046875;1.876983642578125
1445425008817;38.88433837890625;-72.12712860107422;13.74776554107666;-3.2685699462890625;-6.238006591796875;1.8966064453125
1445425008851;40.948760986328125;-73.52228546142578;14.821033477783203;-3.9550323486328125;-7.4540252685546875;2.3673248291015625
1445425008884;42.13787841796875;-74.5171127319336;16.521024703979492;-4.6022796630859375;-10.25872802734375;2.6811370849609375
1445425008917;42.55670166015625;-74.98123931884766;16.935224533081055;-5.112213134765625;-12.082763671875;3.2303009033203125
1445425008950;43.33502197265625;-76.14472198486328;17.378070831298828;-5.3671875;-13.90679931640625;3.95599365234375
1445425008983;43.80780029296875;-76.673828125;17.7841796875;-5.1318359375;-14.004867553710938;4.152130126953125
1445425009016;44.916839599609375;-76.90953063964844;18.57639503479004;-4.484588623046875;-12.102386474609375;3.60296630859375
1445425009048;46.18609619140625;-76.34949493408203;19.14796257019043;-3.739288330078125;-9.572265625;2.7399749755859375
1445425009082;46.894378662109375;-76.12547302246094;19.466529846191406;-3.3274078369140625;-8.336624145507812;2.269256591796875
1445425009115;48.49725341796875;-75.54145812988281;19.92359161376953;-2.22906494140625;-6.689117431640625;1.1120758056640625
1445425009147;49.909515380859375;-75.21690368652344;19.936304092407227;-0.9345855712890625;-5.669219970703125;0.9159393310546875
1445425009180;50.52386474609375;-75.3207015991211;19.566055297851562;-0.6992340087890625;-4.923919677734375;1.523956298828125
1445425009213;51.244293212890625;-76.24981689453125;18.639793395996094;-1.287628173828125;-4.7670135498046875;2.2888641357421875
1445425009252;51.290924072265625;-77.89896392822266;19.18419075012207;-3.4058685302734375;-6.61065673828125;1.9750518798828125
1445425009279;51.362335205078125;-78.64663696289062;20.107158660888672;-3.9942626953125;-7.944366455078125;2.3084869384765625
1445425009312;52.05706787109375;-79.303955078125;21.9332275390625;-4.1511688232421875;-10.337188720703125;0.759033203125
1445425009346;52.20489501953125;-79.51109313964844;22.339120864868164;-4.1511688232421875;-12.043548583984375;-0.0843353271484375
1445425009379;51.296142578125;-81.48651885986328;22.89415168762207;-4.9553070068359375;-13.024200439453125;-0.4177703857421875
1445425009412;48.5445556640625;-83.95613861083984;24.674697875976562;-7.9365386962890625;-13.573379516601562;0.2294769287109375
1445425009444;46.89422607421875;-84.96452331542969;25.405231475830078;-8.544540405273438;-13.632217407226562;0.58251953125
1445425009478;44.074615478515625;-86.30998229980469;24.673715591430664;-6.0536651611328125;-12.494644165039062;0.1510162353515625
1445425009512;41.2642822265625;-87.08882141113281;23.640958786010742;-4.44537353515625;-10.356796264648438;0.36676025390625
1445425009543;39.675018310546875;-87.49441528320312;23.395484924316406;-4.3276824951171875;-9.317291259765625;0.2098541259765625
1445425009578;36.25823974609375;-88.48344421386719;22.832456588745117;-3.60198974609375;-7.3363494873046875;0.052947998046875
1445425009610;32.401092529296875;-89.71469116210938;22.559423446655273;-2.425201416015625;-5.1396636962890625;0.19024658203125
1445425009642;30.1356201171875;-90.4325180053711;22.861419677734375;-2.032928466796875;-4.15899658203125;0.5432891845703125
1445425009676;25.745025634765625;-91.35443878173828;23.80983543395996;-1.5818328857421875;-4.6689453125;2.0142822265625
1445425009709;23.9874267578125;-91.17857360839844;24.009553909301758;-1.1895599365234375;-6.66949462890625;2.269256591796875
1445425009751;21.082855224609375;-90.39726257324219;24.110300064086914;-1.3072357177734375;-8.218948364257812;1.9750518798828125
1445425009776;18.736846923828125;-90.79068756103516;24.996002197265625;-2.4644317626953125;-11.082489013671875;0.8571014404296875
1445425009809;17.33843994140625;-91.11373901367188;25.833877563476562;-3.8177490234375;-11.27862548828125;-0.1039581298828125
1445425009841;13.590240478515625;-91.6400375366211;27.151124954223633;-6.6616668701171875;-10.866744995117188;-1.261138916015625
1445425009875;9.551513671875;-92.99393463134766;27.465822219848633;-8.7210693359375;-14.259841918945312;-1.457275390625
1445425009906;7.670166015625;-93.15425872802734;27.487106323242188;-8.7799072265625;-15.04437255859375;-1.143463134765625
1445425009940;4.22210693359375;-92.77021789550781;26.61842155456543;-6.4851531982421875;-13.769515991210938;-0.9080963134765625
1445425009972;2.322265625;-92.81297302246094;26.02442741394043;-4.9749298095703125;-11.043258666992188;-0.2804718017578125
1445425010006;358.08770751953125;-93.32398986816406;25.350881576538086;-4.4649810791015625;-9.552658081054688;0.0333404541015625
1445425010038;353.66009521484375;-93.88675689697266;24.904409408569336;-3.288177490234375;-6.55181884765625;0.445220947265625
1445425010072;349.2745056152344;-94.46013641357422;24.69225311279297;-2.091766357421875;-4.5708770751953125;0.935546875
1445425010105;347.40521240234375;-94.63917541503906;24.726232528686523;-0.9345855712890625;-5.1396636962890625;0.876708984375
1445425010138;344.6351318359375;-94.53852081298828;24.703256607055664;-0.287353515625;-5.8653564453125;0.4648284912109375
1445425010171;343.59832763671875;-94.25149536132812;24.661544799804688;-1.797576904296875;-7.1009979248046875;1.0336151123046875
1445425010204;341.8946228027344;-93.00944519042969;24.5491943359375;-2.4644317626953125;-9.729171752929688;1.6808624267578125
1445425010236;340.8477783203125;-91.56124114990234;24.26447105407715;-4.1707763671875;-13.0438232421875;1.6612396240234375
1445425010269;340.11187744140625;-90.7225570678711;23.95398712158203;-4.7199554443359375;-11.239395141601562;1.7789306640625
1445425010303;338.2908630371094;-89.48595428466797;23.08940315246582;-5.1514434814453125;-8.238555908203125;1.9162139892578125
1445425010336;337.7132568359375;-88.92278289794922;22.46102523803711;-4.62188720703125;-8.964248657226562;1.38665771484375
1445425010369;336.8545837402344;-87.209716796875;21.29863166809082;-4.5434417724609375;-10.25872802734375;1.131683349609375
1445425010402;336.5240478515625;-85.07814025878906;20.988052368164062;-6.073272705078125;-12.886917114257812;0.445220947265625
1445425010436;336.05029296875;-83.27841186523438;20.82330322265625;-6.642059326171875;-12.514266967773438;1.26898193359375
1445425010467;335.74517822265625;-82.8626480102539;20.839569091796875;-6.3478546142578125;-12.259292602539062;1.44549560546875
1445425010500;335.1772155761719;-82.14834594726562;21.043533325195312;-5.4652557373046875;-11.141326904296875;1.8573760986328125
1445425010534;334.9912414550781;-81.79052734375;21.084918975830078;-3.739288330078125;-9.238845825195312;1.818145751953125
1445425010567;334.8414306640625;-81.72640991210938;21.28335952758789;-2.8959197998046875;-8.179718017578125;1.6612396240234375
1445425010601;335.10345458984375;-82.4976577758789;21.708871841430664;-2.0721588134765625;-6.179168701171875;1.44549560546875
1445425010633;335.2486877441406;-82.92809295654297;21.882125854492188;-2.11138916015625;-5.728057861328125;1.9358367919921875
1445425010666;335.5412902832031;-83.35233306884766;21.81268882751465;-2.935150146484375;-6.1399383544921875;3.0341796875
1445425010698;335.41864013671875;-82.46064758300781;20.97121810913086;-2.9547576904296875;-7.57171630859375;2.445770263671875
1445425010732;335.1241455078125;-82.0328598022461;20.643396377563477;-2.91552734375;-7.9835968017578125;2.1319580078125
1445425010764;335.5745849609375;-81.57077026367188;19.99920654296875;-2.9547576904296875;-9.827239990234375;1.50433349609375
1445425010798;336.1468811035156;-81.19671630859375;19.47702980041504;-3.562774658203125;-11.023651123046875;1.3670501708984375
1445425010831;337.3489685058594;-80.7361831665039;18.677825927734375;-4.9749298095703125;-12.200454711914062;1.014007568359375
1445425010865;338.5030822753906;-81.40328979492188;19.014734268188477;-6.1713409423828125;-11.965087890625;1.9162139892578125
1445425010897;339.1552734375;-81.55030822753906;19.24151611328125;-5.3671875;-11.16094970703125;2.151580810546875
1445425010929;340.28997802734375;-81.77911376953125;19.876209259033203;-4.5434417724609375;-10.5921630859375;2.2300262451171875
1445425010968;341.5721130371094;-82.66046905517578;20.822248458862305;-3.052825927734375;-8.88580322265625;2.52423095703125
1445425010997;342.40264892578125;-83.12886810302734;21.201316833496094;-1.6602783203125;-6.944091796875;2.0535125732421875
1445425011029;344.5753479003906;-84.15621185302734;21.510040283203125;-1.09149169921875;-6.355682373046875;2.0338897705078125
1445425011062;347.9457702636719;-84.8133773803711;20.876317977905273;-1.5818328857421875;-7.1990509033203125;2.6026763916015625
1445425011095;349.8293762207031;-84.76612091064453;20.236785888671875;-1.7583465576171875;-7.6501617431640625;2.9361114501953125
1445425011127;353.108154296875;-85.20870208740234;19.624755859375;-1.9936981201171875;-7.316741943359375;1.523956298828125
1445425011161;354.6073303222656;-86.83390045166016;21.012723922729492;-4.190399169921875;-6.7675628662109375;-0.6727447509765625
1445425011193;354.99603271484375;-86.9291763305664;21.83416175842285;-6.3478546142578125;-8.591598510742188;-0.4569854736328125
1445425011226;355.6839904785156;-85.97138977050781;22.745969772338867;-6.6812896728515625;-11.004043579101562;-0.182403564453125
1445425011260;355.92877197265625;-85.59845733642578;23.08612632751465;-5.7986907958984375;-12.141616821289062;-1.771087646484375
1445425011293;357.1346435546875;-85.19461822509766;23.92782974243164;-5.6025543212890625;-12.063156127929688;-1.6141815185546875
1445425011326;358.7423400878906;-85.11720275878906;24.22504425048828;-6.5047607421875;-12.788848876953125;-1.06500244140625
1445425011359;359.1904602050781;-85.49128723144531;24.099267959594727;-6.9362640380859375;-12.749618530273438;-0.810028076171875
1445425011393;359.8491516113281;-86.48973846435547;23.878877639770508;-6.3478546142578125;-10.964813232421875;-0.300079345703125
1445425011425;0.180633544921875;-86.88896942138672;23.7418270111084;-4.994537353515625;-8.76812744140625;-0.1039581298828125
1445425011458;0.8714599609375;-87.39339447021484;23.183866500854492;-4.2884674072265625;-8.1993408203125;-0.4373779296875
1445425011492;0.912506103515625;-88.01321411132812;22.687217712402344;-3.42547607421875;-7.5128631591796875;-0.182403564453125
1445425011524;0.162445068359375;-88.77728271484375;22.605154037475586;-2.68017578125;-7.1990509033203125;0.621734619140625
1445425011558;359.9114074707031;-88.95603942871094;22.55919647216797;-2.0721588134765625;-7.1598358154296875;1.1512908935546875
1445425011590;359.96612548828125;-88.8397445678711;22.23694610595703;-0.895355224609375;-7.552093505859375;2.092742919921875
1445425011623;0.3402099609375;-88.60167694091797;22.012935638427734;-0.542327880859375;-7.9639739990234375;2.092742919921875
1445425011656;1.2674560546875;-88.35062408447266;21.99233627319336;-1.228790283203125;-8.336624145507812;1.6612396240234375
1445425011688;1.87744140625;-88.33381652832031;22.421390533447266;-3.170501708984375;-7.9835968017578125;0.58251953125
1445425011721;2.110260009765625;-88.52206420898438;22.769676208496094;-4.2296142578125;-8.003204345703125;-0.0254974365234375
1445425011755;2.604095458984375;-88.81637573242188;23.72601890563965;-6.132110595703125;-9.513427734375;-0.4766082763671875
1445425011788;1.967803955078125;-88.8108901977539;24.556304931640625;-7.3481292724609375;-13.141891479492188;-0.4569854736328125
1445425011821;1.25616455078125;-88.9046401977539;24.678380966186523;-7.5442657470703125;-13.651840209960938;-0.3589324951171875
1445425011854;359.63922119140625;-89.11820220947266;24.95746612548828;-6.524383544921875;-12.769241333007812;-0.1431732177734375
1445425011887;357.4883728027344;-89.4036636352539;25.365835189819336;-5.7986907958984375;-11.376693725585938;-0.300079345703125
1445425011920;356.3221740722656;-89.57539367675781;25.467117309570312;-5.24951171875;-10.474472045898438;-0.123565673828125
1445425011953;353.5928039550781;-90.24183654785156;25.75361442565918;-3.798126220703125;-8.218948364257812;0.13140869140625
1445425011986;352.0402526855469;-90.7170181274414;26.011075973510742;-2.935150146484375;-7.12060546875;0.327545166015625
1445425012019;348.8094787597656;-91.33726501464844;26.520957946777344;-1.8760223388671875;-5.3946380615234375;0.7394256591796875
1445425012053;345.3871154785156;-91.3355941772461;26.928585052490234;-2.150604248046875;-5.2573394775390625;1.4847259521484375
1445425012085;343.7052001953125;-91.11842346191406;27.133272171020508;-2.4644317626953125;-5.9241943359375;1.7397003173828125
1445425012117;340.71044921875;-89.62548065185547;27.23395347595215;-3.7196807861328125;-8.1405029296875;2.4261627197265625
1445425012152;337.8290710449219;-87.49105834960938;26.61153221130371;-4.3865203857421875;-9.96453857421875;2.0731201171875
1445425012190;336.5758361816406;-86.6629638671875;26.091047286987305;-4.131561279296875;-10.25872802734375;1.56317138671875
1445425012217;334.7419738769531;-86.44718933105469;24.981176376342773;-3.5235443115234375;-10.101821899414062;-0.6138916015625
1445425012249;332.8797302246094;-87.8030014038086;25.35500144958496;-5.93597412109375;-9.90570068359375;-1.378814697265625
1445425012283;331.8629150390625;-88.46759796142578;25.961233139038086;-8.446487426757812;-10.631378173828125;-0.9080963134765625
1445425012316;330.3676452636719;-89.0833969116211;26.067996978759766;-8.014984130859375;-12.573104858398438;-1.12384033203125
1445425012349;329.817138671875;-89.18585968017578;25.959712982177734;-8.15228271484375;-13.239959716796875;-0.3589324951171875
1445425012385;328.79754638671875;-89.58336639404297;26.915443420410156;-6.3674774169921875;-9.45458984375;0.2686920166015625
1445425012418;327.0588073730469;-90.68704986572266;27.644161224365234;-4.190399169921875;-7.061767578125;-0.2608642578125
1445425012448;326.6024475097656;-91.00286865234375;27.629318237304688;-2.7978515625;-7.2775115966796875;-0.2608642578125
1445425012481;326.3648376464844;-91.1512222290039;27.327817916870117;-2.5624847412109375;-6.9636993408203125;0.1510162353515625
1445425012513;326.1919860839844;-91.9200210571289;27.41660499572754;-3.111663818359375;-6.0811004638671875;1.0924530029296875
1445425012547;326.01361083984375;-92.37361145019531;27.318666458129883;-3.7196807861328125;-6.061492919921875;1.1709136962890625
1445425012580;325.6646728515625;-92.7538833618164;26.261737823486328;-4.425750732421875;-7.0225372314453125;1.1512908935546875
1445425012613;325.433837890625;-92.70966339111328;25.22712516784668;-4.3473052978515625;-8.709274291992188;0.9747772216796875
1445425012645;325.10272216796875;-92.72379302978516;24.99199104309082;-4.3473052978515625;-8.591598510742188;0.19024658203125
1445425012679;324.6760559082031;-93.07039642333984;25.037626266479492;-4.700347900390625;-9.474197387695312;-1.0453948974609375
1445425012712;326.12908935546875;-93.02418518066406;24.869373321533203;-6.190948486328125;-13.083053588867188;-0.9080963134765625
1445425012745;327.1303405761719;-92.769287109375;24.613155364990234;-6.3478546142578125;-13.592987060546875;-0.6727447509765625
1445425012778;329.4241638183594;-93.0895004272461;24.624557495117188;-6.3478546142578125;-12.553482055664062;0.01373291015625
1445425012811;330.5955810546875;-93.55485534667969;24.909250259399414;-6.4066925048828125;-9.572265625;0.24908447265625
1445425012844;333.14007568359375;-94.51970672607422;25.694007873535156;-5.9752044677734375;-8.709274291992188;0.4256134033203125
1445425012876;336.6077575683594;-94.93663787841797;26.065580368041992;-4.2884674072265625;-7.3951873779296875;0.3471527099609375
1445425012909;338.5198059082031;-95.0577392578125;26.076696395874023;-3.4058685302734375;-6.865631103515625;0.36676025390625
1445425012943;342.1319580078125;-95.36993408203125;25.954242706298828;-3.0920562744140625;-6.689117431640625;0.7982635498046875
1445425012975;345.7679443359375;-95.98265838623047;25.810283660888672;-3.052825927734375;-7.9835968017578125;2.46539306640625
1445425013009;347.6994323730469;-96.52598571777344;25.800107955932617;-2.91552734375;-8.101272583007812;2.6026763916015625
1445425013042;352.2610778808594;-97.16898345947266;27.018306732177734;-2.8174591064453125;-6.55181884765625;-0.241241455078125
1445425013075;356.39404296875;-96.86849975585938;29.673864364624023;-4.190399169921875;-5.5907745361328125;-3.4382171630859375
1445425013108;357.73651123046875;-96.80503845214844;31.049320220947266;-5.3671875;-6.2772369384765625;-3.653961181640625
1445425013142;359.2171630859375;-97.15957641601562;33.014373779296875;-8.936813354492188;-9.533035278320312;-3.4382171630859375
1445425013174;359.8160095214844;-97.3724365234375;33.676700592041016;-8.701446533203125;-9.670333862304688;-3.45782470703125
1445425013208;0.43304443359375;-98.07670593261719;34.33120346069336;-8.21112060546875;-8.630828857421875;-4.08544921875
1445425013239;0.419403076171875;-98.3748550415039;34.226322174072266;-8.877975463867188;-11.10211181640625;-5.1641845703125
1445425013273;0.089630126953125;-98.68547058105469;33.973838806152344;-9.250625610351562;-12.65155029296875;-4.850372314453125
1445425013306;358.1757507324219;-99.46576690673828;32.898372650146484;-8.819137573242188;-9.552658081054688;-3.3205413818359375
1445425013338;356.52386474609375;-99.24537658691406;30.589303970336914;-4.8376312255859375;-6.72833251953125;-1.7318572998046875
1445425013373;355.75177001953125;-99.0138931274414;29.543407440185547;-3.3862457275390625;-6.061492919921875;-1.18267822265625
1445425013404;353.6957092285156;-99.09846496582031;28.25554656982422;-2.28790283203125;-4.355133056640625;-0.5942840576171875
1445425013437;352.4559326171875;-99.2213134765625;28.090463638305664;-2.739013671875;-5.0808258056640625;-0.3589324951171875
1445425013471;350.34222412109375;-98.58785247802734;28.325714111328125;-3.2685699462890625;-7.4148101806640625;-0.005889892578125
1445425013503;348.7669677734375;-97.02217864990234;29.079561233520508;-4.4649810791015625;-10.7686767578125;1.523956298828125
1445425013537;347.9330139160156;-96.14826202392578;29.431203842163086;-3.8177490234375;-7.9835968017578125;0.4256134033203125
1445425013570;345.7793884277344;-95.08535766601562;29.624868392944336;-3.2685699462890625;-6.8852386474609375;-0.82965087890625
1445425013603;343.7043762207031;-96.0028305053711;29.9283504486084;-4.9160919189453125;-6.179168701171875;-2.1045074462890625
1445425013636;342.3504943847656;-96.04955291748047;30.559675216674805;-6.9362640380859375;-7.885528564453125;-2.20257568359375
1445425013669;338.2234191894531;-96.22509002685547;32.3598747253418;-9.760574340820312;-13.122268676757812;-2.9282684326171875
1445425013701;333.2964172363281;-96.82426452636719;33.118446350097656;-8.073822021484375;-12.141616821289062;-3.477447509765625
1445425013735;331.1866760253906;-97.0817642211914;32.728702545166016;-7.093170166015625;-11.45513916015625;-3.5558929443359375
1445425013768;327.24005126953125;-97.49237060546875;31.881114959716797;-7.6815643310546875;-11.533599853515625;-2.6536865234375
1445425013803;324.9927673339844;-97.80306243896484;31.63250160217285;-7.406982421875;-10.219512939453125;-1.378814697265625
1445425013834;320.10125732421875;-98.67481994628906;31.231937408447266;-6.2105712890625;-8.866195678710938;-0.868865966796875
1445425013867;314.8061828613281;-99.95790100097656;30.662221908569336;-3.7196807861328125;-5.53192138671875;0.2294769287109375
1445425013900;312.0782775878906;-100.66456604003906;30.520280838012695;-2.8370819091796875;-4.04132080078125;0.680572509765625
1445425013935;306.7665100097656;-101.62718963623047;30.629518508911133;-1.797576904296875;-4.355133056640625;1.1512908935546875
1445425013967;302.594970703125;-100.97689819335938;30.376270294189453;-1.5426025390625;-7.7089996337890625;0.4648284912109375
1445425014000;300.7200927734375;-100.42463684082031;30.09242057800293;-2.17022705078125;-9.650726318359375;0.327545166015625
1445425014031;297.2197265625;-99.96549224853516;29.792802810668945;-3.48431396484375;-10.042984008789062;0.13140869140625
1445425014064;294.29681396484375;-100.38311004638672;29.958112716674805;-5.2102813720703125;-8.101272583007812;0.759033203125
1445425014097;293.4809875488281;-100.34347534179688;29.99078941345215;-6.132110595703125;-8.5523681640625;1.21014404296875
1445425014131;291.47625732421875;-100.14432525634766;29.386072158813477;-6.190948486328125;-8.3170166015625;-1.12384033203125
1445425014164;289.29705810546875;-100.4430160522461;29.138181686401367;-6.5439910888671875;-9.00347900390625;-2.4967803955078125
1445425014197;288.45269775390625;-100.24722290039062;29.22821044921875;-7.446197509765625;-10.552932739257812;-2.516387939453125
1445425014230;286.85284423828125;-99.7411880493164;29.220775604248047;-7.897308349609375;-12.043548583984375;-2.339874267578125
1445425014263;285.8173522949219;-99.61743927001953;29.38960838317871;-6.89703369140625;-10.631378173828125;-1.6730194091796875
1445425014296;285.2891845703125;-99.63032531738281;29.542613983154297;-6.4851531982421875;-9.474197387695312;-1.496490478515625
1445425014329;284.34014892578125;-99.44300079345703;29.708112716674805;-5.327972412109375;-7.74822998046875;-1.3003692626953125
1445425014362;284.06817626953125;-99.24454498291016;29.663921356201172;-4.4649810791015625;-7.0225372314453125;-0.7904205322265625
1445425014395;283.86163330078125;-98.69818878173828;29.381839752197266;-4.249237060546875;-6.7675628662109375;-0.3785400390625
1445425014428;283.3274841308594;-98.21063995361328;28.818416595458984;-4.700347900390625;-6.61065673828125;0.4648284912109375
1445425014461;283.14788818359375;-97.68096160888672;28.37417221069336;-4.2884674072265625;-7.179443359375;0.621734619140625
1445425014494;283.1584777832031;-96.114990234375;27.197423934936523;-2.6409454345703125;-7.9639739990234375;0.4648284912109375
1445425014527;283.3783874511719;-95.55281829833984;26.63547134399414;-1.9544830322265625;-6.8852386474609375;-0.9865570068359375
1445425014560;284.38323974609375;-94.95491790771484;26.061073303222656;-2.8762969970703125;-7.1009979248046875;-1.1042327880859375
1445425014593;286.25872802734375;-94.55889129638672;26.169288635253906;-6.5439910888671875;-10.572540283203125;-0.9865570068359375
1445425014625;288.428955078125;-94.17234802246094;26.275558471679688;-7.838470458984375;-13.887191772460938;-1.3984375
1445425014659;289.94915771484375;-94.00099182128906;26.253429412841797;-7.524658203125;-13.946029663085938;-1.3395843505859375
1445425014692;293.87164306640625;-93.8994369506836;26.1977596282959;-6.877410888671875;-11.768951416015625;-0.4177703857421875
1445425014724;296.3486022949219;-93.80801391601562;26.176149368286133;-6.524383544921875;-10.866744995117188;-0.005889892578125
1445425014758;302.21820068359375;-93.32029724121094;26.06976890563965;-5.1710662841796875;-8.964248657226562;0.7786407470703125
1445425014791;309.1561584472656;-92.73054504394531;25.705501556396484;-2.974365234375;-6.7675628662109375;1.2297515869140625
1445425014824;313.0850830078125;-92.37413787841797;25.30171012878418;-1.8956451416015625;-5.8653564453125;1.3670501708984375
1445425014862;320.6988525390625;-91.88607025146484;24.08577537536621;-1.6014404296875;-6.1595458984375;2.4850006103515625
1445425014889;327.44677734375;-92.3165283203125;22.8729248046875;-3.0920562744140625;-7.57171630859375;2.6222991943359375
1445425014923;330.90216064453125;-92.50244140625;22.401912689208984;-3.4058685302734375;-7.74822998046875;2.3477020263671875
1445425014955;338.1242980957031;-91.81472778320312;22.285924911499023;-3.42547607421875;-6.55181884765625;0.7982635498046875
1445425014988;344.55950927734375;-89.9892578125;23.252531051635742;-5.1710662841796875;-6.120330810546875;-1.3395843505859375
1445425015022;347.15216064453125;-89.04467010498047;23.793907165527344;-6.6028289794921875;-7.610931396484375;-1.1042327880859375
1445425015055;351.43170166015625;-87.69813537597656;23.883014678955078;-7.9365386962890625;-12.59271240234375;-1.574951171875
1445425015089;353.54425048828125;-87.43958282470703;23.529193878173828;-6.4066925048828125;-13.61260986328125;-1.96722412109375
1445425015120;357.1186828613281;-87.44580078125;23.416391372680664;-6.9166412353515625;-12.200454711914062;-1.7318572998046875
1445425015154;359.62384033203125;-87.43413543701172;23.55015754699707;-8.289581298828125;-11.533599853515625;-0.7119598388671875
1445425015190;0.80731201171875;-87.22648620605469;23.114540100097656;-7.5638885498046875;-11.670883178710938;-0.7315826416015625
1445425015219;3.17010498046875;-86.8268051147461;22.314096450805664;-5.445648193359375;-10.964813232421875;-1.00616455078125
1445425015252;5.24609375;-86.82041931152344;22.041168212890625;-4.0138702392578125;-8.356246948242188;-0.633514404296875
1445425015286;5.9500732421875;-86.89822387695312;22.114858627319336;-3.48431396484375;-7.042144775390625;-0.4177703857421875
1445425015319;6.891815185546875;-87.47108459472656;22.174989700317383;-2.11138916015625;-5.3946380615234375;0.111785888671875
1445425015351;8.759368896484375;-87.46560668945312;21.7802734375;-0.895355224609375;-5.845733642578125;2.269256591796875
1445425015384;10.401336669921875;-86.81855010986328;21.427278518676758;-0.6796112060546875;-7.434417724609375;3.6225738525390625
1445425015417;14.120208740234375;-84.56816101074219;20.298124313354492;-1.228790283203125;-9.925308227539062;2.6026763916015625
1445425015455;15.48822021484375;-84.06527709960938;20.129718780517578;-1.2680206298828125;-9.493820190429688;1.4847259521484375
1445425015484;17.010986328125;-86.24861145019531;22.136005401611328;-3.4058685302734375;-6.1987762451171875;-1.084625244140625
1445425015517;15.949920654296875;-87.43844604492188;25.981426239013672;-10.72161865234375;-7.9051361083984375;-1.2807464599609375
1445425015550;14.8424072265625;-87.30823516845703;27.38506507873535;-11.780746459960938;-10.984420776367188;-1.084625244140625
1445425015582;13.42364501953125;-86.58129119873047;26.753591537475586;-9.054489135742188;-16.00543212890625;-0.6138916015625
1445425015615;12.9434814453125;-85.56623840332031;25.35090446472168;-6.2105712890625;-13.710678100585938;-0.3393096923828125
1445425015650;12.760894775390625;-85.27354431152344;25.306459426879883;-5.58294677734375;-12.02392578125;-0.0451202392578125
1445425015682;12.973968505859375;-84.94480895996094;24.89838409423828;-3.9354248046875;-9.376129150390625;-0.3393096923828125
1445425015714;13.8023681640625;-84.12451171875;23.221670150756836;-2.660552978515625;-7.316741943359375;-0.3785400390625
1445425015752;13.970458984375;-83.84901428222656;22.24201011657715;-2.28790283203125;-6.1987762451171875;-0.2020263671875
1445425015781;13.508514404296875;-83.81343078613281;21.247770309448242;-2.032928466796875;-4.3159027099609375;0.896331787109375
1445425015814;13.0728759765625;-83.68527221679688;21.451278686523438;-1.6602783203125;-6.4537506103515625;1.50433349609375
1445425015847;12.958160400390625;-83.3870849609375;21.475862503051758;-2.11138916015625;-8.3170166015625;1.3670501708984375
1445425015879;12.012420654296875;-82.7850570678711;21.559768676757812;-4.44537353515625;-9.081939697265625;1.4847259521484375
1445425015913;10.8681640625;-83.01826477050781;22.059879302978516;-5.445648193359375;-8.5523681640625;2.269256591796875
1445425015946;8.29327392578125;-83.45869445800781;23.224323272705078;-5.504486083984375;-9.199615478515625;2.2300262451171875
1445425015979;6.221466064453125;-82.0806884765625;22.472919464111328;-4.7199554443359375;-11.357070922851562;1.9162139892578125
1445425016012;5.30389404296875;-81.40338897705078;21.66732406616211;-5.327972412109375;-12.769241333007812;1.9750518798828125
1445425016044;2.848785400390625;-80.69003295898438;21.784832000732422;-7.5442657470703125;-12.53387451171875;2.1319580078125
1445425016077;359.1958923339844;-80.66961669921875;22.565702438354492;-7.7404022216796875;-9.552658081054688;1.9162139892578125
1445425016111;357.162841796875;-80.61824035644531;22.634891510009766;-7.0539398193359375;-8.160110473632812;1.8377685546875
1445425016143;352.7917175292969;-80.19313049316406;22.922407150268555;-5.2887420654296875;-6.2183990478515625;2.0535125732421875
1445425016177;350.4173278808594;-80.04283905029297;23.317020416259766;-3.3470306396484375;-5.4534759521484375;1.523956298828125
1445425016210;345.4788818359375;-80.16525268554688;23.877113342285156;-3.42547607421875;-5.9045867919921875;1.014007568359375
1445425016243;339.33514404296875;-80.63117218017578;23.99859619140625;-6.2301788330078125;-6.55181884765625;2.64190673828125
1445425016275;335.800537109375;-81.19296264648438;24.23112678527832;-7.210845947265625;-6.2576141357421875;4.1717529296875
1445425016313;328.2623596191406;-81.932861328125;24.775489807128906;-4.8964691162109375;-6.7675628662109375;5.2112579345703125
1445425016341;320.3962707519531;-82.08074188232422;25.501882553100586;-1.6014404296875;-8.218948364257812;3.60296630859375
1445425016379;316.4620056152344;-82.37980651855469;26.062559127807617;-1.2680206298828125;-9.395751953125;2.4850006103515625
1445425016408;308.1150817871094;-82.2913589477539;27.197006225585938;-3.6412200927734375;-10.396026611328125;0.30792236328125
1445425016441;298.7018127441406;-83.11441802978516;28.356130599975586;-7.6031036376953125;-11.043258666992188;1.8377685546875
1445425016474;293.22674560546875;-83.9930648803711;28.86821174621582;-9.682113647460938;-10.866744995117188;2.1711883544921875
1445425016508;280.8735656738281;-85.06643676757812;29.58745574951172;-9.897872924804688;-9.023101806640625;2.975341796875
1445425016541;268.02716064453125;-85.0175552368164;29.577800750732422;-8.15228271484375;-7.885528564453125;4.3482666015625
1445425016574;261.6723327636719;-84.49268341064453;29.371583938598633;-7.3089141845703125;-7.4736480712890625;5.054351806640625
1445425016605;249.0908203125;-82.89120483398438;28.873470306396484;-5.4848785400390625;-6.3360748291015625;5.5642852783203125
1445425016638;242.84332275390625;-81.90117645263672;28.685585021972656;-3.111663818359375;-5.6496124267578125;6.9764556884765625
1445425016672;230.29049682617188;-79.79753112792969;28.73087501525879;-2.5624847412109375;-5.9045867919921875;7.3883209228515625
1445425016704;217.28311157226562;-76.94660949707031;28.828420639038086;-2.17022705078125;-7.4736480712890625;5.976165771484375
1445425016757;204.112060546875;-74.66092681884766;28.935121536254883;-4.5238189697265625;-7.4736480712890625;6.035003662109375
1445425016771;197.60888671875;-73.87712097167969;29.415882110595703;-6.2301788330078125;-8.670059204101562;5.407379150390625
1445425016813;185.0098876953125;-72.45767211914062;31.260393142700195;-6.9754791259765625;-11.27862548828125;3.916778564453125
1445425016863;165.80955505371094;-73.15994262695312;33.07347106933594;-7.5638885498046875;-8.4935302734375;3.328369140625
1445425016888;159.39828491210938;-73.8694076538086;33.009674072265625;-6.4066925048828125;-8.728897094726562;3.9363861083984375
1445425016934;147.8961181640625;-74.49141693115234;32.54193115234375;-3.5823822021484375;-10.415634155273438;2.2496490478515625
1445425016963;137.96018981933594;-75.79743957519531;33.55006408691406;-4.1511688232421875;-9.395751953125;-0.123565673828125
1445425016987;133.89439392089844;-76.88652801513672;34.456356048583984;-5.8379058837890625;-7.493255615234375;0.58251953125
1445425017002;133.89439392089844;-76.88652801513672;34.456356048583984;-5.8379058837890625;-7.493255615234375;0.58251953125
1445425017051;123.98696899414062;-77.72673797607422;36.226192474365234;-7.97576904296875;-6.43414306640625;1.6220245361328125
1445425017148;106.16525268554688;-81.49298095703125;37.769378662109375;-7.6031036376953125;-5.8065185546875;2.9949493408203125
1445425017154;106.16525268554688;-81.49298095703125;37.769378662109375;-7.6031036376953125;-5.8065185546875;2.9949493408203125
1445425017182;102.15985107421875;-82.38126373291016;37.93462371826172;-7.8777008056640625;-6.5125885009765625;3.1126251220703125
1445425017217;93.67410278320312;-84.59822082519531;38.020633697509766;-8.740676879882812;-5.9830322265625;3.524505615234375
1445425017249;82.89324951171875;-87.63619995117188;38.12471389770508;-9.191787719726562;-6.414520263671875;4.720916748046875
1445425017281;77.00918579101562;-89.34783935546875;38.005149841308594;-7.446197509765625;-7.23828125;5.3289337158203125
1445425017314;64.91259765625;-91.76235961914062;37.58861541748047;-4.249237060546875;-7.5913238525390625;5.72119140625
1445425017347;58.453094482421875;-92.89596557617188;37.318603515625;-2.2486724853515625;-8.238555908203125;4.0736846923828125
1445425017379;46.326873779296875;-95.2520523071289;36.83076858520508;-3.0724334716796875;-9.00347900390625;3.26953125
1445425017416;34.417388916015625;-95.8855209350586;36.27470016479492;-6.759735107421875;-9.709564208984375;3.9952239990234375
1445425017446;22.336395263671875;-95.33908081054688;34.544403076171875;-6.9754791259765625;-9.140777587890625;4.4463348388671875
1445425017478;15.9652099609375;-94.96509552001953;33.50591278076172;-6.5635986328125;-9.278060913085938;4.2305908203125
1445425017511;2.689361572265625;-94.35016632080078;31.877914428710938;-7.6227264404296875;-9.807632446289062;4.0148468017578125
1445425017544;356.04937744140625;-93.97362518310547;31.147924423217773;-7.4265899658203125;-8.532760620117188;4.1325225830078125
1445425017577;342.9667663574219;-92.88734436035156;29.399625778198242;-6.7401275634765625;-7.12060546875;4.1717529296875
1445425017611;330.0665588378906;-91.13336181640625;28.186145782470703;-7.6031036376953125;-5.5907745361328125;6.603790283203125
1445425017644;323.77874755859375;-89.6972885131836;27.62421226501465;-5.3671875;-7.5324859619140625;6.4076690673828125
1445425017678;311.47125244140625;-86.70138549804688;26.442033767700195;-3.4647064208984375;-8.1405029296875;5.7015838623046875
1445425017710;299.1686096191406;-84.1155014038086;26.629981994628906;-5.190673828125;-4.610107421875;5.3289337158203125
1445425017742;293.0899353027344;-82.79088592529297;27.367887496948242;-6.759735107421875;-5.3750152587890625;7.0941314697265625
1445425017776;281.0099792480469;-78.76017761230469;28.20364761352539;-6.4655303955078125;-10.5921630859375;9.035842895507812
1445425017808;268.1264953613281;-73.57183074951172;27.472185134887695;-1.8956451416015625;-10.14105224609375;6.368438720703125
1445425017841;261.5035095214844;-71.75950622558594;27.359987258911133;-0.8169097900390625;-8.846572875976562;5.603515625
1445425017876;249.400146484375;-70.69088745117188;28.8553524017334;-3.7588958740234375;-10.14105224609375;3.7402496337890625
1445425017907;244.05984497070312;-70.28959655761719;29.873855590820312;-7.8188629150390625;-10.5333251953125;2.7399749755859375
1445425017943;233.03689575195312;-70.64903259277344;32.262752532958984;-8.26995849609375;-9.533035278320312;2.7399749755859375
1445425017976;221.0601806640625;-72.88768005371094;33.8499870300293;-6.6028289794921875;-6.5910491943359375;2.0731201171875
1445425018006;214.92950439453125;-74.20769500732422;34.06996536254883;-5.6025543212890625;-5.7672882080078125;2.386932373046875
1445425018039;202.759521484375;-76.33541870117188;34.59307098388672;-5.112213134765625;-8.356246948242188;2.6811370849609375
1445425018072;191.17327880859375;-78.14545440673828;35.01655578613281;-5.072998046875;-9.533035278320312;2.1907958984375
1445425018105;185.5902099609375;-79.38237762451172;34.92654800415039;-4.9749298095703125;-8.3758544921875;1.7200775146484375
1445425018139;174.82766723632812;-82.14630889892578;34.788787841796875;-6.2694091796875;-6.7675628662109375;2.3477020263671875
1445425018171;164.8214111328125;-84.17257690429688;34.38543701171875;-6.759735107421875;-7.375579833984375;2.975341796875
1445425018204;159.86306762695312;-84.87490844726562;33.9651985168457;-5.87713623046875;-7.1990509033203125;3.289154052734375
1445425018238;149.66220092773438;-86.69546508789062;33.3429069519043;-6.073272705078125;-7.1598358154296875;3.7010345458984375
1445425018272;138.97727966308594;-88.86103820800781;33.09017562866211;-7.152008056640625;-7.9835968017578125;4.4267120361328125
1445425018303;133.2924346923828;-89.95457458496094;32.87592315673828;-5.896759033203125;-8.1405029296875;4.269805908203125
1445425018336;120.75386047363281;-92.56013488769531;31.919857025146484;-2.974365234375;-7.610931396484375;4.1717529296875
1445425018371;114.129150390625;-94.0893325805664;31.711687088012695;-2.4644317626953125;-7.1990509033203125;3.89715576171875
1445425018402;101.42132568359375;-96.53125;31.901256561279297;-1.4445343017578125;-8.611221313476562;2.504608154296875
1445425018435;90.3758544921875;-97.44075775146484;31.601638793945312;-1.09149169921875;-10.474472045898438;1.8966064453125
1445425018469;85.09432983398438;-97.3548583984375;31.130582809448242;-2.3271331787109375;-11.239395141601562;2.0731201171875
1445425018501;74.88702392578125;-97.85099029541016;30.30428123474121;-5.680999755859375;-12.200454711914062;3.1714630126953125
1445425018534;65.74075317382812;-97.88713836669922;29.17036247253418;-5.4652557373046875;-13.514541625976562;2.1319580078125
1445425018573;61.66082763671875;-97.83844757080078;28.271146774291992;-4.68072509765625;-13.55377197265625;1.9162139892578125
1445425018601;53.664215087890625;-97.9858627319336;26.762432098388672;-3.8961944580078125;-11.808181762695312;1.641632080078125
1445425018633;46.219268798828125;-97.77730560302734;25.307802200317383;-3.915802001953125;-9.258453369140625;2.1319580078125
1445425018667;42.4864501953125;-97.5782699584961;24.52987289428711;-3.798126220703125;-7.610931396484375;2.151580810546875
1445425018701;34.818939208984375;-97.00613403320312;23.212488174438477;-2.974365234375;-4.727783203125;2.2300262451171875
1445425018733;31.196136474609375;-96.34342956542969;22.535104751586914;-1.738739013671875;-5.0808258056640625;1.641632080078125
1445425018765;24.17572021484375;-94.19345092773438;20.94622039794922;-2.307525634765625;-6.0026397705078125;1.6808624267578125
1445425018798;16.12957763671875;-92.41751861572266;20.30596351623535;-4.44537353515625;-6.983306884765625;3.328369140625
1445425018833;12.352081298828125;-91.23457336425781;20.20058822631836;-4.6414947509765625;-10.670608520507812;3.72064208984375
1445425018864;6.012054443359375;-87.91607666015625;19.300859451293945;-4.366912841796875;-11.33746337890625;2.9361114501953125
1445425018898;359.8644714355469;-85.19507598876953;18.50334930419922;-5.1514434814453125;-10.337188720703125;1.876983642578125
1445425018943;354.89697265625;-83.89083099365234;18.774364471435547;-6.7989654541015625;-10.180282592773438;2.0731201171875
1445425018967;353.1065979003906;-83.06455993652344;18.701000213623047;-6.95587158203125;-11.082489013671875;2.2300262451171875
1445425018996;349.9445495605469;-81.1574935913086;17.59918975830078;-5.955596923828125;-12.47503662109375;2.0731201171875
1445425019029;348.3131103515625;-80.61863708496094;17.15321159362793;-5.445648193359375;-11.847412109375;1.7985382080078125
1445425019072;345.4793701171875;-81.10652923583984;17.34991455078125;-5.2887420654296875;-9.846847534179688;1.6612396240234375
1445425019095;344.5609436035156;-81.65216064453125;17.506635665893555;-4.876861572265625;-7.86590576171875;1.9162139892578125
1445425019129;343.1146545410156;-82.57456970214844;17.046295166015625;-4.249237060546875;-7.061767578125;1.9554443359375
1445425019162;342.04388427734375;-84.00746154785156;15.935118675231934;-3.052825927734375;-6.55181884765625;1.7789306640625
1445425019194;341.8450927734375;-84.68199920654297;15.408537864685059;-3.0135955810546875;-7.12060546875;2.52423095703125
1445425019229;342.51202392578125;-85.31050872802734;14.095244407653809;-2.8762969970703125;-6.7675628662109375;2.8576507568359375
1445425019260;343.8361511230469;-85.97101593017578;12.461371421813965;-2.856689453125;-6.1595458984375;2.9949493408203125
1445425019293;344.42852783203125;-86.34345245361328;11.864380836486816;-3.0724334716796875;-7.179443359375;2.4261627197265625
1445425019327;345.2933349609375;-86.35020446777344;11.205092430114746;-3.288177490234375;-9.474197387695312;0.7198028564453125
1445425019359;345.9670104980469;-85.56402587890625;10.629773139953613;-3.36663818359375;-9.611495971679688;-1.202301025390625
1445425019393;346.18438720703125;-85.1399917602539;10.530869483947754;-3.3274078369140625;-9.552658081054688;-0.88848876953125
1445425019425;346.18707275390625;-84.78047180175781;11.004111289978027;-5.6025543212890625;-11.004043579101562;-0.7904205322265625
1445425019459;345.9027404785156;-83.57453918457031;11.41526985168457;-6.190948486328125;-13.67144775390625;-1.3395843505859375
1445425019492;345.59503173828125;-83.06948852539062;11.46174144744873;-5.4848785400390625;-13.2791748046875;-1.202301025390625
1445425019527;344.3306884765625;-82.72421264648438;11.711091041564941;-4.8572540283203125;-11.651275634765625;-1.12384033203125
1445425019558;343.5279235839844;-82.71456909179688;11.835464477539062;-4.0334930419921875;-11.259017944335938;-1.12384033203125
1445425019591;342.0150146484375;-82.9090805053711;11.992452621459961;-4.3276824951171875;-10.297958374023438;-0.868865966796875
1445425019627;339.90087890625;-83.22172546386719;12.570119857788086;-5.053375244140625;-7.552093505859375;-0.064727783203125
1445425019657;338.5268249511719;-83.38200378417969;12.96446418762207;-4.935699462890625;-6.5910491943359375;0.1706390380859375
1445425019692;335.378173828125;-83.61178588867188;13.851405143737793;-3.052825927734375;-5.9045867919921875;0.8374786376953125
1445425019722;334.0010986328125;-83.55647277832031;14.364988327026367;-1.522979736328125;-7.23828125;2.2496490478515625
1445425019756;332.0690612792969;-82.68330383300781;15.337337493896484;-1.346466064453125;-8.473922729492188;2.5438385009765625
1445425019788;330.2601318359375;-81.55857849121094;15.983818054199219;-1.9348602294921875;-9.493820190429688;2.0338897705078125
1445425019821;329.2905578613281;-81.37130737304688;16.342321395874023;-2.2682952880859375;-8.415084838867188;0.7982635498046875
1445425019855;327.22296142578125;-81.84988403320312;17.482803344726562;-2.8370819091796875;-7.944366455078125;0.4844512939453125
1445425019887;325.025634765625;-81.91085052490234;18.23061180114746;-4.308074951171875;-8.415084838867188;-0.123565673828125
1445425019921;323.7035827636719;-81.83402252197266;18.451366424560547;-4.9749298095703125;-10.513702392578125;-0.5942840576171875
1445425019954;321.1360168457031;-81.82891082763672;18.856399536132812;-5.7790679931640625;-13.083053588867188;-0.515838623046875
1445425019987;319.90753173828125;-81.28117370605469;18.97610092163086;-5.93597412109375;-12.9849853515625;-0.064727783203125
1445425020020;319.6324462890625;-81.0418472290039;19.032108306884766;-6.190948486328125;-12.867294311523438;0.111785888671875
1445425020052;318.70587158203125;-80.92623901367188;19.239439010620117;-5.9752044677734375;-11.45513916015625;0.111785888671875
1445425020085;317.45245361328125;-80.80839538574219;19.058809280395508;-4.190399169921875;-9.278060913085938;0.3471527099609375
1445425020118;316.9532775878906;-80.6329116821289;18.79628562927246;-3.0135955810546875;-8.728897094726562;0.445220947265625
1445425020151;316.1747131347656;-80.09025573730469;18.131696701049805;-0.8757476806640625;-8.003204345703125;0.7001953125
1445425020184;316.2237854003906;-79.64901733398438;17.445236206054688;-0.267730712890625;-7.7678375244140625;0.8374786376953125
1445425020217;316.7185363769531;-79.51709747314453;17.126951217651367;-0.7384490966796875;-8.042434692382812;0.7394256591796875
1445425020250;317.4825134277344;-79.68241882324219;16.89459800720215;-2.7586212158203125;-7.0225372314453125;0.2686920166015625
1445425020283;317.4578857421875;-80.07229614257812;17.246366500854492;-4.8572540283203125;-5.8849639892578125;2.0338897705078125
1445425020316;317.2115173339844;-80.99927520751953;18.117515563964844;-4.8964691162109375;-6.7871856689453125;2.8772735595703125
1445425020350;316.7080383300781;-80.20843505859375;17.539966583251953;-4.1707763671875;-10.062606811523438;1.8377685546875
1445425020382;315.97393798828125;-79.85633850097656;17.14263916015625;-3.680450439453125;-9.493820190429688;1.5435638427734375
1445425020415;314.58740234375;-80.67159271240234;17.32191276550293;-3.8961944580078125;-7.3363494873046875;1.0924530029296875
1445425020448;314.21697998046875;-81.47211456298828;18.287263870239258;-5.426025390625;-9.709564208984375;1.0532379150390625
1445425020485;314.3209533691406;-81.44010925292969;18.26802635192871;-5.4848785400390625;-12.455429077148438;0.994384765625
1445425020517;314.98260498046875;-81.4272232055664;17.63977813720703;-4.759185791015625;-12.494644165039062;1.0532379150390625
1445425020548;316.13568115234375;-81.55757141113281;18.181787490844727;-6.308624267578125;-11.945480346679688;2.3477020263671875
1445425020581;316.8966064453125;-81.45403289794922;18.581209182739258;-6.6616668701171875;-12.239669799804688;2.40655517578125
1445425020613;318.57635498046875;-81.11479949951172;19.187044143676758;-5.053375244140625;-11.867019653320312;1.4062652587890625
1445425020646;319.58416748046875;-81.18160247802734;19.510387420654297;-3.503936767578125;-9.650726318359375;0.81787109375
1445425020679;321.6664123535156;-81.9498062133789;20.35447120666504;-3.288177490234375;-8.120880126953125;0.759033203125
1445425020713;323.7908630371094;-83.36634063720703;21.164785385131836;-2.68017578125;-5.6299896240234375;1.4258880615234375
1445425020745;324.95318603515625;-83.97920989990234;21.294668197631836;-2.425201416015625;-6.0026397705078125;1.6612396240234375
1445425020778;327.5466613769531;-84.42438507080078;20.591251373291016;-2.3859710693359375;-7.0225372314453125;1.641632080078125
1445425020811;329.6943664550781;-85.04450225830078;19.79587745666504;-3.033203125;-7.9051361083984375;1.2297515869140625
1445425020845;330.5231018066406;-85.75666809082031;19.737211227416992;-3.915802001953125;-7.610931396484375;1.465118408203125
1445425020877;331.9197082519531;-87.29019165039062;19.904741287231445;-4.8572540283203125;-8.022811889648438;1.0924530029296875
1445425020911;333.21710205078125;-88.61771392822266;19.971240997314453;-4.5434417724609375;-8.1993408203125;0.4648284912109375
1445425020943;333.9755554199219;-89.34227752685547;20.015777587890625;-4.79840087890625;-9.101547241210938;0.0921783447265625
1445425020976;335.9939880371094;-90.33934020996094;19.781049728393555;-6.1125030517578125;-12.376968383789062;-0.3981475830078125
1445425021009;339.57373046875;-89.94632720947266;19.081453323364258;-6.4851531982421875;-13.49493408203125;0.5236663818359375
1445425021042;341.6093444824219;-89.44795989990234;18.729442596435547;-6.1517181396484375;-12.671173095703125;0.621734619140625
1445425021075;345.3430480957031;-88.74244689941406;18.70985984802246;-5.4064178466796875;-10.631378173828125;0.7198028564453125
1445425021109;347.15234375;-88.59984588623047;18.833894729614258;-4.759185791015625;-9.415359497070312;0.8571014404296875
1445425021142;350.72467041015625;-88.72518920898438;18.92241859436035;-3.24896240234375;-7.0029296875;0.30792236328125
1445425021175;354.110595703125;-89.40473937988281;19.398178100585938;-2.8762969970703125;-5.728057861328125;0.4844512939453125
1445425021208;355.6692199707031;-89.84587860107422;19.7481689453125;-3.3470306396484375;-5.53192138671875;0.7786407470703125
1445425021242;357.9769287109375;-90.7062759399414;20.004924774169922;-4.2296142578125;-5.669219970703125;1.465118408203125
1445425021274;359.5783996582031;-91.7520980834961;19.957855224609375;-3.48431396484375;-6.43414306640625;1.465118408203125
1445425021307;0.346038818359375;-92.02562713623047;20.085159301757812;-3.288177490234375;-7.2186737060546875;1.21014404296875
1445425021340;1.650238037109375;-92.01100158691406;20.6143741607666;-3.4647064208984375;-9.513427734375;-0.0451202392578125
1445425021373;1.968658447265625;-92.00690460205078;21.021800994873047;-3.621612548828125;-10.337188720703125;-0.6531219482421875
1445425021405;2.206695556640625;-92.01769256591797;21.654373168945312;-3.8961944580078125;-9.00347900390625;-1.51611328125
1445425021438;2.14111328125;-91.47795104980469;21.612905502319336;-5.0337677001953125;-8.571990966796875;-1.18267822265625
1445425021471;1.774139404296875;-91.38117218017578;21.6131534576416;-6.877410888671875;-11.141326904296875;-1.2807464599609375
1445425021504;0.284637451171875;-91.2009048461914;21.860300064086914;-6.642059326171875;-12.102386474609375;-0.9865570068359375
1445425021538;358.5650939941406;-90.95836639404297;21.78507423400879;-5.504486083984375;-12.02392578125;-1.2219085693359375
1445425021571;357.6427307128906;-90.8338851928711;21.68132209777832;-5.3475799560546875;-11.670883178710938;-1.3395843505859375
1445425021603;355.4284973144531;-90.73900604248047;21.948101043701172;-5.563323974609375;-11.39630126953125;-1.0257720947265625
1445425021637;353.1054382324219;-90.45125579833984;21.967924118041992;-5.1710662841796875;-10.454864501953125;-0.3197021484375
1445425021673;351.83648681640625;-90.3773422241211;21.84873390197754;-4.759185791015625;-9.68994140625;-0.2020263671875
1445425021702;348.9189147949219;-90.60326385498047;22.06721305847168;-3.7196807861328125;-8.081649780273438;1.0336151123046875
1445425021736;346.77392578125;-90.26982116699219;22.015987396240234;-2.28790283203125;-8.356246948242188;2.0535125732421875
1445425021768;346.10888671875;-89.90745544433594;21.675485610961914;-1.6014404296875;-8.866195678710938;2.46539306640625
1445425021801;345.3052978515625;-89.1060562133789;20.888498306274414;-0.7580718994140625;-8.473922729492188;2.092742919921875
1445425021835;344.9684753417969;-88.80565643310547;20.748035430908203;-0.7384490966796875;-7.4736480712890625;1.56317138671875
1445425021867;344.417724609375;-88.58050537109375;21.110023498535156;-1.464141845703125;-5.9241943359375;0.36676025390625
1445425021900;343.9291076660156;-88.51287841796875;21.724254608154297;-2.4644317626953125;-5.669219970703125;0.111785888671875
1445425021933;343.347900390625;-88.57122039794922;22.049280166625977;-3.1901092529296875;-6.1007080078125;-0.1431732177734375
1445425021967;341.78717041015625;-88.77831268310547;22.882665634155273;-4.50421142578125;-9.395751953125;-1.06500244140625
1445425022000;339.8061828613281;-88.86441802978516;24.439943313598633;-7.505035400390625;-13.338027954101562;-0.6531219482421875
1445425022032;338.7638244628906;-88.82122039794922;25.092727661132812;-8.799514770507812;-14.299072265625;-0.2608642578125
1445425022065;336.7467041015625;-88.33523559570312;24.958772659301758;-7.093170166015625;-13.632217407226562;-0.3197021484375
1445425022100;334.30181884765625;-88.37641143798828;24.931236267089844;-5.64178466796875;-12.47503662109375;-0.1627960205078125
1445425022132;332.89117431640625;-88.4275131225586;25.219139099121094;-5.386810302734375;-11.259017944335938;0.2098541259765625
1445425022164;330.0900573730469;-88.53121185302734;25.355735778808594;-3.7196807861328125;-8.022811889648438;0.58251953125
1445425022198;328.6628112792969;-88.71590423583984;25.219863891601562;-1.7779541015625;-4.923919677734375;0.8571014404296875
1445425022230;326.0824890136719;-88.95933532714844;24.961021423339844;-1.20916748046875;-4.4532012939453125;0.9747772216796875
1445425022263;324.21929931640625;-88.52708435058594;24.936811447143555;-1.4837646484375;-5.0612030029296875;1.700469970703125
1445425022297;323.6094055175781;-87.93517303466797;25.166425704956055;-2.6409454345703125;-6.5322113037109375;2.6222991943359375
1445425022329;322.7576599121094;-85.28990936279297;25.857555389404297;-5.2691192626953125;-9.709564208984375;2.1907958984375
1445425022362;320.5633544921875;-83.25272369384766;25.848209381103516;-5.6613922119140625;-9.474197387695312;1.014007568359375
1445425022396;319.4326171875;-83.3570556640625;25.66823387145996;-5.112213134765625;-8.336624145507812;0.504058837890625
1445425022428;317.80499267578125;-83.98109436035156;25.922517776489258;-5.8575286865234375;-8.120880126953125;-0.2608642578125
1445425022461;316.19281005859375;-84.3162841796875;26.897180557250977;-7.6815643310546875;-9.729171752929688;-0.4766082763671875
1445425022494;315.4783630371094;-84.5029296875;27.153335571289062;-7.760009765625;-10.042984008789062;-0.4177703857421875
1445425022527;315.26947021484375;-84.25516510009766;26.664085388183594;-5.99481201171875;-10.239120483398438;0.052947998046875
1445425022561;315.5680236816406;-83.88318634033203;26.290067672729492;-6.190948486328125;-11.082489013671875;0.3471527099609375
1445425022593;316.36810302734375;-83.24446868896484;26.07295036315918;-6.7989654541015625;-10.925582885742188;0.445220947265625
1445425022627;317.2839660644531;-83.24610137939453;26.29781150817871;-6.583221435546875;-9.748779296875;0.5236663818359375
1445425022659;317.9068298339844;-83.26314544677734;26.232851028442383;-4.9160919189453125;-8.3170166015625;0.327545166015625
1445425022692;319.325927734375;-83.2259521484375;25.820079803466797;-4.4061431884765625;-7.74822998046875;0.4059906005859375
1445425022725;320.8558349609375;-83.33512115478516;25.384862899780273;-4.1119384765625;-7.0813751220703125;0.562896728515625
1445425022758;321.8024597167969;-83.4327163696289;25.15690803527832;-4.0531005859375;-6.8264007568359375;0.9159393310546875
1445425022792;324.0068359375;-83.35116577148438;24.370132446289062;-4.190399169921875;-7.35595703125;1.700469970703125
1445425022825;325.8276062011719;-83.34292602539062;23.042457580566406;-4.1119384765625;-8.022811889648438;1.9554443359375
1445425022861;326.72479248046875;-83.40680694580078;22.46381950378418;-3.9746551513671875;-7.5913238525390625;1.8573760986328125
1445425022891;328.19219970703125;-83.64310455322266;21.958463668823242;-4.3865203857421875;-7.5128631591796875;1.7985382080078125
1445425022924;328.835693359375;-83.71123504638672;21.843406677246094;-4.68072509765625;-7.7678375244140625;1.56317138671875
1445425022959;330.3213806152344;-83.86384582519531;21.467880249023438;-4.3865203857421875;-8.650436401367188;0.4648284912109375
1445425022991;331.7791442871094;-84.45270538330078;21.396629333496094;-5.308349609375;-9.513427734375;0.621734619140625
1445425023023;332.6551818847656;-84.8050537109375;21.44152069091797;-6.3282470703125;-10.494094848632812;0.445220947265625
1445425023056;334.1585693359375;-85.65133666992188;21.700593948364258;-6.3478546142578125;-10.631378173828125;0.2294769287109375
1445425023089;335.65179443359375;-86.866943359375;21.954051971435547;-6.89703369140625;-11.51397705078125;0.24908447265625
1445425023122;336.55035400390625;-87.25892639160156;21.85588264465332;-6.95587158203125;-11.45513916015625;0.562896728515625
1445425023155;338.4538269042969;-88.0791015625;21.61421012878418;-5.7202301025390625;-10.631378173828125;0.8374786376953125
1445425023187;340.4150390625;-88.97923278808594;21.95511817932129;-5.0926055908203125;-8.866195678710938;1.072845458984375
1445425023221;341.1943054199219;-89.43505859375;22.2689208984375;-5.053375244140625;-7.7678375244140625;1.131683349609375
1445425023253;342.081787109375;-90.58138275146484;22.58641242980957;-4.1119384765625;-5.786895751953125;1.014007568359375
1445425023286;342.5048828125;-91.60009765625;22.415332794189453;-3.60198974609375;-5.53192138671875;1.131683349609375
1445425023319;342.4966735839844;-91.89605712890625;22.10002899169922;-3.739288330078125;-6.5714263916015625;1.38665771484375
1445425023353;342.094970703125;-91.95173645019531;21.044260025024414;-3.229339599609375;-8.4935302734375;1.190521240234375
1445425023385;341.96966552734375;-91.95704650878906;20.694318771362305;-2.935150146484375;-8.689666748046875;-0.5354461669921875
1445425023418;341.39422607421875;-92.39839172363281;21.274925231933594;-3.170501708984375;-7.8462982177734375;-0.94732666015625
1445425023452;340.2339782714844;-92.4113998413086;22.85416030883789;-4.0923309326171875;-7.4148101806640625;-1.8691558837890625
1445425023485;339.13848876953125;-92.22763061523438;23.532438278198242;-4.56304931640625;-8.473922729492188;-2.398712158203125
1445425023517;335.4441223144531;-91.68728637695312;24.027637481689453;-6.1713409423828125;-10.7686767578125;-2.37908935546875
1445425023551;330.0308532714844;-91.93913269042969;24.731674194335938;-7.8580780029296875;-10.454864501953125;-1.947601318359375
1445425023584;326.8794860839844;-92.25125885009766;25.33335304260254;-8.250350952148438;-10.376419067382812;-1.9868316650390625
1445425023617;320.59698486328125;-92.264892578125;25.65610694885254;-7.406982421875;-11.51397705078125;-1.574951171875
1445425023649;317.34588623046875;-91.72714233398438;25.110132217407227;-6.9166412353515625;-10.278350830078125;-0.9865570068359375
1445425023683;309.9079895019531;-90.89417266845703;24.02920913696289;-6.9951019287109375;-8.709274291992188;-0.0451202392578125
1445425023715;302.3056640625;-90.2691879272461;23.730024337768555;-6.2301788330078125;-7.1009979248046875;1.7789306640625
1445425023750;298.8489074707031;-89.4344711303711;23.469465255737305;-4.0727081298828125;-7.493255615234375;3.66180419921875
1445425023782;292.24322509765625;-87.51396942138672;22.87504768371582;-3.2685699462890625;-7.4540252685546875;3.9952239990234375
1445425023814;285.42388916015625;-86.03263092041016;22.637531280517578;-2.660552978515625;-7.23828125;3.5637359619140625
1445425023847;281.789306640625;-85.38468933105469;22.281291961669922;-2.1898345947265625;-7.0029296875;3.1910858154296875
1445425023881;275.0979919433594;-84.15418243408203;20.722200393676758;-0.01275634765625;-6.865631103515625;2.955718994140625
1445425023914;268.7852478027344;-83.63429260253906;20.07764434814453;-0.6207733154296875;-6.747955322265625;1.8573760986328125
1445425023946;265.631103515625;-83.56265258789062;21.117809295654297;-1.974090576171875;-8.336624145507812;1.6808624267578125
1445425023979;259.66192626953125;-83.09664154052734;23.264453887939453;-4.1511688232421875;-13.416473388671875;-0.3785400390625
1445425024012;257.09942626953125;-82.50474548339844;23.255937576293945;-4.366912841796875;-12.612335205078125;0.30792236328125
1445425024046;252.93429565429688;-81.77474975585938;22.798166275024414;-4.425750732421875;-10.729446411132812;0.8571014404296875
1445425024078;248.690185546875;-81.35062408447266;22.91147804260254;-6.759735107421875;-11.670883178710938;-0.1431732177734375
1445425024112;246.33367919921875;-81.1941146850586;22.459440231323242;-8.446487426757812;-14.102935791015625;0.4648284912109375
1445425024145;242.21649169921875;-80.55829620361328;20.085054397583008;-7.642333984375;-13.063430786132812;0.01373291015625
1445425024178;238.27297973632812;-79.75013732910156;17.852998733520508;-5.680999755859375;-9.395751953125;0.0921783447265625
1445425024211;236.2886962890625;-79.53105926513672;17.036489486694336;-4.6611175537109375;-7.74822998046875;-0.0843353271484375
1445425024243;232.62405395507812;-78.69728088378906;15.39472770690918;-1.8760223388671875;-5.728057861328125;-0.4177703857421875
1445425024276;229.214111328125;-78.05147552490234;14.334551811218262;0.16375732421875;-4.6885528564453125;0.2098541259765625
1445425024309;227.59869384765625;-77.80302429199219;14.494400978088379;-0.1696624755859375;-3.9432525634765625;2.1711883544921875
1445425024343;224.8905029296875;-76.58213806152344;15.612095832824707;-2.032928466796875;-5.4534759521484375;2.40655517578125
1445425024375;223.38043212890625;-75.75215911865234;16.086130142211914;-2.307525634765625;-7.826690673828125;2.0338897705078125
1445425024409;219.92193603515625;-75.10079956054688;15.902790069580078;-1.5426025390625;-9.356521606445312;1.072845458984375
1445425024443;217.738037109375;-77.20340728759766;15.980743408203125;-4.0138702392578125;-11.925857543945312;1.38665771484375
1445425024475;216.95111083984375;-78.56099700927734;17.21751594543457;-6.583221435546875;-13.67144775390625;3.8775482177734375
1445425024508;216.78976440429688;-79.17921447753906;18.03609848022461;-5.75946044921875;-13.691055297851562;3.7402496337890625
1445425024541;217.00384521484375;-80.11909484863281;18.982772827148438;-2.621337890625;-15.220901489257812;2.896881103515625
1445425024575;217.76483154296875;-80.33509063720703;19.129655838012695;-4.2100067138671875;-14.279464721679688;2.8184356689453125
1445425024606;220.09194946289062;-80.51277923583984;20.589397430419922;-5.93597412109375;-13.475311279296875;2.661529541015625
1445425024642;222.5059814453125;-81.01243591308594;22.121286392211914;-5.9163665771484375;-11.023651123046875;1.9162139892578125
1445425024673;223.62188720703125;-81.18888092041016;22.487607955932617;-4.68072509765625;-9.591873168945312;1.465118408203125
1445425024705;225.6026611328125;-81.61699676513672;22.785146713256836;-2.1898345947265625;-6.49298095703125;0.641357421875
1445425024738;228.24014282226562;-81.97872924804688;22.800487518310547;-0.6992340087890625;-4.3747406005859375;-0.123565673828125
1445425024771;230.022216796875;-81.92096710205078;22.582151412963867;-0.4442596435546875;-4.1982269287109375;0.58251953125
1445425024804;234.06961059570312;-82.14836883544922;21.515151977539062;-1.09149169921875;-5.9045867919921875;1.072845458984375
1445425024837;237.34176635742188;-83.0022201538086;20.30712890625;-2.8370819091796875;-7.3951873779296875;1.523956298828125
1445425024871;238.68194580078125;-83.33057403564453;19.882823944091797;-3.9942626953125;-7.68939208984375;1.1120758056640625
1445425024904;241.42782592773438;-84.02820587158203;19.8074893951416;-4.5238189697265625;-9.925308227539062;1.56317138671875
1445425024937;242.82568359375;-84.5760498046875;19.93549346923828;-4.7787933349609375;-12.573104858398438;0.9747772216796875
1445425024969;246.12322998046875;-85.78321838378906;20.18505096435547;-4.818023681640625;-13.122268676757812;0.3471527099609375
1445425025002;250.369384765625;-86.91019439697266;20.584278106689453;-6.77935791015625;-13.61260986328125;0.955169677734375
1445425025036;252.80221557617188;-87.15074157714844;20.691492080688477;-7.19122314453125;-13.90679931640625;1.014007568359375
1445425025069;258.2452087402344;-87.10012817382812;20.956249237060547;-5.9752044677734375;-12.573104858398438;1.3474273681640625
1445425025102;264.1429443359375;-86.69599914550781;21.73987579345703;-4.0334930419921875;-10.729446411132812;1.2885894775390625
1445425025134;267.36236572265625;-86.58454132080078;22.152116775512695;-3.0135955810546875;-9.533035278320312;1.3474273681640625
1445425025167;274.5079345703125;-86.24679565429688;22.022777557373047;-1.5622100830078125;-6.4537506103515625;1.21014404296875
1445425025201;281.7893981933594;-86.15555572509766;21.077388763427734;-1.0718841552734375;-3.7471160888671875;1.7200775146484375
1445425025233;285.980224609375;-86.21573638916016;20.609609603881836;-0.91497802734375;-2.7272186279296875;3.093017578125
1445425025266;295.23565673828125;-85.67050170898438;19.860462188720703;-0.7972869873046875;-1.6681060791015625;4.4463348388671875
1445425025304;299.30633544921875;-85.04299926757812;19.713045120239258;-1.7779541015625;-2.766448974609375;3.465667724609375
1445425025333;304.74249267578125;-84.60420227050781;20.46676254272461;-4.73956298828125;-6.6498870849609375;0.6609649658203125
1445425025365;307.5819091796875;-85.01951599121094;22.120006561279297;-9.054489135742188;-12.043548583984375;-1.6337890625
1445425025398;309.0727233886719;-85.34869384765625;22.303003311157227;-9.58404541015625;-15.299346923828125;-2.0456695556640625
1445425025432;312.7444763183594;-85.29048156738281;20.933805465698242;-6.4851531982421875;-14.98553466796875;-1.9083709716796875
1445425025465;315.49407958984375;-85.51209259033203;20.27718162536621;-7.701171875;-16.927261352539062;-1.378814697265625
1445425025499;316.8112487792969;-85.84652709960938;20.27458381652832;-7.6815643310546875;-15.789688110351562;-0.868865966796875
1445425025530;319.58282470703125;-86.55042266845703;19.786243438720703;-5.4652557373046875;-10.749069213867188;-0.633514404296875
1445425025564;321.77252197265625;-88.09597778320312;19.50460433959961;-3.7000579833984375;-6.2772369384765625;-1.1042327880859375
1445425025596;322.8580017089844;-88.64230346679688;19.36886215209961;-3.170501708984375;-5.159271240234375;-1.0453948974609375
1445425025629;324.76165771484375;-89.50240325927734;18.881420135498047;-1.169952392578125;-4.9435272216796875;0.386383056640625
1445425025663;325.8482360839844;-89.76715850830078;18.376646041870117;0.6737060546875;-5.3161773681640625;1.014007568359375
1445425025696;328.860107421875;-89.2485122680664;17.024429321289062;1.1444244384765625;-5.8653564453125;1.8377685546875
1445425025729;332.3779602050781;-89.09818267822266;16.461692810058594;-0.542327880859375;-7.6501617431640625;2.4850006103515625
1445425025761;333.9955749511719;-89.09101104736328;16.801965713500977;-2.40557861328125;-7.8462982177734375;0.876708984375
1445425025795;337.1151123046875;-89.10893249511719;17.869762420654297;-2.993988037109375;-7.4148101806640625;0.0921783447265625
1445425025827;339.91448974609375;-89.32678985595703;19.3636531829834;-4.484588623046875;-7.1009979248046875;-0.7119598388671875
1445425025861;340.88323974609375;-89.03561401367188;20.05425262451172;-5.504486083984375;-7.7286224365234375;-0.751190185546875
1445425025893;342.2670593261719;-88.51287078857422;20.462467193603516;-6.9951019287109375;-12.082763671875;-1.2415313720703125
1445425025926;343.6015930175781;-88.56159210205078;20.213199615478516;-8.740676879882812;-14.828628540039062;-0.633514404296875
1445425025959;344.33807373046875;-88.25785827636719;20.494388580322266;-8.505325317382812;-13.887191772460938;-0.4569854736328125
1445425025993;345.7770080566406;-87.31816864013672;20.445613861083984;-6.6224517822265625;-12.945755004882812;-0.8492584228515625
1445425026025;346.4248352050781;-86.93622589111328;20.198360443115234;-6.132110595703125;-13.083053588867188;-0.868865966796875
1445425026059;347.431884765625;-86.39119720458984;20.11489486694336;-5.01416015625;-11.435531616210938;-0.6531219482421875
1445425026093;348.24774169921875;-86.10944366455078;19.67434310913086;-2.9547576904296875;-8.689666748046875;-0.182403564453125
1445425026124;348.62554931640625;-86.17544555664062;19.183319091796875;-1.7191162109375;-7.3363494873046875;0.58251953125
1445425026159;349.7827453613281;-86.43604278564453;18.219554901123047;-0.1304473876953125;-5.3750152587890625;0.8571014404296875
1445425026193;351.1895446777344;-86.53907012939453;17.837827682495117;-0.287353515625;-5.6888275146484375;1.131683349609375
1445425026227;351.8775634765625;-86.64446258544922;17.860111236572266;-1.20916748046875;-5.9241943359375;1.8966064453125
1445425026256;353.8126220703125;-86.14575958251953;17.80913734436035;-1.464141845703125;-7.042144775390625;2.6222991943359375
1445425026290;355.03424072265625;-85.74869537353516;17.38391876220703;-3.1312713623046875;-10.376419067382812;1.1512908935546875
1445425026322;357.63543701171875;-85.92789459228516;16.794755935668945;-3.8177490234375;-10.180282592773438;1.308197021484375
1445425026354;0.82147216796875;-87.56278991699219;18.20110511779785;-5.2102813720703125;-8.3170166015625;-0.0843353271484375
1445425026389;2.4609375;-87.98120880126953;19.1887149810791;-6.6812896728515625;-9.180007934570312;-0.5942840576171875
1445425026421;5.751129150390625;-88.20280456542969;19.231952667236328;-7.8188629150390625;-12.9261474609375;0.7198028564453125
1445425026454;9.297607421875;-88.69384765625;19.63494110107422;-5.7398529052734375;-14.318679809570312;0.111785888671875
1445425026488;11.61224365234375;-88.66140747070312;20.236486434936523;-4.0923309326171875;-9.45458984375;1.0924530029296875
1445425026520;16.748565673828125;-88.38836669921875;21.197622299194336;-4.1119384765625;-7.92474365234375;1.4847259521484375
1445425026553;22.418365478515625;-88.01953887939453;21.893823623657227;-3.48431396484375;-7.3951873779296875;1.7200775146484375
1445425026588;25.591278076171875;-87.5159683227539;22.072168350219727;-2.621337890625;-7.9051361083984375;1.6024017333984375
1445425026620;32.5675048828125;-86.35330200195312;21.638957977294922;-1.111114501953125;-8.76812744140625;1.21014404296875
1445425026653;38.6636962890625;-86.29217529296875;21.21445655822754;-2.032928466796875;-7.6501617431640625;2.151580810546875
1445425026685;41.017974853515625;-86.78516387939453;21.527681350708008;-2.993988037109375;-6.8264007568359375;2.3084869384765625
1445425026718;45.468994140625;-87.60557556152344;22.63037872314453;-4.0727081298828125;-6.414520263671875;1.700469970703125
1445425026752;49.2767333984375;-87.80296325683594;23.086780548095703;-4.994537353515625;-7.5128631591796875;1.014007568359375
1445425026785;50.653533935546875;-87.99456024169922;23.139738082885742;-5.622161865234375;-8.356246948242188;1.6220245361328125
1445425026817;52.92755126953125;-88.65861511230469;23.037281036376953;-6.583221435546875;-10.435256958007812;0.935546875
1445425026853;53.505584716796875;-89.03688049316406;22.915851593017578;-6.877410888671875;-10.964813232421875;0.2883148193359375
1445425026884;53.80157470703125;-90.00623321533203;23.139572143554688;-8.426864624023438;-11.710113525390625;-0.123565673828125
1445425026917;53.2386474609375;-90.73138427734375;23.646087646484375;-8.171890258789062;-11.239395141601562;-0.2216339111328125
1445425026951;52.825225830078125;-90.58692932128906;23.723899841308594;-7.701171875;-10.866744995117188;-0.2216339111328125
1445425026982;51.711822509765625;-89.8887939453125;23.729345321655273;-6.2694091796875;-9.788009643554688;0.36676025390625
1445425027016;49.807891845703125;-89.47079467773438;24.305437088012695;-5.1514434814453125;-7.944366455078125;0.876708984375
1445425027054;48.603668212890625;-89.48286437988281;24.6871280670166;-4.7199554443359375;-6.72833251953125;1.131683349609375
1445425027082;46.081787109375;-89.74543762207031;25.092182159423828;-4.1707763671875;-5.728057861328125;1.3474273681640625
1445425027114;43.521636962890625;-90.24937438964844;25.299415588378906;-4.62188720703125;-7.1598358154296875;0.9747772216796875
1445425027148;42.238037109375;-90.56207275390625;25.41343116760254;-4.50421142578125;-8.003204345703125;1.4847259521484375
1445425027184;39.700439453125;-91.21280670166016;25.459030151367188;-3.680450439453125;-8.513153076171875;1.8966064453125
1445425027213;38.3817138671875;-91.72866821289062;25.786239624023438;-3.739288330078125;-8.964248657226562;0.5236663818359375
1445425027247;35.846710205078125;-92.44461059570312;27.314830780029297;-4.1119384765625;-9.984146118164062;0.07257080078125
1445425027279;33.649932861328125;-93.09606170654297;28.473390579223633;-3.7196807861328125;-9.3369140625;-0.0451202392578125
1445425027312;32.930511474609375;-93.23820495605469;28.580883026123047;-3.0724334716796875;-8.591598510742188;-0.2020263671875
1445425027345;31.50323486328125;-93.64130401611328;28.903396606445312;-3.0135955810546875;-8.297409057617188;-0.868865966796875
1445425027378;29.025390625;-94.68080139160156;29.97357177734375;-4.3865203857421875;-8.454315185546875;-0.6727447509765625
1445425027411;27.6807861328125;-94.87430572509766;30.33172035217285;-5.1514434814453125;-8.82696533203125;-0.7315826416015625
1445425027445;25.194976806640625;-94.73570251464844;30.159343719482422;-5.5437164306640625;-10.14105224609375;-1.3984375
1445425027477;22.154754638671875;-94.67377471923828;29.58206558227539;-6.073272705078125;-10.7686767578125;-1.0257720947265625
1445425027510;20.3409423828125;-94.47016143798828;29.18714141845703;-6.2105712890625;-10.670608520507812;-0.8492584228515625
1445425027544;16.3096923828125;-94.27263641357422;27.9896297454834;-6.190948486328125;-10.454864501953125;-0.9865570068359375
1445425027577;14.1700439453125;-94.35490417480469;27.390380859375;-5.01416015625;-10.396026611328125;-0.6138916015625
1445425027609;9.95623779296875;-94.25879669189453;25.90058135986328;-4.62188720703125;-9.90570068359375;-0.1431732177734375
1445425027651;5.730316162109375;-93.96704864501953;24.173086166381836;-4.0923309326171875;-8.179718017578125;0.1706390380859375
1445425027678;1.476806640625;-93.8600845336914;23.534025192260742;-2.4644317626953125;-6.120330810546875;1.7789306640625
1445425027709;359.84271240234375;-93.35460662841797;23.447952270507812;-1.8171844482421875;-5.8653564453125;2.269256591796875
1445425027743;357.38641357421875;-91.296630859375;22.911924362182617;-1.0718841552734375;-7.8462982177734375;2.386932373046875
1445425027775;356.4783630371094;-90.20040893554688;22.448551177978516;-1.228790283203125;-8.728897094726562;2.0731201171875
1445425027809;354.3476867675781;-89.0057144165039;22.038496017456055;-1.6406707763671875;-8.179718017578125;0.1510162353515625
1445425027844;351.60137939453125;-88.77460479736328;22.094894409179688;-3.033203125;-8.003204345703125;-0.3197021484375
1445425027876;350.19256591796875;-88.7945327758789;22.225540161132812;-4.2884674072265625;-8.4935302734375;-0.1627960205078125
1445425027907;346.9078674316406;-89.13622283935547;23.128616333007812;-6.77935791015625;-12.004318237304688;-0.2216339111328125
1445425027942;343.7786560058594;-88.39833068847656;23.69025230407715;-7.13238525390625;-14.828628540039062;-0.1627960205078125
1445425027972;342.2247009277344;-87.81584167480469;23.42160415649414;-6.4263153076171875;-13.396865844726562;-0.123565673828125
1445425028006;338.44976806640625;-87.27003479003906;23.156871795654297;-5.955596923828125;-11.27862548828125;0.4059906005859375
1445425028038;336.19769287109375;-87.22301483154297;23.153656005859375;-5.75946044921875;-10.415634155273438;0.9159393310546875
1445425028071;330.75408935546875;-87.05933380126953;22.908411026000977;-4.994537353515625;-9.768402099609375;1.1709136962890625
1445425028104;324.7984924316406;-86.5032958984375;22.23098373413086;-3.3274078369140625;-7.316741943359375;1.4847259521484375
1445425028142;321.536865234375;-86.16809844970703;22.124021530151367;-3.0920562744140625;-5.8261260986328125;2.3084869384765625
1445425028170;314.98455810546875;-85.27620697021484;22.527639389038086;-2.6997833251953125;-4.10015869140625;3.465667724609375
1445425028203;308.3169860839844;-83.33126831054688;23.037433624267578;-1.4249267578125;-3.904022216796875;3.1910858154296875
1445425028237;305.136962890625;-82.09822082519531;23.19167709350586;-0.640380859375;-3.7667236328125;3.347991943359375
