sep=;
timestamp;gyro-alpha;gyro-beta;gyro-gamma;accel-x;accel-y;accel-z
1445509937428;60.52788112443244;-43.48084539696401;153.64827951514022;1.4282910740174353;7.444769916125386;2.6933272300720215
1445509937466;60.52788112443244;-43.48084539696401;153.64827951514022;1.4282910740174353;7.444769916125386;2.6933272300720215
1445509937501;60.08186352766405;-45.534120929214204;142.86288095122768;5.058798470306396;8.053645691150054;2.8998274155214427
1445509937535;60.752698029787545;-48.528266061358245;134.30211526266115;7.813327480316162;8.389432400921732;2.2132899433411657
1445509937570;60.752698029787545;-48.528266061358245;134.30211526266115;7.813327480316162;8.389432400921732;2.2132899433411657
1445509937607;58.33231767326975;-51.48501180912941;126.12760325814199;7.358728293963521;7.005284712274372;1.489791836901754
1445509937641;53.0855158928236;-50.93697314273428;116.83491429180926;4.4511203806336965;5.081692731420696;2.2875099390776827
1445509937675;50.307346623951624;-48.95780237688537;109.35851670183298;4.802169833727926;4.554968658447265;1.5110405227661132
1445509937709;50.307346623951624;-48.95780237688537;109.35851670183298;4.802169833727926;4.554968658447265;1.5110405227661132
1445509937743;48.8790992060871;-47.324307868468956;105.44134780966085;6.413019004098806;5.306598488263041;2.3548470069000498
1445509937777;47.578517512560666;-47.250345263820904;104.50860618236912;4.207659487859905;5.142146615600586;-0.20425532913208005
1445509937815;47.578517512560666;-47.250345263820904;104.50860618236912;4.207659487859905;5.142146615600586;-0.20425532913208005
1445509937853;45.22151380440587;-49.74687525576586;100.69436568246317;6.6801221627717835;12.26369945373535;1.5809212837219238
1445509937888;40.775277247544444;-54.41457037896076;94.62515483598314;14.895076715850829;19.087024547576902;-1.4368203443665057
1445509937925;40.775277247544444;-54.41457037896076;94.62515483598314;14.895076715850829;19.087024547576902;-1.4368203443665057
1445509937963;36.500314377106676;-57.117329829467344;87.39402228366771;4.963479243646189;12.372635921533405;0.3001730514083989
1445509937997;38.59044434441259;-59.55545437469882;90.7466461550443;9.802310509490967;10.464157484789936;6.904428789243777
1445509938031;50.493371942440206;-58.15511431144695;106.62817686671818;7.638850034332275;5.359570053863525;-0.02858078231811523
1445509938069;50.493371942440206;-58.15511431144695;106.62817686671818;7.638850034332275;5.359570053863525;-0.02858078231811523
1445509938107;56.49015335793593;-53.9997198083477;120.27331395947485;5.224896374876518;10.650606377466023;1.2036848846435546
1445509938143;60.514801128515245;-50.14062139249218;133.1782966914969;4.860528754922561;13.272107265472412;3.2010474734984338
1445509938176;64.39676777387571;-45.227414731109555;143.37798422674834;2.97509483795166;10.87581097112447;3.7565022586546837
1445509938213;64.39676777387571;-45.227414731109555;143.37798422674834;2.97509483795166;10.87581097112447;3.7565022586546837
1445509938249;68.1175860016693;-40.31322824530065;152.41335075007453;3.1589993799071756;6.581510890562552;2.201917339324951
1445509938283;71.40683186220512;-36.331928790408895;162.1792041739843;1.1373954261779784;4.387075120898336;-0.11716624374389648
1445509938321;71.40683186220512;-36.331928790408895;162.1792041739843;1.1373954261779784;4.387075120898336;-0.11716624374389648
1445509938358;73.9102759006244;-33.42697406413104;169.45755553051478;-1.4305354919433593;2.2604253501340748;1.1448773063659667
1445509938391;74.73502592465327;-29.918517212226007;174.20075335811828;-1.783979585089162;1.7087117973327637;2.3069629371643066
1445509938425;73.60539213999452;-28.254464531258872;175.62694932252754;0.5660790458900388;-0.1683423042297363;7.099556256512552
1445509938462;73.60539213999452;-28.254464531258872;175.62694932252754;0.5660790458900388;-0.1683423042297363;7.099556256512552
1445509938500;71.73448295518173;-29.474601657320648;176.44096967771668;1.542314745419286;1.6707038459777832;11.781567094421385
1445509938533;67.76629498594646;-36.84251401346345;173.76968350640817;-1.373822840118408;7.3961379871644075;5.388300766046345
1445509938571;67.76629498594646;-36.84251401346345;173.76968350640817;-1.373822840118408;7.3961379871644075;5.388300766046345
1445509938605;67.76629498594646;-36.84251401346345;173.76968350640817;-1.373822840118408;7.3961379871644075;5.388300766046345
1445509938641;62.67764382741674;-43.75112219874111;159.995746575828;0.8162731285095214;7.335235190173238;4.591180812426656
1445509938675;62.67764382741674;-43.75112219874111;159.995746575828;0.8162731285095214;7.335235190173238;4.591180812426656
1445509938713;62.67764382741674;-43.75112219874111;159.995746575828;0.8162731285095214;7.335235190173238;4.591180812426656
1445509938749;59.68245167474464;-49.387335650031275;137.09706663872754;6.398055170086771;9.128941292572021;2.8333878810606894
1445509938784;59.68245167474464;-49.387335650031275;137.09706663872754;6.398055170086771;9.128941292572021;2.8333878810606894
1445509938821;59.68245167474464;-49.387335650031275;137.09706663872754;6.398055170086771;9.128941292572021;2.8333878810606894
1445509938858;54.15992264673335;-55.34571923228219;121.1102839451202;5.241505947964452;8.129811048800685;3.850773949023336
1445509938891;49.95388281876579;-53.97849780155608;111.4125290467532;3.0169930747434495;3.2173581184387205;3.1872809600830077
1445509938925;47.661125842979324;-51.880383248200225;104.30034099337121;3.571251051330566;2.7281927917480466;1.0951976584503427
1445509938963;47.661125842979324;-51.880383248200225;104.30034099337121;3.571251051330566;2.7281927917480466;1.0951976584503427
1445509939000;45.785387593183074;-50.569139087479066;100.593993110471;4.14930111465454;4.552125251714885;3.6782419380187985
1445509939035;44.6762981413108;-50.963410186091444;99.1532821325072;4.4565071151733395;6.22956293599233;-0.44143093109130854
1445509939071;44.6762981413108;-50.963410186091444;99.1532821325072;4.4565071151733395;6.22956293599233;-0.44143093109130854
1445509939109;41.7269125335284;-53.77740010689718;94.24641405642129;7.159111584417522;13.9691192237854;2.111536299719289
1445509939143;35.85650671229955;-57.73965542376366;85.98564222376808;16.57386157695353;19.252823012542724;-3.43747514316719
1445509939176;31.72641173737369;-60.45653932859144;80.13681754281805;6.440552249554544;11.005097860772906;-1.6038158370971678
1445509939210;31.72641173737369;-60.45653932859144;80.13681754281805;6.440552249554544;11.005097860772906;-1.6038158370971678
1445509939248;37.30015308569457;-62.84478179806505;87.29429489770371;8.227225092315674;9.527575942053273;5.535094670812786
1445509939281;51.25836183339131;-61.489493024285935;104.38240812587638;6.394164300128072;5.607968476104736;0.6724713547637686
1445509939319;51.25836183339131;-61.489493024285935;104.38240812587638;6.394164300128072;5.607968476104736;0.6724713547637686
1445509939355;58.86270577303292;-57.55928987431808;118.06334725610614;5.705083280944824;11.934347087860107;1.0821790042601525
1445509939389;63.20545617607146;-54.79994481440389;129.19077330094436;3.3439515312194823;11.460893709564209;2.3828290561400354
1445509939425;63.20545617607146;-54.79994481440389;129.19077330094436;3.3439515312194823;11.460893709564209;2.3828290561400354
1445509939459;67.15486174291053;-50.968171953232996;138.84881106894244;4.267963770968653;12.129623868505655;3.642777752862498
1445509939496;69.36006628808097;-46.92065374585456;145.62461227153887;3.4557309308258817;8.618826847485453;3.1610942332945764
1445509939529;72.71193391666753;-43.57255948628982;153.79198954237214;2.1874024186950174;3.845985691833496;-0.649277562713623
1445509939567;72.71193391666753;-43.57255948628982;153.79198954237214;2.1874024186950174;3.845985691833496;-0.649277562713623
1445509939605;74.13051080929326;-41.979670541142745;161.56241631980902;-1.4133271675109862;0.852335791015625;-0.8066963218688964
1445509939641;75.22264549300282;-40.940943652127665;167.34884799073984;-1.585260774230957;0.27099370040893556;-0.030974983978271482
1445509939678;74.98599351372518;-41.13867289269762;168.7196105747955;-0.5668272430419922;1.6979375976011155;1.8332102836608886
1445509939716;74.98599351372518;-41.13867289269762;168.7196105747955;-0.5668272430419922;1.6979375976011155;1.8332102836608886
1445509939754;72.41950282938103;-43.84817199863575;166.57438984592505;2.059761652285792;2.728042861883342;7.522132776464894
1445509939789;69.74995793015553;-46.32559243822653;165.5195191748112;3.9068881965637203;10.474632263183594;14.327501284790038
1445509939824;69.74995793015553;-46.32559243822653;165.5195191748112;3.9068881965637203;10.474632263183594;14.327501284790038
1445509939862;68.0031511523432;-46.182993259056786;167.45403612439324;-0.730381143951416;14.487613520812987;14.450353757476806
1445509939899;66.3724756777067;-48.1383190566747;167.2923000797296;-0.560542463684082;9.740210757800192;5.629815273992717
1445509939933;64.24881910105506;-50.009782270049826;164.53129528463026;0.20051438903808594;8.252364136682077;2.9481600692749024
1445509939971;64.24881910105506;-50.009782270049826;164.53129528463026;0.20051438903808594;8.252364136682077;2.9481600692749024
1445509940009;61.95604126882673;-49.751509090011105;156.96072475645056;3.030460678277537;8.621071557672321;1.53213942489624
1445509940047;60.56501690262526;-50.464073860624346;146.51883960533183;2.7136778711181133;9.814131734057515;1.6225205375671385
1445509940083;59.69109288309615;-53.613493778518645;134.7176420153715;5.502773386792093;8.419359519814886;1.2089222007751463
1445509940121;59.69109288309615;-53.613493778518645;134.7176420153715;5.502773386792093;8.419359519814886;1.2089222007751463
1445509940158;57.72100169075684;-57.36792532060941;124.60155739174517;5.109525617980957;6.396109442846477;1.190666413116455
1445509940191;52.954289026713994;-60.11266667631971;116.72625342604358;5.6489691795349115;6.524648728998005;3.1510686599731446
1445509940224;48.112383620834954;-56.62607212791812;105.38135442553902;5.743690001910552;7.132027470397949;2.272845636572316
1445509940262;48.112383620834954;-56.62607212791812;105.38135442553902;5.743690001910552;7.132027470397949;2.272845636572316
1445509940296;49.93199620263325;-55.409420168825484;106.28796793091611;3.8382048286989328;8.558223581430129;4.384232152557373
1445509940329;50.678667277076045;-56.631998560390436;105.42786828699981;4.560505030590668;7.422175003283843;4.657619908495992
1445509940367;50.678667277076045;-56.631998560390436;105.42786828699981;4.560505030590668;7.422175003283843;4.657619908495992
1445509940405;46.40208506962781;-60.54204342415783;97.21919765136113;11.89005464940816;14.851232897949219;2.407968319702148
1445509940440;36.47338439179003;-63.27989763647337;83.97340834579674;8.265083406066895;17.907132041931153;-0.03800795135498047
1445509940475;36.47338439179003;-63.27989763647337;83.97340834579674;8.265083406066895;17.907132041931153;-0.03800795135498047
1445509940513;32.770135991888964;-65.12696097800023;79.35144644913396;5.755511153411865;11.73024168859273;-1.3850456604003905
1445509940550;43.450632884974006;-65.59521463428386;91.36231118762298;5.48421817779541;8.98858147140711;3.254917038251413
1445509940583;58.588730979128975;-62.114524043314034;110.70997533392054;4.858583393008448;9.819069628851116;1.4188637040511705
1445509940620;58.588730979128975;-62.114524043314034;110.70997533392054;4.858583393008448;9.819069628851116;1.4188637040511705
1445509940654;65.45907127865762;-57.17349177386654;124.8021549233684;6.560112402697652;13.756334551239012;0.2765302917480469
1445509940689;70.22199242322827;-52.46791982454126;137.10847896367062;2.1003135525025427;11.349264057159424;3.714903077874705
1445509940725;70.22199242322827;-52.46791982454126;137.10847896367062;2.1003135525025427;11.349264057159424;3.714903077874705
1445509940759;73.85902686389021;-46.37740842552965;146.4614263088784;3.3704372409544883;9.822661223602294;3.5930979953490194
1445509940796;77.66549375508575;-40.71650057487497;155.88748985622036;1.334617934063822;3.665971362249553;0.2796726814270019
1445509940829;80.35394203815656;-36.75575646718205;164.2722544569886;-0.09516951599121093;2.7304376480653882;0.3491045295715332
1445509940864;80.35394203815656;-36.75575646718205;164.2722544569886;-0.09516951599121093;2.7304376480653882;0.3491045295715332
1445509940899;81.94940280064596;-32.803941935996534;171.16449955325487;-0.75971011428833;2.2327426856994625;1.3274351829528808
1445509940933;81.94303557484743;-28.635210662657045;175.43402949814123;-1.0121487518310546;2.2137387100219725;3.5078047073364256
1445509940969;81.94303557484743;-28.635210662657045;175.43402949814123;-1.0121487518310546;2.2137387100219725;3.5078047073364256
1445509941008;80.29822118663924;-26.985445718705463;177.12791571590844;0.9840168823242187;0.05910685348510742;8.451831318222172
1445509941041;77.64469905650742;-28.752258166118477;178.4069327652796;1.3639467765365727;3.4741361003600058;11.525836429595946
1445509941075;74.67497327047464;-33.536712639737274;177.96808628458166;2.5751135779007335;23.318925619506835;19.547009957012534
1445509941113;74.67497327047464;-33.536712639737274;177.96808628458166;2.5751135779007335;23.318925619506835;19.547009957012534
1445509941149;71.64181968945512;-38.202804632445186;174.29450947192336;-1.7271172225952147;3.844489608056843;2.4383447532653806
1445509941183;68.5944087296967;-42.53053587150991;168.74993546490077;0.29837738189697266;9.806949567468465;6.004657617541402
1445509941221;68.5944087296967;-42.53053587150991;168.74993546490077;0.29837738189697266;9.806949567468465;6.004657617541402
1445509941258;65.66830408963305;-45.74097230058927;157.17295433766216;1.0998363876342774;8.348282059887795;4.204218115234375
1445509941291;64.01758083507956;-48.88394976389347;144.96361097230889;2.5911248197693375;8.136245575360208;2.380734568078816
1445509941325;64.0511594327548;-53.22774059003071;135.24471902188202;6.124816759490966;8.144026328896917;1.4851532173156738
1445509941362;64.0511594327548;-53.22774059003071;135.24471902188202;6.124816759490966;8.144026328896917;1.4851532173156738
1445509941399;62.30013015993812;-57.89679631587459;127.15204934327407;6.283432765606791;8.14522372198794;0.14829086532592772
1445509941433;55.4685837423264;-59.450505969148324;117.27330646047389;4.735880521392822;6.164471016748249;3.6272155151367187
1445509941471;55.4685837423264;-59.450505969148324;117.27330646047389;4.735880521392822;6.164471016748249;3.6272155151367187
1445509941509;51.26593210475301;-58.603095771841986;108.99918547834594;3.1854853088378903;4.266766341345012;2.55386498336792
1445509941546;50.285593690341244;-56.859510754130746;105.31914708568135;3.662380644281208;4.647295059967041;1.5453075340270994
1445509941580;50.54155369962678;-55.1399571085029;103.93452497066154;4.145560174560547;4.126855474090576;2.390759995269775
1445509941617;50.54155369962678;-55.1399571085029;103.93452497066154;4.145560174560547;4.126855474090576;2.390759995269775
1445509941655;51.477523959092885;-54.84421612921571;105.11433704678456;4.278288436834514;7.383568501513824;-0.7342717216491699
1445509941689;49.75152588844628;-57.141241750970785;102.53917208575866;5.540182568536326;14.10244632873535;2.453757499517873
1445509941725;49.75152588844628;-57.141241750970785;102.53917208575866;5.540182568536326;14.10244632873535;2.453757499517873
1445509941762;43.74751715423521;-61.34199566003565;95.01709899421773;13.229759531347453;19.628114122772217;0.24181436767578124
1445509941799;38.374364431456904;-66.46987972769175;88.60295039341405;7.444620424652099;12.555043868255614;4.172644526042137
1445509941833;38.374364431456904;-66.46987972769175;88.60295039341405;7.444620424652099;12.555043868255614;4.172644526042137
1445509941866;38.374364431456904;-66.46987972769175;88.60295039341405;7.444620424652099;12.555043868255614;4.172644526042137
1445509941904;64.49077239165948;-60.79619112091879;122.44673889699634;7.034912665557861;12.266243292999267;2.228702506930567
1445509941938;64.49077239165948;-60.79619112091879;122.44673889699634;7.034912665557861;12.266243292999267;2.228702506930567
1445509941975;64.49077239165948;-60.79619112091879;122.44673889699634;7.034912665557861;12.266243292999267;2.228702506930567
1445509942012;75.66732311849732;-50.45842253292215;146.86423530943037;2.932298592874221;12.677447428131103;4.576067633642628
1445509942047;75.66732311849732;-50.45842253292215;146.86423530943037;2.932298592874221;12.677447428131103;4.576067633642628
1445509942082;82.58439950116568;-39.23622712305986;164.20513335098002;0.3764882110595703;1.4317328850343822;-0.3087023765563965
1445509942120;82.58439950116568;-39.23622712305986;164.20513335098002;0.3764882110595703;1.4317328850343822;-0.3087023765563965
1445509942158;84.27394274724266;-35.67293953260294;172.3624658989152;-0.3591303220886737;1.458068811035156;1.1454758567810057
1445509942191;84.97477016253515;-31.98956889333938;177.82274954495642;-0.9935936889648437;1.540519422967732;0.841412245941162
1445509942225;84.21550139565313;-28.59383903869066;179.82738401520706;-0.40521862869815667;-0.19602526092529296;4.5103769447878
1445509942262;84.21550139565313;-28.59383903869066;179.82738401520706;-0.40521862869815667;-0.19602526092529296;4.5103769447878
1445509942299;82.4439101221613;-27.608259589480852;-179.5898706585406;0.44158055956191383;0.6446387969970703;9.312097500378265
1445509942334;79.6959826801038;-30.417725228495055;-179.26629685448447;-0.9377788901619147;10.949731655120848;14.21796655883789
1445509942372;79.6959826801038;-30.417725228495055;-179.26629685448447;-0.9377788901619147;10.949731655120848;14.21796655883789
1445509942410;77.45995549467838;-33.6609469649781;179.75864216275068;1.2788029206317615;9.098564859008789;13.505093014526366
1445509942445;74.20631732521858;-39.06853178029934;176.31841964499637;-0.8756791841369121;6.943484235791116;5.093514686639606
1445509942478;70.42940120005683;-43.17855770329566;169.01792324346144;0.8885480911254883;8.274660212707518;5.9552772083006795
1445509942512;70.42940120005683;-43.17855770329566;169.01792324346144;0.8885480911254883;8.274660212707518;5.9552772083006795
1445509942549;66.73568270385928;-46.44002403660597;156.87361362761996;0.9487022617064416;7.224503546054102;3.719093003845215
1445509942582;65.0005355287504;-49.42363597026155;144.9512946236844;2.538152888842672;8.552238186877593;2.898480530957132
1445509942619;65.0005355287504;-49.42363597026155;144.9512946236844;2.538152888842672;8.552238186877593;2.898480530957132
1445509942656;65.49092272335393;-53.458172262944245;135.82875921862288;6.2104094688415525;9.532214488574116;2.0183119995117185
1445509942691;64.35883343185058;-57.70836356544059;127.79376442375597;6.667552348327637;10.018985905865579;0.3721487205505371
1445509942725;59.1770971487728;-59.81323097717922;119.59074062713476;6.129904584149271;8.689006463523674;2.474108186229737
1445509942762;59.1770971487728;-59.81323097717922;119.59074062713476;6.129904584149271;8.689006463523674;2.474108186229737
1445509942800;55.410934399960404;-59.34234728894329;110.85382410763812;3.188926973724365;5.045480723571777;2.620902629852295
1445509942835;54.565481286133355;-57.97208070726919;105.21086821333724;3.474435229437053;2.3683143547058103;1.0838250909667462
1445509942871;54.565481286133355;-57.97208070726919;105.21086821333724;3.474435229437053;2.3683143547058103;1.0838250909667462
1445509942909;55.013879052492435;-56.18535567177752;102.98940820398168;3.2384570205688474;2.9510031837463377;1.5218144119705073
1445509942943;56.384453898073374;-55.10092249210066;102.94666479886726;2.6027964797973633;5.283853718622028;1.372925023629004
1445509942978;57.824627778290505;-55.48963781031496;103.29173098052615;4.950311207580566;8.91765284993276;1.7691653161864727
1445509943012;57.824627778290505;-55.48963781031496;103.29173098052615;4.950311207580566;8.91765284993276;1.7691653161864727
1445509943047;59.068715873343784;-57.84995464099158;102.95594584136066;7.3660606826782224;13.041216442871093;1.9228432083129883
1445509943080;57.90681747197844;-62.03851504406042;98.91183432842323;12.699145172937214;18.338387615966795;-0.4337994132995605
1445509943117;57.90681747197844;-62.03851504406042;98.91183432842323;12.699145172937214;18.338387615966795;-0.4337994132995605
1445509943156;52.676128894539076;-65.6202253665224;89.22925656201595;6.195296216992288;14.461576577758787;-0.8952818152607185
1445509943191;49.805820174409156;-68.32056032050367;83.45677708345285;5.172672540637105;13.596820865631102;1.1683703736236317
1445509943225;58.541610649381575;-68.83494106950452;90.6390044926532;3.8269815882918423;6.836942261914164;0.08020575561523437
1445509943262;58.541610649381575;-68.83494106950452;90.6390044926532;3.8269815882918423;6.836942261914164;0.08020575561523437
1445509943299;70.7823939675123;-67.56213164587278;101.69378279579925;2.225709718322754;8.88667823128067;1.472134745788574
1445509943334;81.76917195644342;-65.28108058575991;112.69938847032459;1.304989542388916;7.622838664599508;-0.7077858657836914
1445509943369;81.76917195644342;-65.28108058575991;112.69938847032459;1.304989542388916;7.622838664599508;-0.7077858657836914
1445509943407;88.41404215665997;-63.65755116223501;118.88713436085072;-0.5811924530029297;8.171110917840526;0.91533314913325
1445509943441;96.71399919584725;-63.128882217716786;126.2840171046013;0.8646060745239257;9.857377001544087;2.3804349458114245
1445509943477;105.44764628393297;-62.32719076181154;131.97129091162236;-0.280271231842041;7.470806713049114;0.8931870029725134
1445509943515;105.44764628393297;-62.32719076181154;131.97129091162236;-0.280271231842041;7.470806713049114;0.8931870029725134
1445509943553;113.69537481335854;-62.16732901853751;135.62357145190032;-0.6519710395812988;6.534674156188965;0.5855319435119628
1445509943587;123.13561879941028;-63.01009110633953;140.94586806881009;0.4837783729553222;7.547571022973582;0.7631517791748046
1445509943625;123.13561879941028;-63.01009110633953;140.94586806881009;0.4837783729553222;7.547571022973582;0.7631517791748046
1445509943660;141.48825192666462;-65.77364660710262;147.01282035427786;1.215506255340576;8.793603239883296;0.15532383270263672
1445509943696;141.48825192666462;-65.77364660710262;147.01282035427786;1.215506255340576;8.793603239883296;0.15532383270263672
1445509943729;149.79934690471765;-67.70075431009856;138.26306915280355;3.5947443012513216;10.511443113708495;3.238606548574753
1445509943767;149.79934690471765;-67.70075431009856;138.26306915280355;3.5947443012513216;10.511443113708495;3.238606548574753
1445509943805;152.91709307861632;-66.9365124121874;133.12260313953234;1.3958195678710936;10.599429732458292;2.6625017786662326
1445509943839;158.05563569133506;-67.77034469257235;132.6774345905504;1.15565121383667;9.517400694595462;3.3604116676330564
1445509943875;158.05563569133506;-67.77034469257235;132.6774345905504;1.15565121383667;9.517400694595462;3.3604116676330564
1445509943913;165.78879826217164;-68.67994315542786;134.81731570767965;1.457320549951121;8.874108672564848;3.8257847614564
1445509943947;171.67899956831766;-68.579486210086;133.62005976571427;3.4023101236205546;6.1845221633911125;3.179050745745748
1445509943981;173.2152137935214;-67.98751034598854;127.5612655856952;3.6958990291319784;5.533149381963908;3.0138510503906755
1445509944019;173.2152137935214;-67.98751034598854;127.5612655856952;3.6958990291319784;5.533149381963908;3.0138510503906755
1445509944053;171.71016255324844;-67.54865597418443;120.28465475065964;1.5607203533448277;9.814281444726511;5.549460173034667
1445509944088;171.1873152914258;-67.46395826513647;115.01959071522748;1.4134766589842735;14.2618103767395;0.12988544006347655
1445509944124;171.1873152914258;-67.46395826513647;115.01959071522748;1.4134766589842735;14.2618103767395;0.12988544006347655
1445509944162;174.87347296128897;-68.32048733967439;113.59754216932036;3.0963011873992157;6.847566385650635;-0.18525135345458985
1445509944199;176.8054227390903;-68.06595316511086;108.41011061379774;5.480477091570943;10.709114388275147;1.80029001083374
1445509944232;180.71099496772823;-67.04585499799971;104.4216450230293;5.0309658760070795;9.394847204855271;-0.5822398431640118
1445509944269;180.71099496772823;-67.04585499799971;104.4216450230293;5.0309658760070795;9.394847204855271;-0.5822398431640118
1445509944307;183.0547436787225;-67.25160358355028;99.78022484460315;5.150676105145365;8.07324770578593;1.3446435073852538
1445509944341;183.4313360064159;-67.52090232773828;94.54219081211494;5.146486252240091;8.029254761737212;1.5562310973678715
1445509944379;185.02470515231067;-67.430016746902;91.75222881117307;3.76877282928653;8.535478665658644;2.7985225933793
1445509944416;185.02470515231067;-67.430016746902;91.75222881117307;3.76877282928653;8.535478665658644;2.7985225933793
1445509944454;189.02013854633702;-67.52384222027922;92.00209288180156;4.268113262441941;7.295282242230326;2.0166659493377432
1445509944490;193.1569247050315;-67.41899735943872;92.84240863105657;4.345326485177688;7.2063973594665525;2.4498668487548825
1445509944525;193.1569247050315;-67.41899735943872;92.84240863105657;4.345326485177688;7.2063973594665525;2.4498668487548825
1445509944562;197.6290842995609;-67.13306631217338;94.11655778812414;4.618863988317922;6.602460282953083;1.160738910630811
1445509944600;203.34398513952914;-66.9197954545452;96.62063416210863;4.4011412017822265;6.578218552752584;1.394323191833496
1445509944634;213.71331717413113;-66.71365081443632;106.49769196411296;3.5001731895446775;7.014113038635253;3.2591069368224588
1445509944669;213.71331717413113;-66.71365081443632;106.49769196411296;3.5001731895446775;7.014113038635253;3.2591069368224588
1445509944704;232.70323172998306;-63.47604818046101;128.56423209853125;2.565536789526418;6.499509173174947;2.4594435640639625
1445509944740;248.7807326247127;-59.0381641516213;147.7550588324057;1.4971242986816913;11.27803626550883;0.3389291725158691
1445509944776;248.7807326247127;-59.0381641516213;147.7550588324057;1.4971242986816913;11.27803626550883;0.3389291725158691
1445509944812;255.37488890761378;-55.11343343106025;155.9032259859041;1.1219827529907227;12.214318752233684;4.358194990307465
1445509944850;257.57596731224845;-55.52673564145351;153.37960613632822;2.2771851270813492;5.88150616190806;5.696404153796285
1445509944885;255.05322705353973;-58.91978751116791;147.5961836674748;1.0311525813780724;2.477699443054199;6.056282883099466
1445509944919;255.05322705353973;-58.91978751116791;147.5961836674748;1.0311525813780724;2.477699443054199;6.056282883099466
1445509944955;251.43493574299677;-64.12040589737308;137.5600489157505;3.878008139038086;9.491064220605418;5.531503660583496
1445509944990;245.0316872494702;-66.39652123602575;121.63992908118747;6.89530078125;11.141716993005573;8.18921699483022
1445509945025;245.0316872494702;-66.39652123602575;121.63992908118747;6.89530078125;11.141716993005573;8.18921699483022
1445509945062;238.37871988057609;-65.44549777877945;113.78395823603651;-2.2462103622987866;-2.139967371368408;-8.98214665715322
1445509945100;236.66770923829452;-68.31882666295752;115.62481739839824;7.818864071655273;17.439664167785644;6.034734775897115
1445509945133;240.49468496619832;-68.3272622688602;116.6895532197844;6.481253531646728;7.672668278912455;3.2044892845153807
1445509945171;240.49468496619832;-68.3272622688602;116.6895532197844;6.481253531646728;7.672668278912455;3.2044892845153807
1445509945208;242.20377406149055;-67.33177892731356;117.72241096541592;6.468384697723388;11.429768795721232;3.923049057769775
1445509945241;250.02724874549634;-67.47139310680676;129.06814893552402;7.4691609916687005;9.76789386062622;8.219443936920166
1445509945275;267.20413432868247;-62.49096874024598;150.6690882560585;0.30481179885864257;12.417676548004149;4.54224957172554
1445509945312;267.20413432868247;-62.49096874024598;150.6690882560585;0.30481179885864257;12.417676548004149;4.54224957172554
1445509945350;278.1670204183121;-55.52912888933124;166.5748832193862;0.787243469912745;-1.7135002006530762;-2.0670938583374023
1445509945384;281.1759115275354;-51.25248639156208;172.32766927132525;-0.24031799163818357;8.881141274615377;3.890128638812154
1445509945422;281.1759115275354;-51.25248639156208;172.32766927132525;-0.24031799163818357;8.881141274615377;3.890128638812154
1445509945460;281.1759115275354;-51.25248639156208;172.32766927132525;-0.24031799163818357;8.881141274615377;3.890128638812154
1445509945494;275.8821954142308;-63.722816620036134;159.43343246685495;3.1925182762145994;6.489034394781291;11.42109010696411
1445509945528;265.6460268774433;-66.95819388992537;142.63140848061357;10.91426725076884;9.29144745626049;4.4921207187376915
1445509945564;265.6460268774433;-66.95819388992537;142.63140848061357;10.91426725076884;9.29144745626049;4.4921207187376915
1445509945599;251.2429961275842;-66.48667563946186;131.3546466400193;-5.021688636834919;-4.10575598743856;-6.2761003768920895
1445509945633;257.8961449545457;-71.29154671027182;142.7525068006258;12.407052278137206;34.477702176123856;18.70260583577901
1445509945671;257.8961449545457;-71.29154671027182;142.7525068006258;12.407052278137206;34.477702176123856;18.70260583577901
1445509945710;257.65278919737415;-69.61107559466858;138.2579993494332;8.710254984991252;17.20652878112793;9.997587582397461
1445509945746;257.6343228898569;-68.17296515881984;141.217042442453;4.984428581237792;9.73542271980606;4.21214876210317
1445509945780;260.5788283184839;-67.09744080393335;147.69717684148802;4.550329892730713;10.01539453031011;6.728454853057861
1445509945817;260.5788283184839;-67.09744080393335;147.69717684148802;4.550329892730713;10.01539453031011;6.728454853057861
1445509945854;271.72693572763507;-61.82215239831436;162.29887313853303;-1.2123638656616211;13.267768067224322;3.2460886114258316
1445509945889;279.10797479261345;-55.48057985515343;172.87805409438164;0.04638765716552734;-0.5784989761352539;-0.013617021942138671
1445509945925;279.10797479261345;-55.48057985515343;172.87805409438164;0.04638765716552734;-0.5784989761352539;-0.013617021942138671
1445509945961;279.8504883278211;-52.273293613767734;176.61890004874536;0.9249100288391112;8.01518833379345;0.2985270195007324
1445509945998;280.37330260421794;-53.01653640864832;176.28343728865102;-1.23106860266421;11.342530364990234;3.00068286819458
1445509946032;275.3056586257931;-59.14547796056324;167.87218720647294;-0.7962216896057128;5.687725026647747;4.02480292058736
1445509946069;275.3056586257931;-59.14547796056324;167.87218720647294;-0.7962216896057128;5.687725026647747;4.02480292058736
1445509946104;268.22223523954216;-67.16697474088967;156.02635230792498;3.9854479385375976;7.87662404057607;8.893261774389446
1445509946139;257.5703554996685;-70.64338082051879;138.9811273469148;6.187664406939596;4.750545006561279;5.491550420379638
1445509946175;257.5703554996685;-70.64338082051879;138.9811273469148;6.187664406939596;4.750545006561279;5.491550420379638
1445509946213;247.10369875410709;-71.18078799155806;129.51824678752445;-6.673986473028362;9.459340957276803;-9.207051829473674
1445509946250;261.1486122698553;-72.71309691782584;148.42931409377718;14.019098475702107;6.284779357910156;-11.531971863611043
1445509946284;256.0431080170617;-70.86596046707307;140.03658995394917;3.5966894439697263;11.846510106714069;-1.614589744567871
1445509946322;256.0431080170617;-70.86596046707307;140.03658995394917;3.5966894439697263;11.846510106714069;-1.614589744567871
1445509946361;260.4639409894341;-69.55195739698276;149.82928205190757;5.497236503192037;11.544241708727926;8.657732770593464
1445509946396;273.32743633996034;-64.17950449118636;164.45780082321596;0.27398645248413084;12.683133949334918;3.5664626114776357
1445509946429;280.09171707945256;-56.74816321245517;175.625277962884;2.147149939816259;1.0657190139770507;-2.286163310241699
1445509946467;280.09171707945256;-56.74816321245517;175.625277962884;2.147149939816259;1.0657190139770507;-2.286163310241699
1445509946503;281.1786902509608;-52.699979233459175;179.64112113425318;0.5735609306446043;6.7769375828064975;1.066168219049275
1445509946539;281.15384629467525;-52.558408154416085;179.34108440979196;-1.1776479233230464;9.65357073135376;3.2273841301515698
1445509946575;281.15384629467525;-52.558408154416085;179.34108440979196;-1.1776479233230464;9.65357073135376;3.2273841301515698
1445509946613;276.56029892895333;-58.564552244776685;172.12084633655462;-0.4171896392822265;8.760832531594671;3.8576572057310488
1445509946651;269.6313525383111;-67.30917307253968;161.01619077946367;0.2980780336242169;4.039616751098633;6.4728738258361815
1445509946686;259.8849988790687;-75.16979129216337;143.19610287762043;11.121665407971292;10.816703825378417;9.080009796142578
1445509946724;259.8849988790687;-75.16979129216337;143.19610287762043;11.121665407971292;10.816703825378417;9.080009796142578
1445509946759;250.79644308358056;-75.09216333879411;136.05484950910994;-6.868366158703714;6.411073495483398;-10.767622691345213
1445509946793;271.98882713782547;-76.64105167204198;161.46545416914148;21.89946382169835;12.35093846898824;-3.1150058513365684
1445509946827;265.3269952784066;-75.53677059228097;151.1203631284791;3.1821932815551754;12.685378513391315;-0.7953238639831542
1445509946865;265.3269952784066;-75.53677059228097;151.1203631284791;3.1821932815551754;12.685378513391315;-0.7953238639831542
1445509946903;267.87086075881535;-75.87295486780364;158.5158879323961;4.27963539446406;10.13001671559438;6.618321576690674
1445509946938;276.625099518317;-73.01530444481266;166.08199206571408;2.6885387536864727;11.790545350646973;8.920346180669963
1445509946974;276.625099518317;-73.01530444481266;166.08199206571408;2.6885387536864727;11.790545350646973;8.920346180669963
1445509947012;286.60184217289446;-64.15043194936045;179.1796108429342;0.8429086265453369;7.4438723827637725;-4.240729690551758
1445509947050;285.4614958979207;-58.852182794491206;-176.88516119780536;-2.0368669893126934;-2.394949848175049;2.3318027793884277
1445509947084;286.0279204412085;-56.25367618783627;-174.3888618565276;1.9364603033203631;11.140220032446086;3.045723786926269
1445509947122;286.0279204412085;-56.25367618783627;-174.3888618565276;1.9364603033203631;11.140220032446086;3.045723786926269
1445509947159;278.71291274630653;-64.60315330554364;176.40597476207196;-3.542819888349902;6.000467618505656;2.3594855899535117
1445509947196;278.71291274630653;-64.60315330554364;176.40597476207196;-3.542819888349902;6.000467618505656;2.3594855899535117
1445509947230;271.01392141457876;-77.4416200207769;153.37216190374485;7.7944729230467225;15.218892490386962;11.74355943532735
1445509947268;271.01392141457876;-77.4416200207769;153.37216190374485;7.7944729230467225;15.218892490386962;11.74355943532735
1445509947304;266.4875211818744;-75.572808012308;149.3122480521038;-1.1367968757629394;13.390919522857665;-11.920880141913145
1445509947339;262.7371769720938;-78.14318484479057;145.90037716339168;6.5610105205811555;18.579004882812498;-10.330531689154355
1445509947375;262.7371769720938;-78.14318484479057;145.90037716339168;6.5610105205811555;18.579004882812498;-10.330531689154355
1445509947412;245.91385707388497;-81.75132314860541;126.90506088238592;-3.2155625402588397;12.925846142633258;-1.8442834663391112
1445509947445;228.93424467696488;-84.63202796885425;107.74625959865425;2.485330887780711;10.032902002085837;-3.8263830561431122
1445509947479;174.8776256578325;-85.25798117014546;49.612491071503754;1.7622820594787596;7.997232095336914;-0.13587094421386717
1445509947517;174.8776256578325;-85.25798117014546;49.612491071503754;1.7622820594787596;7.997232095336914;-0.13587094421386717
1445509947555;142.35521637643834;-82.7167336962485;14.442701582100725;1.3178583763122558;7.006331883239746;2.269703246893361
1445509947590;125.1471277127446;-80.44532034559458;-6.403053986959311;4.390516931915283;9.518148444222845;2.9248167492188513
1445509947625;125.1471277127446;-80.44532034559458;-6.403053986959311;4.390516931915283;9.518148444222845;2.9248167492188513
1445509947663;113.58932484358593;-81.35120725846103;-20.27921924886619;6.337601395504735;9.948506503163184;5.098751710510253
1445509947699;62.234617883729406;-86.29693323645004;-68.8769427548542;0.10758943710327148;14.902708233642578;4.616768970533739
1445509947734;329.0049911548991;-77.10459833041539;-158.48634014562555;-6.484994764001667;21.1708778175354;-1.5671546241760252
1445509947771;329.0049911548991;-77.10459833041539;-158.48634014562555;-6.484994764001667;21.1708778175354;-1.5671546241760252
1445509947809;327.82319139223995;-68.53085418606453;-156.1201874171324;2.7009587478637695;22.04625721500814;3.2383073281661607
1445509947846;312.839572327226;-62.408667716085425;-166.60670117651654;-5.489605058465525;5.239411350305378;-1.9858406394958494
1445509947880;306.95257814944836;-58.901365830691496;-168.02294712932286;-1.453729320526123;-2.845658310699463;-2.1799206115722654
1445509947917;306.95257814944836;-58.901365830691496;-168.02294712932286;-1.453729320526123;-2.845658310699463;-2.1799206115722654
1445509947950;306.2319867870231;-59.39151185485849;-165.79371547064693;-1.124227317047119;-3.2365117317199705;-2.351255667877197
1445509947984;308.7633534382135;-64.53807078686928;-163.90056013016707;-2.3295582153320313;-0.381126976776123;0.3124433166503906
1445509948021;308.7633534382135;-64.53807078686928;-163.90056013016707;-2.3295582153320313;-0.381126976776123;0.3124433166503906
1445509948058;316.63374298190706;-71.94624553556524;-161.5579077101177;1.2780547737121581;12.492346004541217;4.160673426409811
1445509948091;323.9832898703354;-77.26983615559962;-158.96324654753928;2.218227911200002;9.418939142188382;3.8130654190063473
1445509948125;306.13755374179874;-80.18153349230204;-172.51542854759577;0.3721487205505371;-8.026710703277587;-3.9998130023680627
1445509948163;306.13755374179874;-80.18153349230204;-172.51542854759577;0.3721487205505371;-8.026710703277587;-3.9998130023680627
1445509948202;319.95133035677753;-81.02032681457071;-158.45753071601084;-14.011017935501224;34.64185287388265;18.72609820891693
1445509948237;325.306025238417;-78.76896467650035;-153.84374054642643;2.559102153369039;17.12288136062622;11.576413355144858
1445509948275;325.306025238417;-78.76896467650035;-153.84374054642643;2.559102153369039;17.12288136062622;11.576413355144858
1445509948312;314.55648501903;-75.88795091099279;-165.50552793642433;-0.8348281731094234;9.662997662928607;3.9920319931030273
1445509948349;314.3263328993293;-69.21564454525591;-165.4190679828191;-1.2620435501098632;15.395764138031005;6.798934164428711
1445509948383;312.23020100185636;-56.9728961553817;-164.63871313148422;0.7947253135681152;6.443544709368795;-5.055506443023681
1445509948420;312.23020100185636;-56.9728961553817;-164.63871313148422;0.7947253135681152;6.443544709368795;-5.055506443023681
1445509948458;311.5131509617043;-49.51099074806493;-162.71320224605972;-3.2980127868652342;0.9388263259887695;1.4107830359861253
1445509948492;311.65923043629664;-49.23532159488705;-163.11278085477556;-5.25931271321401;5.832574373217672;3.0852281143188476
1445509948526;311.502326730284;-55.95698036997828;-166.26550859155543;-0.6186019270081072;4.7141827765867115;2.631825882665813
1445509948566;311.502326730284;-55.95698036997828;-166.26550859155543;-0.6186019270081072;4.7141827765867115;2.631825882665813
1445509948604;316.2788392479277;-66.99619526006599;-163.15809312110997;-0.0704793113708496;6.55367783960551;3.783287453659763
1445509948639;328.9623435564581;-78.61652978344745;-158.01378140975413;7.133075006689503;29.155539769634604;8.946084286908059
1445509948675;328.9623435564581;-78.61652978344745;-158.01378140975413;7.133075006689503;29.155539769634604;8.946084286908059
1445509948710;312.4536684289144;-81.03588105365768;-170.4598270628036;-2.6716297957931645;-2.5462328810542822;1.6377835457511711
1445509948748;329.8344976000572;-80.23456336775087;-151.89938119751994;-12.044181381280719;18.121113815307616;9.212289291735738
1445509948782;322.46845177361774;-79.82402310529775;-161.16068445150466;-6.493822980764694;8.880243887384236;2.5870845314025877
1445509948820;322.46845177361774;-79.82402310529775;-161.16068445150466;-6.493822980764694;8.880243887384236;2.5870845314025877
1445509948857;317.08145267634126;-79.17873098175822;-163.03264636510775;2.0130748295105994;10.280552144976705;-1.8158524677552281
1445509948892;317.1700579509059;-76.73808052998679;-160.70013703325577;1.712303172888234;13.706654866790771;8.922591036987304
1445509948930;310.83890523379296;-56.056738682950254;-161.13020099157947;3.1865327720642087;2.6198551666259764;-7.767388735961914
1445509948965;310.83890523379296;-56.056738682950254;-161.13020099157947;3.1865327720642087;2.6198551666259764;-7.767388735961914
1445509949001;310.83890523379296;-56.056738682950254;-161.13020099157947;3.1865327720642087;2.6198551666259764;-7.767388735961914
1445509949035;310.8910713643604;-54.509346470131206;-159.51971039481896;-2.230947089253273;7.925106774891284;2.303371926935017
1445509949074;310.8910713643604;-54.509346470131206;-159.51971039481896;-2.230947089253273;7.925106774891284;2.303371926935017
1445509949110;313.95992311218663;-61.535372275661125;-157.18507260283377;-5.859808563232422;6.935702934265136;0.6763619689941406
1445509949147;324.3231519967114;-72.52516568293363;-149.44111235657147;-1.4169184060691389;16.52148783111572;8.930671759851275
1445509949180;321.9905453638888;-76.82511537717667;-150.9255517593358;2.5384523101806638;2.683900061035156;8.645013428143411
1445509949216;321.9905453638888;-76.82511537717667;-150.9255517593358;2.5384523101806638;2.683900061035156;8.645013428143411
1445509949254;327.26980599791494;-78.09392846350633;-147.98300088783895;-8.5990747568544;13.04929687347412;-5.5467668422974645
1445509949288;324.734356436767;-75.87206555946507;-149.77680338934994;3.3378163894653317;5.195417894800007;-4.752340657806396
1445509949325;324.734356436767;-75.87206555946507;-149.77680338934994;3.3378163894653317;5.195417894800007;-4.752340657806396
1445509949362;319.4503009954835;-75.22129251490284;-154.54426975096558;-0.06643909606933593;12.67610039743632;-0.2633623287476599
1445509949399;317.8713340128315;-72.95807924871998;-153.86429699630875;1.3955202926635741;10.370783620043843;8.141332815496623
1445509949433;313.04892351210384;-65.06446291464101;-160.53044898200835;-2.0204068528991193;13.765612082672119;5.88000963973999
1445509949471;313.04892351210384;-65.06446291464101;-160.53044898200835;-2.0204068528991193;13.765612082672119;5.88000963973999
1445509949509;308.390273447213;-56.740319766491254;-160.9801828702806;0.4873696754455566;1.022773021697998;-5.914425704082847
1445509949546;307.0984135932259;-54.09568210467456;-159.7044268185958;-1.7357962218795902;9.569324614306538;-3.192967189025879
1445509949580;308.8173573943142;-57.43857015011457;-161.56614694804878;-4.075230500793457;9.519046817834674;2.089539791162312
1445509949614;308.8173573943142;-57.43857015011457;-161.56614694804878;-4.075230500793457;9.519046817834674;2.089539791162312
1445509949650;311.4837091185132;-65.3604935980962;-161.73377132043353;-3.662230714416504;7.319223966570943;0.30705636291503907
1445509949684;322.180007558113;-75.40986667065987;-151.84175524942114;0.12958616485595703;14.755165556335449;10.080187685803324
1445509949720;322.180007558113;-75.40986667065987;-151.84175524942114;0.12958616485595703;14.755165556335449;10.080187685803324
1445509949758;312.6985656367073;-78.21514205645951;-160.1964508005229;5.234323525647073;-0.5931634613037109;9.994295701245218
1445509949791;319.0364495050723;-78.7539916300027;-159.38461592611557;-10.677092014135793;24.37671384048462;8.147169266565143
1445509949828;318.35466161559475;-76.39487458453182;-157.1355673305606;-4.2727522838868195;12.977920028741657;8.091803353174031
1445509949867;318.35466161559475;-76.39487458453182;-157.1355673305606;-4.2727522838868195;12.977920028741657;8.091803353174031
1445509949905;312.8342069217188;-74.32296208609596;-162.08246822208488;-0.10863690032958984;12.65709700628072;6.7191773216247555
1445509949940;311.6212900592884;-67.91894780190157;-163.8707437119721;-0.5383960983276367;11.516110277612507;6.076633451080322
1445509949975;311.6212900592884;-67.91894780190157;-163.8707437119721;-0.5383960983276367;11.516110277612507;6.076633451080322
1445509950012;310.0676372500188;-57.79117569189304;-164.85143794716603;1.0319009155273438;7.4266636199399825;-2.5335142692565915
1445509950050;308.28645574343466;-52.1734850977663;-162.42785455353015;-2.918831025872752;-4.742315522876382;2.137722515051067
1445509950085;309.209604661422;-51.8844488394544;-161.28834419808203;-3.4735376960754394;10.906337042291462;2.605490248925984
1445509950123;309.209604661422;-51.8844488394544;-161.28834419808203;-3.4735376960754394;10.906337042291462;2.605490248925984
1445509950159;310.4816789329452;-57.35992015267317;-163.1204431429975;-3.9618051971435544;10.815656069891155;1.911471042688191
1445509950192;316.641080795668;-65.81746618096992;-159.58292040963318;-3.5776854682922363;4.839878656005859;3.0910640539307144
1445509950225;326.1269068790493;-75.91151513286485;-154.72645384865535;10.281150403130798;21.89228012073934;11.999739012964069
1445509950264;326.1269068790493;-75.91151513286485;-154.72645384865535;10.281150403130798;21.89228012073934;11.999739012964069
1445509950302;311.48295477245443;-78.62117060876253;-168.4279641460366;0.669777950961329;-1.038485554614663;2.2364835527282207
1445509950336;317.35023526386294;-78.72400223859553;-164.32806703228331;-10.324845021820067;21.810578573608396;12.630461074420063
1445509950372;317.35023526386294;-78.72400223859553;-164.32806703228331;-10.324845021820067;21.810578573608396;12.630461074420063
1445509950410;316.00644984068254;-76.71432116824614;-165.1587657395838;-6.045807995107956;9.536404279259775;6.23764351272583
1445509950445;311.1782849515292;-75.92033381945261;-169.3724127285591;1.8384475632598622;18.110190270233154;2.4922143088852056
1445509950479;311.41684433968913;-74.59093956887025;-167.94228646677166;0.5813420906066894;6.366182214355469;3.0558991074493154
1445509950514;311.41684433968913;-74.59093956887025;-167.94228646677166;0.5813420906066894;6.366182214355469;3.0558991074493154
1445509950553;311.923781905439;-64.6058745602589;-168.00538025943595;-2.063352918243408;8.790610615672264;5.802198085784911
1445509950588;311.0162378641922;-55.53217478165621;-167.0701067420838;-0.4219779695373028;11.406575259399414;-0.47330374069213865
1445509950624;311.0162378641922;-55.53217478165621;-167.0701067420838;-0.4219779695373028;11.406575259399414;-0.47330374069213865
1445509950661;309.5788733839823;-50.788707990442035;-166.1184862899628;-1.649006411698926;11.863867776489258;3.3649005034849044
1445509950699;307.21637869781125;-50.75916214055194;-168.03869055347855;-6.218040986633301;5.199008905029297;5.52955815253891
1445509950733;306.8091778260868;-55.23548417400559;-169.67496512506327;-2.397044847692922;3.388244261932373;0.38666356811523434
1445509950772;306.8091778260868;-55.23548417400559;-169.67496512506327;-2.397044847692922;3.388244261932373;0.38666356811523434
1445509950808;313.25179270288726;-62.99646255631737;-167.374491827153;-2.7488427810668945;4.0765775314882395;-0.7311293319702148
1445509950846;328.0886156734765;-71.43321184347542;-158.0066782707032;-0.7504325463226065;14.732121365356445;4.954201931408792
1445509950879;330.3531034729356;-75.39153741439571;-158.31834121474657;2.1528360591612756;7.822305736541748;12.686276485144345
1445509950917;330.3531034729356;-75.39153741439571;-158.31834121474657;2.1528360591612756;7.822305736541748;12.686276485144345
1445509950954;323.36594200449537;-75.72685889178697;-171.47583000195888;-2.3256676741668953;5.037549930572509;-0.500537784576416
1445509950988;327.5712861356178;-76.81996136732745;-168.54333041978765;-8.067412241098099;16.0745203086853;5.00058958857432
1445509951025;327.5712861356178;-76.81996136732745;-168.54333041978765;-8.067412241098099;16.0745203086853;5.00058958857432
1445509951063;319.727880750472;-81.53374799453265;-178.16271528040068;-5.466111972941551;15.098284581756591;4.724208934430033
1445509951099;308.2637046306204;-83.1051770344404;169.15953497828036;-7.481581077177543;15.788113935089111;-0.4332008628845215
1445509951133;309.5404484686502;-84.77723332338408;164.57810442621252;0.7727285675491206;13.271359077453612;-7.565378190081939
1445509951171;309.5404484686502;-84.77723332338408;164.57810442621252;0.7727285675491206;13.271359077453612;-7.565378190081939
1445509951209;299.6185018362375;-87.24714547114026;147.94336482126613;-1.6627729981795885;10.862343294525147;-1.4879963317871092
1445509951245;292.79122170241317;-88.81164177052219;134.31357520303465;1.1513117415939458;7.860313980157673;-1.5958850623642094
1445509951278;246.52965267017763;-89.24304225462072;79.64587222477984;1.484704350170167;7.840860945538431;-1.346289498193725
1445509951313;246.52965267017763;-89.24304225462072;79.64587222477984;1.484704350170167;7.840860945538431;-1.346289498193725
1445509951349;248.39164007306735;-89.54292789374679;74.06706771804836;1.390283022197755;8.535927322741598;-0.9564835381162469
1445509951383;16.781124536113253;-89.42383619081642;-164.25680728620668;1.2668320059458142;9.990854054625052;-1.403002218517335
1445509951421;16.781124536113253;-89.42383619081642;-164.25680728620668;1.2668320059458142;9.990854054625052;-1.403002218517335
1445509951458;38.38227413036064;-88.30416341558764;-149.69513577590024;-0.08634089736938476;10.533140712384133;-0.35778351058959956
1445509951493;38.19467710735319;-87.11556248484388;-157.4552903997241;0.5672761375869624;10.140640948928706;1.0856208152770996
1445509951526;40.64435624118599;-84.71996800486623;-162.18719312921567;1.1903671013763173;12.005125382177532;0.4676174752166494
1445509951564;40.64435624118599;-84.71996800486623;-162.18719312921567;1.1903671013763173;12.005125382177532;0.4676174752166494
1445509951599;41.49964640998386;-80.21896629226235;-167.787956743134;1.522113778509572;12.277466405542194;1.982847850888036
1445509951634;43.84662874993922;-73.7131159521365;-171.02445490162646;-2.3350948432037604;11.745953198596089;2.7817630127948476
1445509951672;43.84662874993922;-73.7131159521365;-171.02445490162646;-2.3350948432037604;11.745953198596089;2.7817630127948476
1445509951710;49.0673818048955;-65.90353137651348;-169.37015264916104;-1.2638391648223624;11.861174007360637;1.6561891445435584
1445509951745;54.9525285827012;-58.48552954243655;-167.29037915441336;-0.3516483688354492;13.07518417892456;3.487005226544291
1445509951778;59.81780652076799;-50.887195300889175;-163.87896524807414;-0.8625110750060528;8.878298160143942;7.5795933971129354
1445509951816;59.81780652076799;-50.887195300889175;-163.87896524807414;-0.8625110750060528;8.878298160143942;7.5795933971129354
1445509951851;65.86003368482243;-41.9039535696289;-158.92393654328717;-4.915296154431253;5.961113403640874;5.386355184936523
1445509951886;72.91275956032888;-32.48059752835256;-153.5179275770375;-2.5363573837280273;7.061996779577433;5.780650124713033
1445509951922;72.91275956032888;-32.48059752835256;-153.5179275770375;-2.5363573837280273;7.061996779577433;5.780650124713033
1445509951958;78.22360761441186;-23.668630015403885;-151.46977256143632;-2.2511479648314414;4.612579062829539;7.68703352540601
1445509951995;82.26680221786857;-16.249256981394964;-149.54153245160356;-2.2471078956604003;2.409015819461085;6.5105823558531695
1445509952029;85.47927992504377;-11.217620977783037;-147.8615571195616;-2.374299566595256;-0.5198410354614258;5.475090283966064
1445509952067;85.47927992504377;-11.217620977783037;-147.8615571195616;-2.374299566595256;-0.5198410354614258;5.475090283966064
1445509952100;88.36057928338266;-9.434481938515436;-146.58299715875367;-2.445227790777385;-1.1827357662476599;4.699817566625773
1445509952135;90.9945351745828;-10.274066485907268;-146.1782826524003;-4.024503499249368;-0.8613139011107385;7.003189785821736
1445509952175;90.9945351745828;-10.274066485907268;-146.1782826524003;-4.024503499249368;-0.8613139011107385;7.003189785821736
1445509952212;95.72966076492382;-13.36748346327331;-146.50812432766693;-7.940818718719482;7.19966352116689;11.876736902673542
1445509952251;95.72966076492382;-13.36748346327331;-146.50812432766693;-7.940818718719482;7.19966352116689;11.876736902673542
1445509952285;96.04210296479698;-9.026213560785846;-148.09204008719655;-4.703409124844335;-0.7052420265197753;7.626878879901021
1445509952324;96.04210296479698;-9.026213560785846;-148.09204008719655;-4.703409124844335;-0.7052420265197753;7.626878879901021
1445509952362;96.00322873560876;-6.946685166137943;-148.14592016783175;-5.090072496596747;-0.4896142395019531;6.664409812518209
1445509952400;96.45844762079533;-5.422478133816418;-148.92454551566647;-4.739621406687889;0.20919337005615232;7.853131009851023
1445509952435;97.1103414133256;-3.748219420000186;-149.84188185250775;-4.45964921259135;0.398335282942187;7.923161225747503
1445509952470;97.1103414133256;-3.748219420000186;-149.84188185250775;-4.45964921259135;0.398335282942187;7.923161225747503
1445509952505;97.71315748905283;-1.5766517729250953;-150.5996072618929;-5.21965896741338;0.005536591339111328;7.742249545465037
1445509952546;98.24248139361463;0.7421546650050374;-151.38719307490436;-6.002113924407959;-0.5843348335487302;7.550264572906494
1445509952580;99.06238075899729;3.1062848989685747;-152.61673767136855;-4.494365446049225;-1.8994997786590828;8.620622252135398
1445509952618;99.06238075899729;3.1062848989685747;-152.61673767136855;-4.494365446049225;-1.8994997786590828;8.620622252135398
1445509952653;100.49777278729167;4.900736313350471;-153.72059436002476;-3.8081274876801294;-3.4775779113769527;10.702380403845012
1445509952688;101.91026670152371;4.27684856359579;-153.36428080143526;-6.7681089641846714;-4.847360609259083;12.317269715881347
1445509952724;101.91026670152371;4.27684856359579;-153.36428080143526;-6.7681089641846714;-4.847360609259083;12.317269715881347
1445509952759;102.30927686581316;0.4937238662960383;-152.59315117589296;-7.510610607910156;-1.802983505967725;12.230180338232218
1445509952792;102.0521262018152;-6.308102398253071;-152.338218174613;-7.119457911682129;2.2390274650573727;9.054721004574558
1445509952825;100.86755368199243;-13.843859752116344;-152.81451571495793;-5.2624552490234375;1.3609539331298321;5.518185621587932
1445509952860;100.86755368199243;-13.843859752116344;-152.81451571495793;-5.2624552490234375;1.3609539331298321;5.518185621587932
1445509952894;100.24030110942057;-22.854578860006935;-155.1781273074564;-2.0028993263244628;4.322282111535594;5.368697655431926
1445509952928;98.72007760710629;-34.10105660830018;-160.7283203150528;-2.456600522657763;7.046584544781595;5.567117118017375
1445509952961;98.72007760710629;-34.10105660830018;-160.7283203150528;-2.456600522657763;7.046584544781595;5.567117118017375
1445509952999;95.8163009016423;-45.91228809462224;-168.29210316590104;-3.5257612197875976;8.989329554394631;4.134337354278564
1445509953033;95.80818961882532;-54.94316056947907;-174.83038543258814;-1.8435353148529305;11.115680049951374;3.7939118057250973
1445509953068;95.80818961882532;-54.94316056947907;-174.83038543258814;-1.8435353148529305;11.115680049951374;3.7939118057250973
1445509953103;96.01604275511669;-62.69836447234317;177.80101004571358;0.49634793167114255;9.90660813850723;3.54087469083257
1445509953139;94.13956353786968;-69.05638480949189;169.82173896401508;1.695094775390625;10.988637578228861;2.5089738483704624
1445509953173;94.13956353786968;-69.05638480949189;169.82173896401508;1.695094775390625;10.988637578228861;2.5089738483704624
1445509953211;98.98341288845675;-73.06359659638964;171.0821687289201;-0.35748427191469817;8.502258934960887;2.8251579258766895
1445509953248;108.9476454033382;-76.99231380890211;177.02104589005057;3.6481648983940946;10.95152759862691;2.7097873664855956
1445509953282;116.85809269413514;-79.75722724287782;-177.91060179668006;2.515108807461522;7.2836105091370635;1.238400735650584
1445509953320;116.85809269413514;-79.75722724287782;-177.91060179668006;2.515108807461522;7.2836105091370635;1.238400735650584
1445509953358;121.27595365769473;-82.47412111983067;-175.0860482242024;-1.0419266075797844;6.955754373168945;2.3042693872313946
1445509953394;127.92384287434055;-84.15406798246572;-169.6261607499013;-1.6142904328277334;7.062445984649658;0.4300584732055664
1445509953428;146.52188383997623;-84.89789432561672;-151.89196712209895;-1.20667763671875;9.063250238391012;0.09262567672729492
1445509953465;146.52188383997623;-84.89789432561672;-151.89196712209895;-1.20667763671875;9.063250238391012;0.09262567672729492
1445509953499;156.20479635280762;-85.15520564249353;-142.54826647784893;-2.3325510039398445;9.50483078881977;-1.901445104040578
1445509953534;159.32195576212314;-85.60762407446605;-139.20149142897708;-1.5411176811218261;9.993547659356892;-2.2575824183257294
1445509953572;159.32195576212314;-85.60762407446605;-139.20149142897708;-1.5411176811218261;9.993547659356892;-2.2575824183257294
1445509953611;174.37125458491724;-86.5744418147773;-123.93715612341012;-3.620033019754104;8.123825654248147;-3.428646268817037
1445509953648;200.6337974254683;-87.03341565683253;-97.17560187671491;-3.0838812662871553;10.710461345904692;-1.1745055336440913
1445509953683;220.9163635104099;-86.61829479090747;-77.1984845557316;-1.7664719123840331;9.58443812188413;-1.0592845787490717
1445509953719;220.9163635104099;-86.61829479090747;-77.1984845557316;-1.7664719123840331;9.58443812188413;-1.0592845787490717
1445509953756;231.62996423699494;-85.93348867887238;-66.80198882889277;-0.7905354332633782;10.080636616880911;-0.6522703147888184
1445509953790;237.2460651048348;-85.5498622897274;-61.636577220290725;0.19856910018920898;10.112808756488189;-0.4810848869544919
1445509953824;237.2460651048348;-85.5498622897274;-61.636577220290725;0.19856910018920898;10.112808756488189;-0.4810848869544919
1445509953859;238.34556056761008;-85.56079717166212;-60.882094174653716;-1.1185411246368662;10.225934675332716;-0.5943605621337891
1445509953895;240.06728250913412;-85.62608345355066;-59.78444742915221;-0.13736732025146484;10.535983899920806;-0.17761985392915083
1445509953929;239.47081486434013;-85.79785009086693;-60.70740339915428;-1.2574047843933105;10.390685384811274;-0.3194762908769655
1445509953966;239.47081486434013;-85.79785009086693;-60.70740339915428;-1.2574047843933105;10.390685384811274;-0.3194762908769655
1445509954002;240.30184876669168;-85.82502205498048;-60.09220037956471;-0.8245032149826176;10.119242698525824;-0.5524620330810547
1445509954038;237.04741422694312;-85.0833048818826;-63.839337499030364;-0.49036240925444285;10.510844563293457;0.20694880599975585
1445509954074;237.04741422694312;-85.0833048818826;-63.839337499030364;-0.49036240925444285;10.510844563293457;0.20694880599975585
1445509954112;236.7829731859409;-85.1738633102587;-64.05950887023447;0.07392097625732422;10.524611368969827;-0.10354922180175781
1445509954149;238.81927878866924;-85.11408196252864;-61.81718073628496;-0.29703064346313474;10.266935305697656;-0.6311713943923823
1445509954184;242.20284208663088;-84.96978287893825;-57.6757764464558;-0.1479916266510263;9.77058725543821;-0.5716156372291501
1445509954222;242.20284208663088;-84.96978287893825;-57.6757764464558;-0.1479916266510263;9.77058725543821;-0.5716156372291501
1445509954258;249.5740892631226;-85.139608441569;-49.19335422033952;-0.2609679809570312;9.71267763050464;-0.26276363220214843
1445509954294;252.67235378065516;-84.96692005051395;-44.417180211015875;-0.9392752388000488;9.375095369952543;-0.5671265365158208
1445509954327;253.00300337184683;-84.61632816268373;-42.30954851261248;-1.9226934976439922;9.209146828991546;-0.6636428092071787
1445509954367;253.00300337184683;-84.61632816268373;-42.30954851261248;-1.9226934976439922;9.209146828991546;-0.6636428092071787
1445509954402;251.84036570424507;-84.41655906048895;-42.14241967443117;-1.8736124366760252;9.52353592768116;-1.0048165092468262
1445509954438;251.40703570928324;-84.32645623692427;-42.003696635226255;-1.801636749267578;9.59970126706548;-1.1821370697021483
1445509954475;251.40703570928324;-84.32645623692427;-42.003696635226255;-1.801636749267578;9.59970126706548;-1.1821370697021483
1445509954513;252.78710333198282;-84.27059243058419;-41.052451807284854;-1.7407342445373535;10.014646397090237;-1.2669815910339355
1445509954552;249.89992894345028;-83.05333195676036;-45.13033640394584;-1.4698901817321777;10.1282211374145;-1.3142670372894032
1445509954586;250.05100406967304;-83.04206304288789;-46.80039084688216;-0.5532102576324716;9.860519692617142;-0.8680477713764412
1445509954624;250.05100406967304;-83.04206304288789;-46.80039084688216;-0.5532102576324716;9.860519692617142;-0.8680477713764412
1445509954659;250.77188765346003;-83.10532029358758;-48.09167638673244;-0.6868365829910151;9.960477200936712;-0.4332008628845215
1445509954696;249.26735160553048;-83.11828239036427;-51.37541424634348;-0.6525696082626469;9.620201746644732;0.11432312927246092
1445509954730;246.14732034845008;-83.26451447312763;-56.24184685114094;0.18719664230346678;8.972420359039306;-0.12375026177670806
1445509954768;246.14732034845008;-83.26451447312763;-56.24184685114094;0.18719664230346678;8.972420359039306;-0.12375026177670806
1445509954805;241.8239180083733;-83.63108788258526;-61.964065061210675;-0.3724479957580566;9.027636488696187;0.08110358123779296
1445509954841;233.19475989885436;-84.48444929018125;-71.76910405693927;0.0857423469543457;8.998906214904785;-0.16310499723129904
1445509954875;220.27257396435468;-84.40180385432613;-85.5799269592893;-1.6060604011535644;9.591621000859234;0.12883798140373545
1445509954909;220.27257396435468;-84.40180385432613;-85.5799269592893;-1.6060604011535644;9.591621000859234;0.12883798140373545
1445509954945;209.59441744704984;-83.30489952719951;-97.45785850215682;-0.25797522888183594;9.905859822624269;-0.9195230568374506
1445509954979;209.52519248892796;-82.176237024313;-98.38635823639517;-0.2989760053772479;12.663680768585204;0.06554126131362281
1445509955017;209.52519248892796;-82.176237024313;-98.38635823639517;-0.2989760053772479;12.663680768585204;0.06554126131362281
1445509955055;216.19447570987217;-80.76164130320771;-91.10926337482131;-1.7682675818954594;16.43933678665161;-1.5445593734077643
1445509955090;236.33894245647846;-78.16207662713461;-71.48080899255585;-2.435052762515284;17.440561993408203;-0.6118681914564338
1445509955124;250.17203695676884;-75.30339233883178;-59.613767837288265;-5.237016856384277;15.04770707168579;3.210175659588724
1445509955162;250.17203695676884;-75.30339233883178;-59.613767837288265;-5.237016856384277;15.04770707168579;3.210175659588724
1445509955198;246.9909704268476;-73.68024969576612;-64.19814442213467;0.7698854713439941;11.995698797662556;7.835773120880127
1445509955233;228.58782455266345;-76.18914004707486;-81.8692356261949;6.005704934637248;8.961646597699076;4.768052898462116
1445509955271;228.58782455266345;-76.18914004707486;-81.8692356261949;6.005704934637248;8.961646597699076;4.768052898462116
1445509955309;193.91398645222657;-81.57465279600734;-114.62183379905154;-0.005985504150390624;13.880234779413044;0.3800795135498047
1445509955345;144.14097393596498;-78.3683084670916;-159.7032919052868;-7.0587052637513725;10.8177512155395;0.3000233955383301
1445509955379;128.62507139720347;-68.61920389957028;-167.8364083053761;0.9448118301391601;12.887388693945109;3.409941787542775
1445509955418;128.62507139720347;-68.61920389957028;-167.8364083053761;0.9448118301391601;12.887388693945109;3.409941787542775
1445509955457;121.95230001394671;-58.413298844893625;-169.79550205331063;-3.06697225359492;13.205069618988036;4.1759365350585425
1445509955490;118.34805848960725;-48.30157353675335;-168.86059766866322;-4.928314625958353;7.987356232684478;4.012083285876363
1445509955525;118.20962362150517;-38.804258427158786;-166.80684791207088;-1.0482114143371581;7.375936618395895;3.4109888854429125
1445509955563;118.20962362150517;-38.804258427158786;-166.80684791207088;-1.0482114143371581;7.375936618395895;3.4109888854429125
1445509955600;118.47750850157882;-28.698390916781214;-162.07838653901825;-1.064970825958252;3.6222774742126465;1.312621060180664
1445509955635;118.47248448255029;-19.20034621104407;-158.35797301086035;-2.9689596961975098;0.5544073219299316;0.600794979095459
1445509955673;118.47248448255029;-19.20034621104407;-158.35797301086035;-2.9689596961975098;0.5544073219299316;0.600794979095459
1445509955711;118.86107812535927;-12.558445640951787;-156.75529085398057;-1.6165350334167479;0.7619546783447265;1.3207014907836914
1445509955748;118.50379827876372;-8.336353732835503;-157.20042063282136;-0.8643067993164062;-0.8939350448608397;3.892971899414062
1445509955783;117.41934699352056;-7.16352443062588;-157.61976454851825;0.6171054779052734;-2.7509377805847675;7.08025285949707
1445509955818;117.41934699352056;-7.16352443062588;-157.61976454851825;0.6171054779052734;-2.7509377805847675;7.08025285949707
1445509955854;113.35544055649923;-12.943288024545577;-156.39745493560005;-5.379022942352295;3.1536125723022965;11.672331351415812
1445509955891;113.35544055649923;-12.943288024545577;-156.39745493560005;-5.379022942352295;3.1536125723022965;11.672331351415812
1445509955927;112.25753864949716;-26.393278779724323;-156.76219157740613;-3.7862802514007314;4.953453560726903;6.80866031641215
1445509955965;112.25753864949716;-26.393278779724323;-156.76219157740613;-3.7862802514007314;4.953453560726903;6.80866031641215
1445509956001;112.25753864949716;-26.393278779724323;-156.76219157740613;-3.7862802514007314;4.953453560726903;6.80866031641215
1445509956035;111.45316874014718;-45.38685692240167;-167.07696335639662;-2.1811177124023438;8.092251827593893;4.203021014404297
1445509956073;111.45316874014718;-45.38685692240167;-167.07696335639662;-2.1811177124023438;8.092251827593893;4.203021014404297
1445509956112;111.18608626997623;-52.83639195214539;-173.0881567806119;-1.7721581413269043;8.887875405175983;4.33036276133433
1445509956148;113.68376121225961;-59.78464704196892;-176.70533137861005;-0.1092354507446289;9.217377043328806;3.6384381892882285
1445509956181;117.6847922303034;-66.67932526764868;-177.75375364227855;1.9144634385703596;11.633875071771442;2.712031857476756
1445509956220;117.6847922303034;-66.67932526764868;-177.75375364227855;1.9144634385703596;11.633875071771442;2.712031857476756
1445509956257;124.72425527652427;-72.78706981181907;-173.4563854658397;0.6675333503723144;9.836726902627385;2.2845172966003418
1445509956291;134.93936767832255;-77.49032236739562;-167.10557070116235;-0.19078794479370115;9.806500124934223;3.1886276985168456
1445509956326;144.17289420045503;-80.19571085038736;-161.1874008295007;1.4103343789031728;6.889614260046184;3.060687547302246
1445509956365;144.17289420045503;-80.19571085038736;-161.1874008295007;1.4103343789031728;6.889614260046184;3.060687547302246
1445509956400;145.8563000109792;-81.34097819969207;-162.4054854757603;0.3033154228210449;5.7583542678833;2.110189561285451
1445509956435;142.0724780796959;-80.94915765030603;-168.01262887364493;0.8384194573333487;4.931756144714355;1.3308768661056645
1445509956473;142.0724780796959;-80.94915765030603;-168.01262887364493;0.8384194573333487;4.931756144714355;1.3308768661056645
1445509956512;139.0536996507877;-80.42418701967866;-172.14429737902645;-1.9584569397415033;7.254879796954244;0.5219360349792986
1445509956549;143.60354615452158;-80.29575476546724;-168.3218460156207;-2.6750714058807117;10.877456984765827;-0.03561374969482422
1445509956582;158.53597551282388;-81.41834529256059;-154.5185139864544;-1.7720085037231443;16.19108800201416;-0.44502223358154297
1445509956621;158.53597551282388;-81.41834529256059;-154.5185139864544;-1.7720085037231443;16.19108800201416;-0.44502223358154297
1445509956659;190.6536557574307;-82.91969134985868;-123.33976949073063;-1.8831892433166504;21.282956967273353;0.32606033859252925
1445509956696;239.50891041500833;-82.99098999769527;-76.78712651083106;-2.064849294281006;19.83057321613729;1.2339117171356453
1445509956730;259.04078533565564;-80.2804695343116;-58.93430704391985;-1.4773720253875477;11.485433984319865;3.6159925487242637
1445509956766;259.04078533565564;-80.2804695343116;-58.93430704391985;-1.4773720253875477;11.485433984319865;3.6159925487242637
1445509956804;244.30741259804918;-81.429097888361;-71.77681179796491;5.534346921185404;11.275043659564107;9.309853411245903
1445509956839;186.62609613380795;-84.75214535239058;-127.91380841939662;4.036025375543162;11.026346254376321;1.3778630919525399
1445509956874;186.62609613380795;-84.75214535239058;-127.91380841939662;4.036025375543162;11.026346254376321;1.3778630919525399
1445509956911;136.2573297722649;-78.5700768629524;-172.24060848879984;-1.0887631866897456;11.822268522644043;-0.8985736644469201
1445509956948;127.50020228893636;-67.52283366047175;-173.41198023844828;-1.942146495730616;9.997138742651417;1.627159157153219
1445509956982;125.71265341376375;-56.539633700231846;-170.07955356152954;-2.5534159974914044;10.156203588513284;2.678213832092285
1445509957020;125.71265341376375;-56.539633700231846;-170.07955356152954;-2.5534159974914044;10.156203588513284;2.678213832092285
1445509957058;125.00411160929679;-46.23229961375711;-167.5734284379097;-1.2096703887939453;10.216806964166462;3.489549211938679
1445509957095;123.85629359997198;-36.932286690616245;-165.3738998093484;-1.6181811201233416;6.356755337579548;3.96150562967509
1445509957129;123.06997718881838;-27.906515126517053;-161.40024788439396;-1.8058265291076152;5.935225915527344;3.4790742874145506
1445509957167;123.06997718881838;-27.906515126517053;-161.40024788439396;-1.8058265291076152;5.935225915527344;3.4790742874145506
1445509957204;122.42348891864083;-19.360311345799964;-157.87376409167052;-2.467374448394775;2.2258593559265134;2.724152576446533
1445509957240;121.58299556597169;-13.036714286066683;-156.23955181160312;-2.985718961688131;2.2349872748720343;2.411858897399902
1445509957274;121.58299556597169;-13.036714286066683;-156.23955181160312;-2.985718961688131;2.2349872748720343;2.411858897399902
1445509957312;120.24892043858914;-8.283331288450315;-155.76507519492813;-1.7061678119383752;-0.011522095489501952;3.2140660911560057
1445509957348;118.57640306615038;-5.53551071138285;-156.62265101754494;-1.8409915851868688;-0.8746318670410662;5.128679231262207
1445509957382;114.61681288841842;-5.88194772177982;-158.25851983603178;-6.208464179992675;2.9294553688049314;16.44592084121704
1445509957420;114.61681288841842;-5.88194772177982;-158.25851983603178;-6.208464179992675;2.9294553688049314;16.44592084121704
1445509957457;114.61681288841842;-5.88194772177982;-158.25851983603178;-6.208464179992675;2.9294553688049314;16.44592084121704
1445509957490;110.5837930600596;-12.033458724270774;-156.19127329874476;-6.574178483581543;0.46103345718383787;8.133701443835347
1445509957525;110.5837930600596;-12.033458724270774;-156.19127329874476;-6.574178483581543;0.46103345718383787;8.133701443835347
1445509957561;110.5837930600596;-12.033458724270774;-156.19127329874476;-6.574178483581543;0.46103345718383787;8.133701443835347
1445509957598;110.28220242756419;-28.863753061989772;-157.04189481306994;-3.306990933492966;2.9866170795716345;6.041618105670064
1445509957633;110.0885133036869;-39.617701155703;-162.10181711779168;-1.6060604742188005;4.9881693752013145;5.23492192993164
1445509957668;110.0885133036869;-39.617701155703;-162.10181711779168;-1.6060604742188005;4.9881693752013145;5.23492192993164
1445509957705;107.69523654778959;-49.81975880136146;-170.3835903642119;-2.199523137664795;7.177068608325347;3.469796755981445
1445509957739;106.34072559882794;-58.30476279723865;-178.53412686217217;-0.9169792175735346;8.547898732901178;3.105279553222656
1445509957774;106.34072559882794;-58.30476279723865;-178.53412686217217;-0.9169792175735346;8.547898732901178;3.105279553222656
1445509957809;107.95687836496461;-66.20795215769259;175.69138297897865;1.093701245880127;11.475258627264202;2.120065570068359
1445509957845;112.02563854371593;-73.59432591555611;174.4244280989614;1.6629226357833482;12.453589865167439;1.5068505237303673
1445509957879;124.03100174762895;-79.8256371148031;-176.7917158894977;1.952621118860645;11.212495287322998;2.1042040571350604
1445509957915;124.03100174762895;-79.8256371148031;-176.7917158894977;1.952621118860645;11.212495287322998;2.1042040571350604
1445509957949;146.1741523183078;-83.90094012823637;-158.28790357451507;0.23597850112915036;9.557054641325491;2.382529927062988
1445509957983;176.5579761509451;-84.73342467623375;-129.90847230846407;0.3773860366821289;6.294057181604206;1.4969746245453133
1445509958019;176.5579761509451;-84.73342467623375;-129.90847230846407;0.3773860366821289;6.294057181604206;1.4969746245453133
1445509958057;194.38367086918038;-84.42517726831146;-113.59343190048864;0.26336218261718747;5.167884283447266;1.2473790649414063
1445509958092;199.60567398713943;-84.13278579860909;-109.28641646387275;-0.1854009910583496;4.944774616241455;0.31019875487728277
1445509958126;209.98836559012523;-83.6094880660217;-99.90308529749399;-1.599326745516993;7.880813747350871;-0.5149030310699716
1445509958163;209.98836559012523;-83.6094880660217;-99.90308529749399;-1.599326745516993;7.880813747350871;-0.5149030310699716
1445509958201;222.9063190049328;-82.05314570106081;-88.24311760768504;-3.382408395385742;11.363030716705321;0.39594110868149435
1445509958236;239.17104008487485;-79.19066388158366;-74.08166741242925;0.7161654254637658;14.336030628204345;0.40506899337768554
1445509958274;239.17104008487485;-79.19066388158366;-74.08166741242925;0.7161654254637658;14.336030628204345;0.40506899337768554
1445509958311;254.03115163820712;-75.50434010232348;-62.074029914459054;0.3277062061034143;19.263148007202147;-0.9323918907607905
1445509958344;260.16935756140504;-72.739118070825;-56.939465541325795;-2.9786862135071304;13.610438179834187;0.9494505958557128
1445509958378;258.9020076664172;-70.94415966727463;-59.0504647096919;2.2448636238649486;12.859855374853312;0.7689876457214355
1445509958416;258.9020076664172;-70.94415966727463;-59.0504647096919;2.2448636238649486;12.859855374853312;0.7689876457214355
1445509958453;246.52362161685397;-73.95585264176127;-69.97312050055204;-0.752677146911621;9.438092512299393;1.088613640417531
1445509958488;217.83481146385634;-78.29011218370667;-97.35552356138935;-2.028188076793286;12.9095353515625;2.941875308183301
1445509958524;217.83481146385634;-78.29011218370667;-97.35552356138935;-2.028188076793286;12.9095353515625;2.941875308183301
1445509958559;175.1723035636043;-78.907915290025;-134.9418526164041;-1.7208324797699226;14.551957690429687;-3.9131729759216305
1445509958596;139.5404149692246;-72.8956494141354;-161.326905935031;-3.3367689993042497;13.306972827148437;2.7943325121451634
1445509958630;127.93624560387842;-63.42436455422115;-165.70221527948084;-1.393724677951075;10.862044019317626;2.060659587506205
1445509958666;127.93624560387842;-63.42436455422115;-165.70221527948084;-1.393724677951075;10.862044019317626;2.060659587506205
1445509958700;122.22873341337328;-54.42030755880218;-167.271836931825;-1.9717747047424314;9.567678892926127;2.9715035354614256
1445509958734;119.1522762646693;-45.34531093396276;-165.10862290906041;-2.0593127212082036;5.810727356133982;1.7524059776306151
1445509958768;119.1522762646693;-45.34531093396276;-165.10862290906041;-2.0593127212082036;5.810727356133982;1.7524059776306151
1445509958807;117.99071499289316;-37.49159231581142;-161.83960615612563;-0.3290530906677246;6.002862283673405;2.788197470855713
1445509958840;116.96014477207262;-29.412419917350974;-158.19033630406213;-2.2601262941222635;3.8750153869628905;2.5055320373535155
1445509958878;115.55007600705405;-22.11135351902151;-156.0192602411281;-3.626766506427317;3.3695396345276385;5.2781674896791575
1445509958917;115.55007600705405;-22.11135351902151;-156.0192602411281;-3.626766506427317;3.3695396345276385;5.2781674896791575
1445509958955;113.39103052842668;-16.05921912395128;-155.83252961367756;-3.4488473453246056;1.493682487664744;6.331316798809915
1445509958990;110.92764554331148;-10.932800852533669;-155.7241646094009;-1.862239978790283;-1.5442600708007812;7.756764685290679
1445509959025;109.43116669691538;-8.849204097887531;-154.4650743503425;-4.854991907855123;-0.6540659660339355;10.927884564971924
1445509959064;109.43116669691538;-8.849204097887531;-154.4650743503425;-4.854991907855123;-0.6540659660339355;10.927884564971924
1445509959102;108.5787276460731;-9.933835503455235;-152.9025000065305;-8.58620570373535;3.205536747741699;12.385204895727336
1445509959137;108.31593790660513;-22.330812376168264;-152.56855218813905;-4.4807482791182585;7.192929975128173;7.377283283764496
1445509959174;108.31593790660513;-22.330812376168264;-152.56855218813905;-4.4807482791182585;7.192929975128173;7.377283283764496
1445509959212;108.31593790660513;-22.330812376168264;-152.56855218813905;-4.4807482791182585;7.192929975128173;7.377283283764496
1445509959250;108.77931242259058;-39.5914503313974;-160.1766058948043;-1.7908626956664024;5.605424709906056;4.089595710754394
1445509959285;107.94404745912942;-48.40039935579743;-167.14952260490523;-1.979705461209081;8.441356649426371;3.6641762955263255
1445509959319;107.94404745912942;-48.40039935579743;-167.14952260490523;-1.979705461209081;8.441356649426371;3.6641762955263255
1445509959357;108.66492553730941;-55.4112280564337;-173.46393811298552;-1.324143155670166;9.457694961901753;3.7627873302735386
1445509959391;111.08129924841761;-61.72926121059631;-177.96809230436259;1.066916187872365;9.72629467984624;2.7280433002747593
1445509959424;113.77016746862755;-67.58719216988845;179.414385248424;1.9602526777515885;11.303325312805175;1.831115357208252
1445509959462;113.77016746862755;-67.58719216988845;179.414385248424;1.9602526777515885;11.303325312805175;1.831115357208252
1445509959498;121.14906498878746;-72.3249162970158;-175.93481193149526;0.5916670852661132;10.390535856805368;1.5426142032898962
1445509959532;130.44125387218213;-76.25116981103852;-169.48956121187013;0.611568886566162;10.964545631762594;2.8923452796051277
1445509959567;130.44125387218213;-76.25116981103852;-169.48956121187013;0.611568886566162;10.964545631762594;2.8923452796051277
1445509959604;136.00837882986013;-79.11302464410726;-165.7855616629338;1.3483843744140118;8.223184730883688;2.7370214103698727
1445509959641;137.6738747426781;-80.08293608195038;-165.73277105494788;-0.07077858657836913;7.234229807635396;2.698265197930857
1445509959675;135.21180323309383;-79.0793615448004;-167.96006656863966;-0.9014169250488281;5.788132443292438;1.6282067482437006
1445509959713;135.21180323309383;-79.0793615448004;-167.96006656863966;-0.9014169250488281;5.788132443292438;1.6282067482437006
1445509959751;135.2003519037161;-78.00084737643647;-167.9325600989824;-1.0099041877746582;7.13112964477539;-0.38830958175659175
1445509959786;139.67184846429035;-77.86253917955851;-163.18594409696743;-2.340631434542872;8.676586962536723;-0.6043861354552209
1445509959824;139.67184846429035;-77.86253917955851;-163.18594409696743;-2.340631434542872;8.676586962536723;-0.6043861354552209
1445509959862;152.47927716807104;-79.02839296676883;-150.54653580598466;-2.398989990411326;13.871855073602497;-1.5765819393433629
1445509959898;179.65110846205593;-80.64090954060671;-123.74070454934078;-0.9675567824432626;20.089597077289223;0.4674678741455078
1445509959933;219.3800442409873;-80.75548232251603;-85.23086996946111;-2.4389432306151835;18.946365200042724;2.076820266049169
1445509959970;219.3800442409873;-80.75548232251603;-85.23086996946111;-2.4389432306151835;18.946365200042724;2.076820266049169
1445509960008;238.55070536832645;-78.39610106550288;-68.20814622558106;-2.9671640449523924;12.250680982208252;3.3547254386901852
1445509960045;228.27316473275965;-77.83583568458234;-77.9634792797313;2.771587842968851;11.481244569806009;10.048314620474166
1445509960078;191.5356643300452;-80.11667549348692;-111.854378890815;4.635323905535787;10.872518797711283;1.677736813354492
1445509960115;191.5356643300452;-80.11667549348692;-111.854378890815;4.635323905535787;10.872518797711283;1.677736813354492
1445509960154;142.26425601685494;-78.32930833232946;-159.50003115808875;-3.160795031152293;15.428684410858153;0.04519055633544922
1445509960190;124.23557342021766;-68.10050127680628;-169.9006494081453;-3.94549469833374;12.235567584228514;0.8029553817749023
1445509960224;124.23557342021766;-68.10050127680628;-169.9006494081453;-3.94549469833374;12.235567584228514;0.8029553817749023
1445509960258;119.5744346126142;-56.62794393374369;-169.4478593609732;-3.4274492410521953;11.58359683690816;3.4460042308531698
1445509960294;118.25332055810867;-45.68466429728043;-167.29769703671502;-1.8721160241058095;8.970026303509622;2.5668834548950192
1445509960328;118.22543649108873;-36.13638111478125;-164.77307244865878;-1.2321161024231464;5.147383858666942;1.9815011489868164
1445509960363;118.22543649108873;-36.13638111478125;-164.77307244865878;-1.2321161024231464;5.147383858666942;1.9815011489868164
1445509960401;118.90736124696954;-26.937235632966978;-160.75714590957844;-0.5029318401060998;3.429394456835836;1.6135422813415525
1445509960436;118.89642549242275;-18.17421408291368;-157.43522738707574;-1.8745101161681115;0.845901374053955;1.29601128616333
1445509960474;118.89642549242275;-18.17421408291368;-157.43522738707574;-1.8745101161681115;0.845901374053955;1.29601128616333
1445509960509;118.73337265678842;-11.750494956778411;-156.01608768672355;-2.189946184893697;0.6711246528625487;3.040187195587158
1445509960547;117.59619886436268;-7.286241422498931;-156.0870937941199;-1.2235866859436035;-0.26276363220214843;4.877886315099895
1445509960581;115.57206991735895;-5.02516457940153;-156.0935292129576;-1.5007155281066893;-2.28810852602534;6.290765154321491
1445509960618;115.57206991735895;-5.02516457940153;-156.0935292129576;-1.5007155281066893;-2.28810852602534;6.290765154321491
1445509960654;113.54480183132809;-6.616059690225827;-155.89097897475415;-6.411671899767965;2.5547628089904784;14.558392107391356
1445509960689;111.85766607520686;-9.052804987126205;-155.88202912847294;-6.9205895362854;1.7527052163055166;17.64122602005005
1445509960724;111.85766607520686;-9.052804987126205;-155.88202912847294;-6.9205895362854;1.7527052163055166;17.64122602005005
1445509960761;110.5383762671443;-14.368673576243525;-154.22733341224472;-8.320150044250488;3.496581813989207;4.25509519277364
1445509960798;110.80325040875323;-22.341262371779667;-154.44442389994276;-5.575048057147115;6.634482437896728;7.463624108068645
1445509960832;111.30338342237914;-30.746919559944008;-156.80490265078151;-2.6568155816894024;4.616319893325679;6.349123527526855
1445509960870;111.30338342237914;-30.746919559944008;-156.80490265078151;-2.6568155816894024;4.616319893325679;6.349123527526855
1445509960907;111.47399288874827;-41.12799030514898;-162.12439828704387;-2.1564274803825185;7.733719982855021;4.283226770019531
1445509960940;112.69126054812412;-57.697754158150936;-172.7838154059923;0.0025438392639160153;9.04005655593872;3.7981015124998985
1445509960974;112.69126054812412;-57.697754158150936;-172.7838154059923;0.0025438392639160153;9.04005655593872;3.7981015124998985
1445509961013;112.69126054812412;-57.697754158150936;-172.7838154059923;0.0025438392639160153;9.04005655593872;3.7981015124998985
1445509961051;122.52167126356716;-70.40115513767078;-171.81674393273593;1.4627075402190908;9.67496901828926;2.7283423928191883
1445509961085;130.91946531365306;-75.04623179526122;-165.78693418984807;0.3742436470031738;9.876082030807622;2.916436970343068
1445509961124;130.91946531365306;-75.04623179526122;-165.78693418984807;0.3742436470031738;9.876082030807622;2.916436970343068
1445509961159;140.53185719261103;-78.2649416484466;-159.1084281501261;-0.5723638069816399;8.5636105716981;3.2026936332702634
1445509961197;147.47245439666892;-79.89102596081855;-155.15243961109982;0.2885013000488281;5.610661660711467;2.422333529663086
1445509961230;148.73365358512382;-79.6261881395702;-155.72495624176804;0.7713817743163556;6.1902086845949285;2.96207636642456
1445509961265;148.73365358512382;-79.6261881395702;-155.72495624176804;0.7713817743163556;6.1902086845949285;2.96207636642456
1445509961300;148.10687124335325;-78.68940581221898;-157.29948140153846;-0.7872434059806633;6.5123781532287595;1.1272200691223144
1445509961334;153.24617132853572;-78.41891365747212;-152.4299619568832;-2.4121580995421854;9.841365759675483;-0.8722375923156738
1445509961370;153.24617132853572;-78.41891365747212;-152.4299619568832;-2.4121580995421854;9.841365759675483;-0.8722375923156738
1445509961408;168.39049742605374;-79.31726030217895;-137.8999160823413;-2.4157494750976563;15.845425137329102;0.5582979726929217
1445509961445;196.3318979591029;-80.09814656535781;-110.55458952588194;-3.1630396682739255;20.88357420283854;0.5562029868747805
1445509961478;226.90261429989354;-79.11085722156257;-81.24308937071083;-2.2634183579375966;16.826299629974365;1.3027449235335924
1445509961516;226.90261429989354;-79.11085722156257;-81.24308937071083;-2.2634183579375966;16.826299629974365;1.3027449235335924
1445509961554;236.32596888334982;-77.04896997803506;-72.83446031701078;-0.7097311546325683;12.366051866967975;5.9657519136290995
1445509961590;217.03187875817383;-77.80039713044053;-90.49231032429508;2.35439791142568;8.784475455651805;4.795436364179378
1445509961624;217.03187875817383;-77.80039713044053;-90.49231032429508;2.35439791142568;8.784475455651805;4.795436364179378
1445509961662;188.11703503426162;-80.07704229730196;-118.35415501457302;1.4597148246765135;12.00452727015391;1.6617255897521972
1445509961700;149.43719858018545;-77.79745012457963;-154.21749539873028;-4.2781391645569355;11.688492651013284;1.12123463803716
1445509961735;131.96894802125755;-69.25486388527953;-164.12640990072296;-1.8062755149841307;11.346420942687988;1.2357074779786168
1445509961771;131.96894802125755;-69.25486388527953;-164.12640990072296;-1.8062755149841307;11.346420942687988;1.2357074779786168
1445509961808;125.11091350776248;-59.34414873625728;-166.03742316851293;-2.3837270278930665;11.541847653198241;2.361431024932861
1445509961843;123.02089449875275;-49.21150495756023;-164.2682872284015;-2.676418180847168;10.497377471216023;4.3037274139955635
1445509961878;121.89941865009567;-39.872683655150674;-162.65972246971802;-2.303221942271385;9.467720535223185;3.8687306076049803
1445509961914;121.89941865009567;-39.872683655150674;-162.65972246971802;-2.303221942271385;9.467720535223185;3.8687306076049803
1445509961952;121.01583672975332;-30.920622615979685;-160.56214358265115;-1.0266635993957518;7.191433891351521;2.9378350746154784
1445509961987;120.14708773639455;-21.4374780110451;-157.49089333247034;-2.0950760902404784;2.8309938985962417;2.6417022567749022
1445509962023;120.14708773639455;-21.4374780110451;-157.49089333247034;-2.0950760902404784;2.8309938985962417;2.6417022567749022
1445509962059;119.49446272085933;-13.742884598176483;-155.58155040352656;-2.480542411395162;0.9510966094970703;1.8873790962219237
1445509962097;119.1736222136625;-8.25033294522992;-154.78894379073031;-1.1703156990051269;0.8963292830536141;3.3170167625427243
1445509962130;117.76543793682225;-4.517751909304462;-155.14350331020114;-1.6873137661255895;-0.5313632040161639;4.621108479309082
1445509962168;117.76543793682225;-4.517751909304462;-155.14350331020114;-1.6873137661255895;-0.5313632040161639;4.621108479309082
1445509962204;115.56522247539179;-2.6904674407202784;-155.93641005602527;-1.4835072036743162;-1.7184383146423845;6.541856615038961
1445509962240;112.74701599225932;-3.3800463351593226;-156.45526662422608;-1.0296563514709471;-3.3319806690491736;8.375366575766169
1445509962278;109.22152490900234;-8.425901343619817;-156.07978014764782;-8.292317449951172;4.34607441746816;15.825972248840332
1445509962316;109.22152490900234;-8.425901343619817;-156.07978014764782;-8.292317449951172;4.34607441746816;15.825972248840332
1445509962354;105.74857061627732;-11.190357890503876;-156.43995923736716;-3.9924809424469245;3.5597289558410643;14.532504801940917
1445509962388;103.18966381238546;-16.89457649598606;-155.4669991661315;-6.143371822357177;3.8920740737915036;6.221782218988239
1445509962424;103.18966381238546;-16.89457649598606;-155.4669991661315;-6.143371822357177;3.8920740737915036;6.221782218988239
1445509962458;100.72488850100125;-24.65832779455699;-156.5511263833944;-4.542249608258158;5.368249181012064;6.183923759106547
1445509962494;98.02975916632421;-33.75503760569017;-160.13078988139355;-2.5987562462295406;3.714753367205709;4.678569319152832
1445509962527;94.94827113432105;-43.676046511523;-166.79050315101415;-3.3502363105773925;6.6882026116411195;3.8789059646606443
1445509962565;94.94827113432105;-43.676046511523;-166.79050315101415;-3.3502363105773925;6.6882026116411195;3.8789059646606443
1445509962603;92.18638139004186;-51.30383670882794;-173.79879813272575;-1.6470611045837402;8.52006595593877;4.196586451312155
1445509962638;89.44611560584781;-63.01403543374084;171.7206363380378;0.9898527488708495;10.333374219103902;2.0522797355651856
1445509962674;89.44611560584781;-63.01403543374084;171.7206363380378;0.9898527488708495;10.333374219103902;2.0522797355651856
1445509962711;89.44611560584781;-63.01403543374084;171.7206363380378;0.9898527488708495;10.333374219103902;2.0522797355651856
1445509962748;84.8894399798527;-72.77906844956716;154.30103841837754;0.40970775909423823;10.351480588354542;0.7353191848754882
1445509962782;86.27487595493673;-77.51368146674092;149.9421048664378;-0.05117606048583984;9.961974051898345;0.37334582138061523
1445509962815;86.27487595493673;-77.51368146674092;149.9421048664378;-0.05117606048583984;9.961974051898345;0.37334582138061523
1445509962852;81.45945930284176;-81.39619966429309;138.44306691267062;0.9256581894584465;9.519944387728907;-0.38052842636108397
1445509962886;69.00849487313975;-84.26417152214954;119.14556150759141;0.6042366622482426;9.719710563632018;-0.2045546043395996
1445509962924;69.00849487313975;-84.26417152214954;119.14556150759141;0.6042366622482426;9.719710563632018;-0.2045546043395996
1445509962961;48.30630239064112;-86.0338690687362;91.79989596269112;0.25483283920288086;9.589375943612493;-0.76704235458927
1445509962998;22.135656181339915;-86.75911374923258;59.62814071558353;-0.12195464706420897;9.43928979236763;-0.9036614525726064
1445509963032;355.6659466752522;-86.74403020243841;27.684255000356472;0.05551555099487304;9.504232676796148;-1.0913070442199706
1445509963070;355.6659466752522;-86.74403020243841;27.684255000356472;0.05551555099487304;9.504232676796148;-1.0913070442199706
1445509963107;337.7183878778836;-86.18381786849633;4.795272817830412;0.5105635085948975;10.124031321041844;-1.331774673461914
1445509963142;325.7174307416357;-85.38129136426903;-11.919496861841726;0.1227028350830078;10.039934841598383;-0.19003975677490234
1445509963177;316.4087222386942;-84.06209712843433;-26.407924810501864;-0.6177040283203125;10.244789196069538;-0.6389525680541992
1445509963211;316.4087222386942;-84.06209712843433;-26.407924810501864;-0.6177040283203125;10.244789196069538;-0.6389525680541992
1445509963249;312.9522987246483;-82.80854574541117;-35.59981641214228;-0.7764694985099602;10.803386005578561;-0.5689221694946289
1445509963282;310.65035918666274;-82.86945585828957;-44.070379288387876;-1.4908394462585448;12.436081681005655;-0.700303967329394
1445509963319;310.65035918666274;-82.86945585828957;-44.070379288387876;-1.4908394462585448;12.436081681005655;-0.700303967329394
1445509963356;300.54623095716977;-85.19958104651741;-59.74103971462494;-1.0037690825531258;10.481216536944732;-1.2032359352996571
1445509963390;246.44308207726303;-86.11543953734882;-119.60423044912793;-3.0270191595215348;9.3251164468294;-1.447444614233449
1445509963428;219.27170094393696;-80.8732231846114;-152.5515098591726;-4.986523434625193;8.466944606604054;0.09127893829345703
1445509963463;219.27170094393696;-80.8732231846114;-152.5515098591726;-4.986523434625193;8.466944606604054;0.09127893829345703
1445509963498;222.04264022823796;-75.1562917223686;-155.48416706590712;-3.274519610009715;9.386916658451176;-0.8014590057373047
1445509963532;229.12999826919912;-71.39549923624432;-154.08354432375458;-0.9407715783050283;10.11669918805547;0.25782559127807614
1445509963570;229.12999826919912;-71.39549923624432;-154.08354432375458;-0.9407715783050283;10.11669918805547;0.25782559127807614
1445509963607;237.89486213892036;-68.82454221318567;-150.56590374531396;-2.6696844886779783;8.313565916619822;0.9401732105530798
1445509963642;249.04168117619605;-66.43766467946257;-144.63806606535127;-2.1773767083762676;8.089558789117634;1.879448303222656
1445509963675;260.05824688138296;-64.90489846570338;-139.46534447107766;-1.3889362380981445;8.710405060986428;2.5450362186156212
1445509963713;260.05824688138296;-64.90489846570338;-139.46534447107766;-1.3889362380981445;8.710405060986428;2.5450362186156212
1445509963749;269.6826957183818;-65.48323001590246;-136.9952686892592;-1.478868584088236;7.632415763501077;2.8297967064346183
1445509963783;277.3991957864864;-68.17279653492632;-135.73224090826704;-0.16355390090942382;7.859116440936178;3.561375042547658
1445509963819;277.3991957864864;-68.17279653492632;-135.73224090826704;-0.16355390090942382;7.859116440936178;3.561375042547658
1445509963857;282.3850412340234;-72.43738601546339;-137.52251481520125;-1.2470797897338866;9.547178139352239;7.299023182324319
1445509963893;281.6931859811314;-75.02303722933729;-144.09901572248776;-2.301875331701711;12.581978636932373;8.913612634631246
1445509963928;283.52415380384156;-77.00465632003574;-147.81742395288035;-8.815450585760548;6.9675760361269115;-0.6916250045776366
1445509963963;283.52415380384156;-77.00465632003574;-147.81742395288035;-8.815450585760548;6.9675760361269115;-0.6916250045776366
1445509963999;296.1833149970471;-78.59222935384716;-137.07142959257027;3.4584244442261753;8.583960920483246;1.1477204573700204
1445509964033;308.36345577265143;-81.72792266299669;-130.894577722169;0.19991591168828307;10.795754414721578;0.7722796730041503
1445509964069;308.36345577265143;-81.72792266299669;-130.894577722169;0.19991591168828307;10.795754414721578;0.7722796730041503
1445509964105;315.6465799927629;-83.40370341884136;-127.53441920413468;-1.6011223602294922;10.379761949334666;0.4381389038085937
1445509964138;329.48101746679026;-84.19873998517193;-117.65258293111074;1.0209772973876445;11.129595908709614;0.7630021415710448
1445509964173;329.48101746679026;-84.19873998517193;-117.65258293111074;1.0209772973876445;11.129595908709614;0.7630021415710448
1445509964209;1.2331471982349633;-85.76034968663541;-91.25375650824496;0.8681973770141601;10.01898570493618;-0.4302081119509705
1445509964245;44.320478663095464;-85.41771402773348;-52.57627905861432;-0.7371148361206055;9.504980736950785;0.9044096771240234
1445509964278;70.67857699452516;-82.55860205440099;-33.37853193380265;0.21173720932006834;9.611223472152837;1.862988166809082
1445509964312;70.67857699452516;-82.55860205440099;-33.37853193380265;0.21173720932006834;9.611223472152837;1.862988166809082
1445509964346;70.67857699452516;-82.55860205440099;-33.37853193380265;0.21173720932006834;9.611223472152837;1.862988166809082
1445509964380;74.87811421505815;-83.26121615025392;-33.97935265073237;0.1924339584350586;8.207173799542337;1.2726678199768067
1445509964417;74.87811421505815;-83.26121615025392;-33.97935265073237;0.1924339584350586;8.207173799542337;1.2726678199768067
1445509964450;74.87811421505815;-83.26121615025392;-33.97935265073237;0.1924339584350586;8.207173799542337;1.2726678199768067
1445509964484;17.605477969426204;-84.48462450742655;-94.49372246757048;0.6543651681762188;9.159766712011768;4.449025326316897
1445509964522;17.605477969426204;-84.48462450742655;-94.49372246757048;0.6543651681762188;9.159766712011768;4.449025326316897
1445509964556;326.27989582971344;-76.76273453528576;-145.68029607852733;-2.4129062875609844;8.63259314170517;2.872443441772461
1445509964590;319.96764940483774;-64.5498800897784;-150.04688974932537;-2.628234835903905;8.583960865684318;-5.4896051315307615
1445509964624;319.96764940483774;-64.5498800897784;-150.04688974932537;-2.628234835903905;8.583960865684318;-5.4896051315307615
1445509964662;316.66076421537787;-55.3677173298295;-151.86137096884153;-3.8522706173218784;12.59978580404073;-0.00613514175415039
1445509964699;315.54301666339524;-53.94178163677263;-156.54534324251708;-2.136974582760595;2.057666689300537;3.2401031803406775
1445509964732;318.4519854375182;-58.27190020757773;-155.46947619137413;0.16175824966430663;1.059134959411621;2.139219183349609
1445509964768;318.4519854375182;-58.27190020757773;-155.46947619137413;0.16175824966430663;1.059134959411621;2.139219183349609
1445509964806;329.04877026765854;-68.33244336432688;-147.0072783327382;-2.2348376304184083;8.951171855838037;5.984307049560546
1445509964840;344.8335598924332;-77.86415147168537;-137.93198274626442;6.186168469293415;14.681244580078124;9.303418738555907
1445509964874;338.94954306521765;-83.45647768577271;-145.87603110469533;-5.820004887567087;-2.384475215911865;-6.813598649597168
1445509964912;338.94954306521765;-83.45647768577271;-145.87603110469533;-5.820004887567087;-2.384475215911865;-6.813598649597168
1445509964945;351.38574930227065;-81.37330746509626;-129.7273225132934;12.600832682745159;26.19406312266886;6.563703705187886
1445509964979;336.54392075512015;-81.163322529509;-148.81689883014045;0.5665279678344726;10.504410365527495;1.7540519547393545
1445509965013;336.54392075512015;-81.163322529509;-148.81689883014045;0.5665279678344726;10.504410365527495;1.7540519547393545
1445509965051;332.42548203749305;-77.91264855140079;-150.846307689446;1.5134346513610333;8.244583346612751;1.7591397063324228
1445509965085;341.94664816636214;-78.86874776637659;-141.57148004411016;2.5993548879761246;12.547263005121051;5.499182084301859
1445509965118;341.94664816636214;-78.86874776637659;-141.57148004411016;2.5993548879761246;12.547263005121051;5.499182084301859
1445509965152;339.7897716012338;-78.56854060109032;-145.0874331676057;-2.5371054986815897;10.134356388766504;7.711723401232808
1445509965188;329.65103119927824;-69.01717702957046;-152.12141934716442;-8.019976718847452;8.96164630543813;4.525041137695312
1445509965223;329.65103119927824;-69.01717702957046;-152.12141934716442;-8.019976718847452;8.96164630543813;4.525041137695312
1445509965261;325.84523465964196;-55.61755684938326;-153.12568406020296;1.5433622451782225;8.803479358264058;-3.201047619628906
1445509965298;322.97533047658584;-46.608281678799386;-153.33712215448958;-1.9313724055968224;9.036914020129293;1.1055226165771483
1445509965333;322.4591335200401;-44.90910365022519;-153.81138840389124;-6.46718759689331;4.762067102050781;2.3968951370239258
1445509965368;322.4591335200401;-44.90910365022519;-153.81138840389124;-6.46718759689331;4.762067102050781;2.3968951370239258
1445509965407;322.1880650446904;-49.85659454322159;-154.01222786993534;-3.9571665044922377;2.667290287017822;2.2348376121520994
1445509965440;328.15599259759426;-59.44733292207335;-150.16233008797184;-3.719093003845215;1.2392986343383787;2.3644237770080565
1445509965474;345.9517450521915;-72.9369650918638;-136.3332704695318;3.9591114280149338;26.91052680042684;3.157652714538574
1445509965512;345.9517450521915;-72.9369650918638;-136.3332704695318;3.9591114280149338;26.91052680042684;3.157652714538574
1445509965550;346.28084663904025;-80.44909675214345;-137.72996960494544;-3.356970075811818;5.013757551574707;10.39831693913564
1445509965585;346.60307911015394;-80.56628850813563;-134.3835116356166;-10.2476321644105;-0.04878185882568359;-4.4187984390258785
1445509965619;346.60307911015394;-80.56628850813563;-134.3835116356166;-10.2476321644105;-0.04878185882568359;-4.4187984390258785
1445509965657;348.4183763310582;-75.36907180848172;-131.65044355111976;15.730354112298786;20.765809408679605;0.021098902130126954
1445509965692;338.7432848573358;-74.38825022972537;-143.7702959088184;1.2279261764526366;11.565041627911478;2.661604021542333
1445509965725;337.2121641712226;-74.47982109145852;-142.6602403168987;2.084003053692728;9.27349108993979;2.145503976407251
1445509965760;337.2121641712226;-74.47982109145852;-142.6602403168987;2.084003053692728;9.27349108993979;2.145503976407251
1445509965798;337.6847779112754;-75.59470154400526;-143.10283889145782;0.5639841285705566;12.291532048034668;6.616376141711324
1445509965832;330.2191862159136;-69.47459328950802;-149.13731035333132;-7.387608351489156;9.881169672802836;9.829844120843708
1445509965868;330.2191862159136;-69.47459328950802;-149.13731035333132;-7.387608351489156;9.881169672802836;9.829844120843708
1445509965903;325.8063014003184;-57.15898964449382;-152.39980470476047;0.6851905876159667;12.49069999089986;-1.234061318206787
1445509965938;322.4346240486258;-48.42092478455306;-153.14906190205633;-2.178124887261912;0.3799298759460449;1.3275845282956957
1445509965974;322.4346240486258;-48.42092478455306;-153.14906190205633;-2.178124887261912;0.3799298759460449;1.3275845282956957
1445509966008;322.0461125790012;-48.44931180311184;-153.37293589254415;-3.5993830669678744;4.5593081489562985;2.195632559967041
1445509966045;322.0461125790012;-48.44931180311184;-153.37293589254415;-3.5993830669678744;4.5593081489562985;2.195632559967041
1445509966079;344.2546084874131;-69.66737411079868;-137.38288914524466;1.103278052520752;21.41284182281494;5.837362922668457
1445509966114;344.2546084874131;-69.66737411079868;-137.38288914524466;1.103278052520752;21.41284182281494;5.837362922668457
1445509966150;344.2546084874131;-69.66737411079868;-137.38288914524466;1.103278052520752;21.41284182281494;5.837362922668457
1445509966186;344.8106131108745;-79.44313155591593;-136.8381893689374;-8.237849216052144;-1.8535615822941063;-7.920617934472858
1445509966224;344.8106131108745;-79.44313155591593;-136.8381893689374;-8.237849216052144;-1.8535615822941063;-7.920617934472858
1445509966260;344.8106131108745;-79.44313155591593;-136.8381893689374;-8.237849216052144;-1.8535615822941063;-7.920617934472858
1445509966294;333.85889148557845;-73.91461716621811;-149.38801856576455;-3.703530693054199;5.399672931671142;-3.435529744720459
1445509966328;335.0572487273118;-71.14367212283976;-144.6246985656667;3.0550013183593747;10.428693518829345;4.287566260528564
1445509966366;335.0572487273118;-71.14367212283976;-144.6246985656667;3.0550013183593747;10.428693518829345;4.287566260528564
1445509966403;335.02555369920725;-70.02683530363598;-146.4867995138472;1.624166551208496;12.419322561645506;8.062623435918987
1445509966439;327.2862319684497;-62.30376465934675;-152.99439504151542;-5.211428826141357;8.876801637975872;4.849904375457763
1445509966473;327.2862319684497;-62.30376465934675;-152.99439504151542;-5.211428826141357;8.876801637975872;4.849904375457763
1445509966508;322.6151209802193;-52.49872840530222;-152.7088094135863;-0.5039794494628906;2.3325509674072262;-3.774458917236328
1445509966545;320.9666393350293;-48.321904389450815;-152.25225976897894;-2.05168111208491;13.531728507995604;0.5193921226501464
1445509966579;320.9378681811706;-50.9572292703588;-153.1805848942969;-5.417779081726074;6.15788637766093;1.7929580605104565
1445509966613;320.9378681811706;-50.9572292703588;-153.1805848942969;-5.417779081726074;6.15788637766093;1.7929580605104565
1445509966649;322.835220156449;-57.50877138041356;-152.63519419821077;-2.7002105050460434;4.879083415929973;0.8129811012268066
1445509966682;334.06939008281887;-68.38987222618142;-142.9118961951912;-3.845087866210937;9.860669174957275;3.252822193997167
1445509966720;334.06939008281887;-68.38987222618142;-142.9118961951912;-3.845087866210937;9.860669174957275;3.252822193997167
1445509966758;347.150694229001;-75.80596526825849;-132.378136002422;0.46716859893798823;8.425494698101653;14.894478603827208
1445509966795;339.7773964503762;-77.42934523640962;-136.79786382734767;1.1824361987791954;-2.179321476635337;-10.549002590643614
1445509966828;343.44732612620334;-75.3795489055922;-132.93106465380112;4.291457130487263;27.543793139538167;12.072163174792378
1445509966865;343.44732612620334;-75.3795489055922;-132.93106465380112;4.291457130487263;27.543793139538167;12.072163174792378
1445509966903;338.9705742563977;-76.22531023838044;-140.50848383158507;2.2307973968505856;18.771887754058838;10.966341283007711
1445509966938;335.3831776361837;-74.45714738754299;-142.5413624996264;-1.3717279136657714;8.710703970867767;0.10758943710327148
1445509966974;335.3831776361837;-74.45714738754299;-142.5413624996264;-1.3717279136657714;8.710703970867767;0.10758943710327148
1445509967011;342.9763719255277;-75.7529457679339;-134.82816413723197;1.926733786010742;9.72270352348648;3.984849388122558
1445509967048;343.0084731959161;-76.59547786158947;-136.57287138045172;-0.8879496137756854;8.746916417108103;6.197241359710693
1445509967082;332.8573702277227;-70.44046503558063;-145.09136321391009;-4.394856568554789;7.8323313098631795;7.65486125793457
1445509967118;332.8573702277227;-70.44046503558063;-145.09136321391009;-4.394856568554789;7.8323313098631795;7.65486125793457
1445509967153;327.36634896161814;-59.8012461025471;-149.68855168693474;0.4121019607543945;13.318195939691364;-1.1767504082277416
1445509967188;321.67361675575404;-52.33713906739368;-150.67852766485285;-2.4316110610961914;12.810774533081053;2.596062495367229
1445509967223;321.67361675575404;-52.33713906739368;-150.67852766485285;-2.4316110610961914;12.810774533081053;2.596062495367229
1445509967258;315.8579709607021;-50.54050296981873;-154.51620448125448;-6.068253745269775;5.045779998779296;4.066102460833639
1445509967293;313.57241642612854;-52.95243175208578;-156.2947054988386;-3.7357027778625485;4.821772213689982;2.444480187280476
1445509967328;314.93198698854314;-58.603948719910605;-154.15446239468116;-2.268655715168384;4.190301525823772;0.12389993591308593
1445509967366;314.93198698854314;-58.603948719910605;-154.15446239468116;-2.268655715168384;4.190301525823772;0.12389993591308593
1445509967403;323.13337356454485;-66.6516822334363;-148.49846483486374;-3.5823242340087886;2.952649197387695;1.4136264427185057
1445509967439;338.9342068858072;-74.29905498746682;-136.7067452128057;4.045003997094929;22.495320248413083;11.14785184249878
1445509967474;338.9342068858072;-74.29905498746682;-136.7067452128057;4.045003997094929;22.495320248413083;11.14785184249878
1445509967511;329.19731822784024;-75.54864707112534;-147.56549057504932;-4.139125757598877;8.517971029486134;11.826158954211325
1445509967548;326.64046718166236;-74.94503057094302;-149.19316168687334;-1.6686089195251463;1.868075845336914;-5.0888753364011645
1445509967582;331.9254010009946;-75.7283988502764;-142.62804399373232;3.4950858032777905;20.86561710586548;-3.0035256904050707
1445509967620;331.9254010009946;-75.7283988502764;-142.62804399373232;3.4950858032777905;20.86561710586548;-3.0035256904050707
1445509967657;334.80013699479053;-79.52896536145992;-141.6697607437415;-2.263418394470215;19.903148038482666;-2.033126268414408
1445509967693;6.354049690720912;-85.22540988732841;-114.65792957713859;-0.6796540191097418;11.672930194091796;-1.0850222648620604
1445509967727;6.354049690720912;-85.22540988732841;-114.65792957713859;-0.6796540191097418;11.672930194091796;-1.0850222648620604
1445509967763;6.354049690720912;-85.22540988732841;-114.65792957713859;-0.6796540191097418;11.672930194091796;-1.0850222648620604
1445509967801;75.51554354114413;-82.90833108389886;-50.08987631052516;0.0383072265625;6.3569049751833075;-0.18959084396362302
1445509967837;75.51554354114413;-82.90833108389886;-50.08987631052516;0.0383072265625;6.3569049751833075;-0.18959084396362302
1445509967875;75.51554354114413;-82.90833108389886;-50.08987631052516;0.0383072265625;6.3569049751833075;-0.18959084396362302
1445509967913;94.30402324955155;-76.8713752265861;-37.58706350607687;0.07451952667236328;8.929623785168305;2.4696188663206993
1445509967951;92.43745838756813;-75.37072419861528;-42.04711597792414;3.012803514099121;12.025775663757324;2.4842833514891565
1445509967986;83.81317986137611;-76.48507549673748;-51.003805893034766;2.2361843505859373;14.326453529302775;3.0123546012878415
1445509968024;83.81317986137611;-76.48507549673748;-51.003805893034766;2.2361843505859373;14.326453529302775;3.0123546012878415
1445509968059;51.63365517567609;-79.90001553887512;-80.86236499758512;-2.51121819323115;16.472705972290036;2.1481975126404316
1445509968095;355.5339689631165;-73.42264850682876;-136.0152778147529;-12.65081237305328;15.64790350036621;0.46417584686279295
1445509968128;343.665529549743;-66.57498548409592;-145.95731560761416;0.7426514274597168;14.042441649627685;0.17941548690795897
1445509968166;343.665529549743;-66.57498548409592;-145.95731560761416;0.7426514274597168;14.042441649627685;0.17941548690795897
1445509968205;332.7903890043911;-61.449702789431456;-155.0883190270023;-2.987514832128957;10.497676308032124;0.3506009056091308
1445509968240;325.536525570863;-57.125561613856746;-158.90214365587366;-2.1046529516800305;3.1030349891662596;-0.24794950942993163
1445509968278;323.1893707498535;-55.46128930117787;-157.3728717531705;-1.380706096826121;2.131886940765381;-0.19826982498168944
1445509968316;323.1893707498535;-55.46128930117787;-157.3728717531705;-1.380706096826121;2.131886940765381;-0.19826982498168944
1445509968351;323.64047268607044;-57.61215819849315;-155.83405131093647;-0.581641365814209;0.4086602958679199;0.04234744186401367
1445509968385;327.50150809900475;-63.76816149812404;-153.38337468367138;-1.7700632331405766;1.5279495719909668;1.5650596977233886
1445509968420;327.50150809900475;-63.76816149812404;-153.38337468367138;-1.7700632331405766;1.5279495719909668;1.5650596977233886
