sep=;
timestamp;gyro-alpha;gyro-beta;gyro-gamma;accel-x;accel-y;accel-z
1445421521360;91.56060791015625;-0.17676259577274323;0.49067986011505127;-0.1108245849609375;-0.0205841064453125;9.76153564453125
1445421521392;91.55807495117188;-0.17315229773521423;0.4803251624107361;-0.091217041015625;-0.0402069091796875;9.76153564453125
1445421521426;91.5570068359375;-0.1712019443511963;0.49058401584625244;-0.1304473876953125;-0.079437255859375;9.741928100585938
1445421521458;91.571533203125;-0.19293436408042908;0.5104408860206604;-0.1304473876953125;-0.079437255859375;9.70269775390625
1445421521491;91.566162109375;-0.18494589626789093;0.5007858276367188;-0.0519866943359375;-0.0205841064453125;9.70269775390625
1445421521524;91.56503295898438;-0.18345008790493011;0.49330130219459534;-0.091217041015625;-0.0205841064453125;9.722305297851562
1445421521557;91.56365966796875;-0.18127818405628204;0.49585863947868347;-0.1108245849609375;-0.0205841064453125;9.741928100585938
1445421521590;91.56015014648438;-0.17588475346565247;0.4965362846851349;-0.1108245849609375;-0.0402069091796875;9.76153564453125
1445421521624;91.55838012695312;-0.17332817614078522;0.49044227600097656;-0.0716094970703125;-0.0009765625;9.64385986328125
1445421521656;91.56076049804688;-0.17702360451221466;0.4883817434310913;-0.091217041015625;-0.059814453125;9.624237060546875
1445421521689;91.56008911132812;-0.17605969309806824;0.4866868257522583;-0.0519866943359375;-0.059814453125;9.683090209960938
1445421521722;91.56219482421875;-0.1796116977930069;0.4751483201980591;-0.0716094970703125;-0.0205841064453125;9.741928100585938
1445421521754;91.5601806640625;-0.17643354833126068;0.47836917638778687;-0.091217041015625;-0.0205841064453125;9.741928100585938
1445421521788;91.55804443359375;-0.17328967154026031;0.47359752655029297;-0.091217041015625;-0.0205841064453125;9.741928100585938
1445421521821;91.5509033203125;-0.1623535454273224;0.4729776382446289;-0.0716094970703125;-0.0009765625;9.781143188476562
1445421521854;91.54052734375;-0.1470821499824524;0.44937577843666077;-0.032379150390625;0.0186309814453125;9.722305297851562
1445421521887;91.53546142578125;-0.13943448662757874;0.4468875229358673;-0.01275634765625;-0.0009765625;9.741928100585938
1445421521920;91.53012084960938;-0.13187752664089203;0.4232940971851349;-0.01275634765625;0.0186309814453125;9.70269775390625
1445421521953;91.52749633789062;-0.12798050045967102;0.41885676980018616;-0.0716094970703125;-0.0009765625;9.683090209960938
1445421521987;91.52880859375;-0.1300489753484726;0.41625431180000305;-0.0519866943359375;-0.0402069091796875;9.70269775390625
1445421522019;91.51971435546875;-0.11605673283338547;0.4175955057144165;-0.091217041015625;0.0186309814453125;9.70269775390625
1445421522052;91.51611328125;-0.11052819341421127;0.4174641966819763;-0.0519866943359375;-0.0205841064453125;9.76153564453125
1445421522085;91.52291870117188;-0.12125445902347565;0.4067170023918152;-0.032379150390625;-0.079437255859375;9.741928100585938
1445421522118;91.526611328125;-0.12727048993110657;0.39473676681518555;-0.0716094970703125;-0.0402069091796875;9.683090209960938
1445421522153;91.52438354492188;-0.12414572387933731;0.3833748996257782;-0.0519866943359375;-0.0205841064453125;9.741928100585938
1445421522184;91.53482055664062;-0.14006224274635315;0.3866819739341736;-0.0716094970703125;-0.0990447998046875;9.781143188476562
1445421522218;91.55279541015625;-0.1676138937473297;0.3873646557331085;-0.0519866943359375;-0.059814453125;9.781143188476562
1445421522250;91.5594482421875;-0.17779061198234558;0.38773056864738464;-0.032379150390625;-0.0990447998046875;9.76153564453125
1445421522284;91.57528686523438;-0.20266585052013397;0.36630403995513916;0.0068511962890625;-0.079437255859375;9.76153564453125
1445421522315;91.58334350585938;-0.21543917059898376;0.35270774364471436;-0.032379150390625;-0.0402069091796875;9.624237060546875
1445421522351;91.58609008789062;-0.21966978907585144;0.35060402750968933;-0.0519866943359375;-0.059814453125;9.683090209960938
1445421522383;91.59036254882812;-0.22615353763103485;0.354959100484848;-0.0519866943359375;-0.0402069091796875;9.741928100585938
1445421522415;91.59405517578125;-0.23125115036964417;0.3744458854198456;-0.091217041015625;-0.0205841064453125;9.683090209960938
1445421522454;91.59783935546875;-0.23674294352531433;0.38471493124961853;-0.091217041015625;-0.059814453125;9.64385986328125
1445421522481;91.59710693359375;-0.23531515896320343;0.3970792889595032;-0.1304473876953125;-0.0402069091796875;9.663467407226562
1445421522513;91.59234619140625;-0.22780734300613403;0.4029409885406494;-0.0716094970703125;-0.0009765625;9.741928100585938
1445421522547;91.58779907226562;-0.22065870463848114;0.4090634882450104;-0.091217041015625;-0.0205841064453125;9.741928100585938
1445421522580;91.59225463867188;-0.22711282968521118;0.4234943091869354;-0.091217041015625;-0.059814453125;9.781143188476562
1445421522613;91.59375;-0.22951650619506836;0.41945645213127136;-0.0519866943359375;-0.059814453125;9.800765991210938
1445421522646;91.59597778320312;-0.23327286541461945;0.4074127972126007;-0.032379150390625;-0.059814453125;9.76153564453125
1445421522680;91.603759765625;-0.24538195133209229;0.3999837338924408;-0.0519866943359375;-0.079437255859375;9.70269775390625
1445421522713;91.60861206054688;-0.25294238328933716;0.3963492512702942;-0.0716094970703125;-0.0990447998046875;9.683090209960938
1445421522745;91.62954711914062;-0.285102516412735;0.39526695013046265;-0.0716094970703125;-0.138275146484375;9.76153564453125
1445421522779;91.63677978515625;-0.29617998003959656;0.3952139914035797;-0.0519866943359375;-0.059814453125;9.70269775390625
1445421522811;91.63595581054688;-0.2949120104312897;0.3953194320201874;-0.0716094970703125;-0.0402069091796875;9.741928100585938
1445421522845;91.6456298828125;-0.31008294224739075;0.38292112946510315;-0.032379150390625;-0.079437255859375;9.722305297851562
1445421522877;91.63714599609375;-0.29740819334983826;0.3716309368610382;-0.032379150390625;-0.059814453125;9.741928100585938
1445421522910;91.6326904296875;-0.2906757891178131;0.36946821212768555;-0.0519866943359375;-0.0205841064453125;9.781143188476562
1445421522942;91.62612915039062;-0.28055340051651;0.37118908762931824;-0.091217041015625;-0.0009765625;9.82037353515625
1445421522977;91.61782836914062;-0.26765936613082886;0.37659257650375366;-0.091217041015625;-0.0402069091796875;9.781143188476562
1445421523008;91.6141357421875;-0.261714369058609;0.3861275613307953;-0.0716094970703125;-0.0205841064453125;9.82037353515625
1445421523042;91.6083984375;-0.25287926197052;0.38683974742889404;-0.0519866943359375;-0.0205841064453125;9.800765991210938
1445421523076;91.6083984375;-0.25291964411735535;0.3863738775253296;-0.0716094970703125;-0.0402069091796875;9.800765991210938
1445421523108;91.60296630859375;-0.2446443885564804;0.3845190703868866;-0.0716094970703125;-0.0402069091796875;9.722305297851562
1445421523141;91.60745239257812;-0.25184130668640137;0.37261876463890076;-0.0519866943359375;-0.059814453125;9.741928100585938
1445421523175;91.60568237304688;-0.24915292859077454;0.3720220625400543;-0.0716094970703125;-0.0205841064453125;9.82037353515625
1445421523207;91.62213134765625;-0.2747291922569275;0.359863817691803;-0.032379150390625;-0.0990447998046875;9.76153564453125
1445421523240;91.6295166015625;-0.28659388422966003;0.34074780344963074;-0.032379150390625;-0.0402069091796875;9.722305297851562
1445421523273;91.62557983398438;-0.2805934250354767;0.33965247869491577;-0.0519866943359375;-0.0205841064453125;9.683090209960938
1445421523306;91.62008666992188;-0.2721025347709656;0.3423527479171753;-0.091217041015625;-0.0009765625;9.76153564453125
1445421523339;91.62179565429688;-0.27441200613975525;0.35338667035102844;-0.0519866943359375;-0.0009765625;9.741928100585938
1445421523372;91.61358642578125;-0.26181063055992126;0.3525528311729431;-0.0519866943359375;-0.0009765625;9.781143188476562
1445421523405;91.61749267578125;-0.2679780125617981;0.34719783067703247;-0.0519866943359375;-0.079437255859375;9.741928100585938
1445421523438;91.62399291992188;-0.27753975987434387;0.3608173727989197;-0.1108245849609375;-0.059814453125;9.800765991210938
1445421523472;91.62612915039062;-0.2806907892227173;0.36556899547576904;-0.032379150390625;-0.0402069091796875;9.800765991210938
1445421523504;91.60833740234375;-0.25331559777259827;0.3692823052406311;-0.0716094970703125;0.0186309814453125;9.859603881835938
1445421523537;91.60562133789062;-0.24892212450504303;0.3762200176715851;-0.091217041015625;-0.0205841064453125;9.800765991210938
1445421523570;91.62506103515625;-0.2781413197517395;0.3984219431877136;-0.1304473876953125;-0.138275146484375;9.70269775390625
1445421523603;91.61453247070312;-0.2620624005794525;0.39565831422805786;-0.01275634765625;-0.0402069091796875;9.741928100585938
1445421523636;91.62124633789062;-0.27260422706604004;0.3872458338737488;-0.032379150390625;-0.0990447998046875;9.722305297851562
1445421523669;91.62774658203125;-0.28272172808647156;0.3813942074775696;-0.0716094970703125;-0.059814453125;9.76153564453125
1445421523701;91.625;-0.27823182940483093;0.3913612365722656;-0.1108245849609375;-0.079437255859375;9.70269775390625
1445421523735;91.63525390625;-0.2937161326408386;0.39985406398773193;-0.0716094970703125;-0.0990447998046875;9.722305297851562
1445421523768;91.62213134765625;-0.2732072174549103;0.41322192549705505;-0.1108245849609375;-0.0009765625;9.722305297851562
1445421523800;91.61187744140625;-0.2574993371963501;0.41302794218063354;-0.0519866943359375;0.0382537841796875;9.76153564453125
1445421523834;91.59576416015625;-0.2328038513660431;0.4131334125995636;-0.0716094970703125;-0.0205841064453125;9.741928100585938
1445421523867;91.59573364257812;-0.23235653340816498;0.42576342821121216;-0.1108245849609375;-0.059814453125;9.741928100585938
1445421523900;91.59756469726562;-0.2351842075586319;0.4257989227771759;-0.1108245849609375;-0.079437255859375;9.76153564453125
1445421523934;91.60076904296875;-0.23958702385425568;0.44416970014572144;-0.1304473876953125;-0.0205841064453125;9.76153564453125
1445421523967;91.60800170898438;-0.2503340542316437;0.4561328589916229;-0.091217041015625;-0.0402069091796875;9.722305297851562
1445421523999;91.60379028320312;-0.24377763271331787;0.4587273895740509;-0.091217041015625;-0.0009765625;9.722305297851562
1445421524032;91.60189819335938;-0.2410358339548111;0.45402225852012634;-0.032379150390625;-0.0402069091796875;9.64385986328125
1445421524065;91.60415649414062;-0.24467425048351288;0.44740352034568787;-0.032379150390625;-0.0205841064453125;9.624237060546875
1445421524097;91.59796142578125;-0.23554082214832306;0.4352095425128937;-0.0519866943359375;-0.0205841064453125;9.70269775390625
1445421524131;91.60464477539062;-0.2462378442287445;0.418917179107666;-0.032379150390625;-0.079437255859375;9.741928100585938
1445421524164;91.61148071289062;-0.25658875703811646;0.4233344793319702;-0.091217041015625;-0.079437255859375;9.722305297851562
1445421524198;91.61553955078125;-0.26264145970344543;0.4292900562286377;-0.0716094970703125;-0.059814453125;9.722305297851562
1445421524230;91.61932373046875;-0.26827239990234375;0.43595999479293823;-0.0716094970703125;-0.0205841064453125;9.741928100585938
1445421524265;91.6097412109375;-0.253581166267395;0.43569397926330566;-0.032379150390625;-0.0205841064453125;9.70269775390625
1445421524296;91.605224609375;-0.2468799203634262;0.42690983414649963;-0.0519866943359375;-0.0402069091796875;9.70269775390625
1445421524328;91.60125732421875;-0.24096034467220306;0.4215351343154907;-0.1108245849609375;0.0186309814453125;9.781143188476562
1445421524363;91.590087890625;-0.22375044226646423;0.4248422086238861;-0.091217041015625;-0.0009765625;9.683090209960938
1445421524397;91.5858154296875;-0.2170497328042984;0.4294642210006714;-0.0716094970703125;-0.0402069091796875;9.663467407226562
1445421524428;91.58322143554688;-0.213149756193161;0.4278433918952942;-0.0716094970703125;-0.0205841064453125;9.741928100585938
1445421524463;91.58029174804688;-0.20850764214992523;0.43248918652534485;-0.0716094970703125;-0.0205841064453125;9.741928100585938
1445421524493;91.57797241210938;-0.20489993691444397;0.4353712499141693;-0.091217041015625;-0.0009765625;9.722305297851562
1445421524529;91.57769775390625;-0.20471757650375366;0.4259469211101532;-0.032379150390625;-0.0402069091796875;9.76153564453125
1445421524560;91.56631469726562;-0.187090203166008;0.43215394020080566;-0.1304473876953125;-0.0205841064453125;9.70269775390625
1445421524593;91.57254028320312;-0.1958300769329071;0.4620979428291321;-0.1304473876953125;-0.059814453125;9.64385986328125
1445421524626;91.57769775390625;-0.20342613756656647;0.4733947813510895;-0.1108245849609375;-0.059814453125;9.722305297851562
1445421524659;91.58197021484375;-0.20979703962802887;0.47951722145080566;-0.1108245849609375;-0.11865234375;9.663467407226562
1445421524692;91.59759521484375;-0.23355017602443695;0.4848594069480896;-0.0519866943359375;-0.079437255859375;9.722305297851562
1445421524726;91.59426879882812;-0.22836172580718994;0.4879639744758606;-0.091217041015625;-0.0009765625;9.76153564453125
1445421524758;91.58969116210938;-0.22161872684955597;0.4788307249546051;-0.0716094970703125;-0.0205841064453125;9.741928100585938
1445421524790;91.59530639648438;-0.23013818264007568;0.4823254942893982;-0.1108245849609375;-0.0402069091796875;9.800765991210938
1445421524824;91.5902099609375;-0.22213202714920044;0.4899573028087616;-0.0716094970703125;-0.0009765625;9.76153564453125
1445421524857;91.58538818359375;-0.2147795855998993;0.48844942450523376;-0.0716094970703125;-0.0205841064453125;9.722305297851562
1445421524891;91.57757568359375;-0.20273126661777496;0.4894433915615082;-0.091217041015625;-0.0009765625;9.722305297851562
1445421524923;91.56906127929688;-0.18970155715942383;0.48949968814849854;-0.0519866943359375;-0.0009765625;9.70269775390625
1445421524956;91.5625;-0.1802537888288498;0.46836161613464355;-0.0519866943359375;0.0186309814453125;9.683090209960938
1445421524989;91.55972290039062;-0.17610004544258118;0.4651564657688141;-0.032379150390625;-0.0009765625;9.70269775390625
1445421525021;91.56146240234375;-0.17915311455726624;0.4498099684715271;-0.0519866943359375;-0.0402069091796875;9.683090209960938
1445421525055;91.54827880859375;-0.15876178443431854;0.4568752646446228;-0.091217041015625;0.057861328125;9.76153564453125
1445421525088;91.54656982421875;-0.15597420930862427;0.46305912733078003;-0.1108245849609375;-0.0205841064453125;9.70269775390625
1445421525122;91.53668212890625;-0.14035387337207794;0.4808899164199829;-0.1108245849609375;0.0186309814453125;9.663467407226562
1445421525155;91.5474853515625;-0.15667492151260376;0.4883323609828949;-0.091217041015625;-0.059814453125;9.800765991210938
1445421525187;91.5545654296875;-0.16753296554088593;0.48870763182640076;-0.091217041015625;-0.079437255859375;9.741928100585938
1445421525220;91.567138671875;-0.18660755455493927;0.49512991309165955;-0.1108245849609375;-0.0990447998046875;9.683090209960938
1445421525253;91.57431030273438;-0.197776660323143;0.48950275778770447;-0.0716094970703125;-0.059814453125;9.70269775390625
1445421525287;91.58444213867188;-0.21347074210643768;0.4827113747596741;-0.0716094970703125;-0.079437255859375;9.683090209960938
1445421525319;91.5789794921875;-0.20550304651260376;0.469645619392395;-0.0519866943359375;-0.0205841064453125;9.722305297851562
1445421525351;91.583984375;-0.21324974298477173;0.46594494581222534;-0.0519866943359375;-0.0205841064453125;9.800765991210938
1445421525385;91.5728759765625;-0.1965429037809372;0.4552123248577118;-0.0519866943359375;0.0186309814453125;9.76153564453125
1445421525418;91.56820678710938;-0.18977198004722595;0.44095370173454285;-0.032379150390625;-0.0205841064453125;9.741928100585938
1445421525451;91.5736083984375;-0.19810016453266144;0.43830403685569763;-0.0716094970703125;-0.079437255859375;9.683090209960938
1445421525484;91.5831298828125;-0.2127731889486313;0.43532729148864746;-0.0716094970703125;-0.079437255859375;9.663467407226562
1445421525517;91.58181762695312;-0.2108602076768875;0.43288663029670715;-0.0716094970703125;-0.0205841064453125;9.70269775390625
1445421525551;91.57974243164062;-0.20787982642650604;0.4247221052646637;-0.032379150390625;-0.0402069091796875;9.70269775390625
1445421525584;91.5552978515625;-0.1706819087266922;0.41628608107566833;-0.0519866943359375;0.0382537841796875;9.76153564453125
1445421525618;91.55697631835938;-0.1731056571006775;0.4206034243106842;-0.1108245849609375;-0.0990447998046875;9.722305297851562
1445421525655;91.58367919921875;-0.21321704983711243;0.45040661096572876;-0.0519866943359375;-0.0009765625;9.741928100585938
1445421525684;91.5584716796875;-0.17500460147857666;0.43568629026412964;-0.032379150390625;0.057861328125;9.781143188476562
1445421525715;91.55859375;-0.17529742419719696;0.4313220977783203;-0.0716094970703125;-0.11865234375;9.683090209960938
1445421525747;91.56552124023438;-0.18573738634586334;0.43772637844085693;-0.1108245849609375;0.0186309814453125;9.722305297851562
1445421525781;91.53302001953125;-0.13591639697551727;0.43871670961380005;-0.0716094970703125;0.057861328125;9.683090209960938
1445421525814;91.53408813476562;-0.1377464234828949;0.4306491017341614;-0.032379150390625;-0.0402069091796875;9.683090209960938
1445421525849;91.54135131835938;-0.1487465500831604;0.4357134699821472;-0.0519866943359375;-0.0205841064453125;9.70269775390625
1445421525879;91.5350341796875;-0.13968370854854584;0.4135868549346924;-0.032379150390625;-0.0402069091796875;9.781143188476562
1445421525914;91.54193115234375;-0.15024636685848236;0.4122576415538788;-0.0519866943359375;-0.079437255859375;9.683090209960938
1445421525946;91.53701782226562;-0.14309050142765045;0.3996310830116272;-0.032379150390625;0.0382537841796875;9.722305297851562
1445421525979;91.52584838867188;-0.12611111998558044;0.39397186040878296;-0.0519866943359375;-0.0205841064453125;9.82037353515625
1445421526013;91.52459716796875;-0.12412150949239731;0.3963470757007599;-0.0716094970703125;-0.0205841064453125;9.76153564453125
1445421526046;91.52920532226562;-0.13125722110271454;0.39383330941200256;-0.091217041015625;0.0186309814453125;9.82037353515625
1445421526078;91.51852416992188;-0.1148780807852745;0.3940913677215576;-0.1108245849609375;0.057861328125;9.800765991210938
1445421526112;91.51153564453125;-0.1039486676454544;0.4010341763496399;-0.1108245849609375;-0.059814453125;9.722305297851562
1445421526145;91.5321044921875;-0.13564981520175934;0.3961292803287506;-0.0519866943359375;-0.079437255859375;9.722305297851562
1445421526177;91.53912353515625;-0.1464468091726303;0.39383962750434875;-0.1108245849609375;-0.079437255859375;9.683090209960938
1445421526210;91.55084228515625;-0.16411356627941132;0.40519940853118896;-0.091217041015625;-0.059814453125;9.722305297851562
1445421526243;91.55813598632812;-0.17507725954055786;0.41410526633262634;-0.091217041015625;-0.0205841064453125;9.741928100585938
1445421526276;91.55636596679688;-0.17201592028141022;0.42681509256362915;-0.1108245849609375;0.0186309814453125;9.76153564453125
1445421526308;91.55697631835938;-0.17265860736370087;0.4367842674255371;-0.091217041015625;-0.0402069091796875;9.683090209960938
1445421526341;91.56439208984375;-0.18402960896492004;0.4365466833114624;-0.0716094970703125;-0.0009765625;9.741928100585938
1445421526375;91.55410766601562;-0.16834041476249695;0.43438905477523804;-0.0519866943359375;0.077484130859375;9.82037353515625
1445421526408;91.56356811523438;-0.18312226235866547;0.4240345358848572;-0.0519866943359375;-0.059814453125;9.70269775390625
1445421526441;91.57620239257812;-0.2024059295654297;0.42629674077033997;-0.1304473876953125;-0.0205841064453125;9.683090209960938
1445421526474;91.57345581054688;-0.19753998517990112;0.45119741559028625;-0.1304473876953125;-0.0205841064453125;9.663467407226562
1445421526507;91.56521606445312;-0.18473081290721893;0.45704641938209534;-0.0716094970703125;-0.0402069091796875;9.683090209960938
1445421526541;91.57049560546875;-0.19281478226184845;0.4565684199333191;-0.032379150390625;-0.0402069091796875;9.722305297851562
1445421526573;91.56631469726562;-0.1866196095943451;0.44978559017181396;-0.0716094970703125;-0.0009765625;9.741928100585938
1445421526605;91.569580078125;-0.19135528802871704;0.4603215157985687;-0.1108245849609375;-0.0402069091796875;9.683090209960938
1445421526639;91.57037353515625;-0.19223375618457794;0.47078534960746765;-0.1108245849609375;-0.0205841064453125;9.683090209960938
1445421526672;91.56997680664062;-0.1917908936738968;0.4656819999217987;-0.032379150390625;-0.0205841064453125;9.839996337890625
1445421526706;91.58001708984375;-0.20763011276721954;0.44938164949417114;-0.032379150390625;-0.11865234375;9.76153564453125
1445421526738;91.5849609375;-0.21532699465751648;0.44448375701904297;-0.0519866943359375;-0.059814453125;9.683090209960938
1445421526772;91.60470581054688;-0.2456888109445572;0.44195058941841125;-0.0716094970703125;-0.0990447998046875;9.70269775390625
1445421526804;91.6046142578125;-0.24533455073833466;0.4486660063266754;-0.091217041015625;-0.079437255859375;9.76153564453125
1445421526837;91.61752319335938;-0.2652069628238678;0.44550976157188416;-0.0716094970703125;-0.0990447998046875;9.76153564453125
1445421526870;91.62985229492188;-0.2849125862121582;0.41800013184547424;-0.01275634765625;-0.11865234375;9.781143188476562
1445421526903;91.63583374023438;-0.2944505512714386;0.40560221672058105;-0.01275634765625;-0.0990447998046875;9.741928100585938
1445421526936;91.6458740234375;-0.30988532304763794;0.40328449010849;-0.0716094970703125;-0.079437255859375;9.741928100585938
1445421526969;91.65093994140625;-0.3175588548183441;0.4076925218105316;-0.0716094970703125;-0.0402069091796875;9.663467407226562
1445421527005;91.6466064453125;-0.3110518753528595;0.40284621715545654;-0.032379150390625;-0.0205841064453125;9.76153564453125
1445421527035;91.65151977539062;-0.319411039352417;0.3741670548915863;0.0068511962890625;-0.079437255859375;9.800765991210938
1445421527068;91.65658569335938;-0.3275936543941498;0.35936200618743896;-0.0519866943359375;-0.059814453125;9.70269775390625
1445421527101;91.6591796875;-0.33146780729293823;0.3633763790130615;-0.091217041015625;-0.0402069091796875;9.76153564453125
1445421527134;91.65133666992188;-0.31985023617744446;0.34930336475372314;-0.01275634765625;-0.0205841064453125;9.70269775390625
1445421527167;91.65142822265625;-0.32010430097579956;0.34603968262672424;-0.091217041015625;-0.079437255859375;9.70269775390625
1445421527201;91.66177368164062;-0.3356337249279022;0.35696107149124146;-0.091217041015625;-0.138275146484375;9.70269775390625
1445421527233;91.65402221679688;-0.32364118099212646;0.36095333099365234;-0.091217041015625;-0.0009765625;9.70269775390625
1445421527267;91.65118408203125;-0.3190707564353943;0.36736631393432617;-0.1304473876953125;0.0186309814453125;9.781143188476562
1445421527300;91.63900756835938;-0.2996518313884735;0.39372608065605164;-0.1108245849609375;-0.0205841064453125;9.741928100585938
1445421527333;91.6236572265625;-0.2760121822357178;0.3971792161464691;-0.0519866943359375;0.0186309814453125;9.800765991210938
1445421527367;91.61688232421875;-0.26563751697540283;0.3965933918952942;-0.032379150390625;-0.0205841064453125;9.741928100585938
1445421527397;91.60635375976562;-0.24970698356628418;0.3884188234806061;-0.0716094970703125;-0.0009765625;9.741928100585938
1445421527430;91.60540771484375;-0.24837446212768555;0.3837062120437622;-0.0716094970703125;-0.0402069091796875;9.70269775390625
1445421527471;91.61355590820312;-0.2607886493206024;0.38732507824897766;-0.0519866943359375;-0.079437255859375;9.683090209960938
1445421527497;91.6224365234375;-0.27461838722229004;0.3805801272392273;-0.032379150390625;-0.11865234375;9.663467407226562
1445421527531;91.62429809570312;-0.27762356400489807;0.3746807873249054;-0.01275634765625;-0.0990447998046875;9.70269775390625
1445421527563;91.63702392578125;-0.2977771759033203;0.35286545753479004;-0.01275634765625;-0.0990447998046875;9.76153564453125
1445421527596;91.6334228515625;-0.2920748293399811;0.3583618998527527;-0.0519866943359375;-0.0402069091796875;9.683090209960938
1445421527630;91.63897705078125;-0.3004888594150543;0.36259588599205017;-0.032379150390625;-0.138275146484375;9.683090209960938
1445421527665;91.65509033203125;-0.3254334032535553;0.3557623624801636;-0.0519866943359375;-0.0990447998046875;9.722305297851562
1445421527696;91.65423583984375;-0.324120432138443;0.3555457293987274;-0.0519866943359375;-0.079437255859375;9.722305297851562
1445421527730;91.65719604492188;-0.3287133276462555;0.3535310924053192;-0.091217041015625;-0.079437255859375;9.70269775390625
1445421527762;91.65927124023438;-0.3316251337528229;0.36305171251296997;-0.091217041015625;-0.0402069091796875;9.76153564453125
1445421527794;91.66290283203125;-0.33669334650039673;0.3792561888694763;-0.091217041015625;-0.079437255859375;9.70269775390625
1445421527827;91.66531372070312;-0.34056660532951355;0.3742128014564514;-0.032379150390625;-0.059814453125;9.800765991210938
1445421527862;91.66839599609375;-0.3454269468784332;0.36959293484687805;-0.0716094970703125;-0.0205841064453125;9.663467407226562
1445421527893;91.66510009765625;-0.34017983078956604;0.37611833214759827;-0.1108245849609375;-0.0205841064453125;9.663467407226562
1445421527926;91.66558837890625;-0.3405389189720154;0.38996151089668274;-0.091217041015625;-0.0990447998046875;9.683090209960938
1445421527959;91.659423828125;-0.3306201696395874;0.40532734990119934;-0.1108245849609375;-0.0402069091796875;9.683090209960938
1445421527993;91.654296875;-0.32265856862068176;0.4088487923145294;-0.1304473876953125;-0.059814453125;9.722305297851562
1445421528025;91.6463623046875;-0.3101979196071625;0.4179377555847168;-0.0716094970703125;-0.0009765625;9.741928100585938
1445421528058;91.64068603515625;-0.30162960290908813;0.41459721326828003;-0.0519866943359375;-0.0205841064453125;9.722305297851562
1445421528092;91.640380859375;-0.301284521818161;0.4107959270477295;-0.091217041015625;-0.0402069091796875;9.683090209960938
1445421528124;91.63165283203125;-0.28771311044692993;0.4157679080963135;-0.091217041015625;-0.0205841064453125;9.64385986328125
1445421528157;91.62905883789062;-0.2843357026576996;0.3951447010040283;-0.032379150390625;-0.079437255859375;9.663467407226562
1445421528193;91.628173828125;-0.2830870449542999;0.39225736260414124;-0.0716094970703125;-0.0990447998046875;9.76153564453125
1445421528223;91.63848876953125;-0.2986930012702942;0.39816269278526306;-0.0716094970703125;-0.079437255859375;9.839996337890625
1445421528256;91.64212036132812;-0.30417168140411377;0.40251344442367554;-0.1108245849609375;-0.0990447998046875;9.781143188476562
1445421528289;91.65032958984375;-0.3166749179363251;0.4059310555458069;-0.032379150390625;-0.079437255859375;9.76153564453125
1445421528323;91.66159057617188;-0.33421608805656433;0.39538633823394775;-0.032379150390625;-0.0990447998046875;9.741928100585938
1445421528356;91.66131591796875;-0.3338572084903717;0.3944280445575714;-0.0519866943359375;-0.0990447998046875;9.722305297851562
1445421528388;91.67413330078125;-0.3538191020488739;0.3841474652290344;-0.032379150390625;-0.0990447998046875;9.76153564453125
1445421528420;91.6903076171875;-0.37856966257095337;0.38601601123809814;-0.0519866943359375;-0.11865234375;9.741928100585938
1445421528455;91.68618774414062;-0.3721441328525543;0.3894728422164917;-0.1108245849609375;-0.079437255859375;9.741928100585938
1445421528487;91.68661499023438;-0.3721226751804352;0.4113776385784149;-0.1304473876953125;-0.079437255859375;9.722305297851562
1445421528520;91.67230224609375;-0.3498986065387726;0.42060917615890503;-0.0716094970703125;0.0186309814453125;9.722305297851562
1445421528553;91.672607421875;-0.3504455089569092;0.4187714159488678;-0.0716094970703125;-0.059814453125;9.624237060546875
1445421528586;91.64645385742188;-0.30958518385887146;0.44456571340560913;-0.1696624755859375;0.0186309814453125;9.683090209960938
1445421528619;91.63189697265625;-0.2867461144924164;0.46251752972602844;-0.1108245849609375;-0.0990447998046875;9.683090209960938
1445421528653;91.6531982421875;-0.31893450021743774;0.47757360339164734;-0.1108245849609375;-0.138275146484375;9.604629516601562
1445421528685;91.632568359375;-0.28708550333976746;0.4866926968097687;-0.1108245849609375;0.0382537841796875;9.722305297851562
1445421528719;91.60772705078125;-0.24911192059516907;0.48447832465171814;-0.0716094970703125;0.0186309814453125;9.741928100585938
1445421528751;91.60150146484375;-0.23991051316261292;0.471301794052124;-0.032379150390625;-0.0990447998046875;9.64385986328125
1445421528784;91.61434936523438;-0.25984516739845276;0.46374624967575073;-0.0716094970703125;-0.0402069091796875;9.683090209960938
1445421528818;91.5947265625;-0.22980996966362;0.4621995687484741;-0.0716094970703125;0.0382537841796875;9.800765991210938
1445421528850;91.56939697265625;-0.1912611722946167;0.4524480998516083;-0.032379150390625;0.0186309814453125;9.781143188476562
1445421528883;91.57614135742188;-0.20229116082191467;0.4269751012325287;-0.032379150390625;-0.059814453125;9.741928100585938
1445421528915;91.56695556640625;-0.1882474720478058;0.4271652102470398;-0.0716094970703125;0.0186309814453125;9.800765991210938
1445421528949;91.55511474609375;-0.1703694611787796;0.41569700837135315;-0.0519866943359375;-0.0402069091796875;9.741928100585938
1445421528983;91.55575561523438;-0.17108222842216492;0.42598384618759155;-0.091217041015625;-0.0009765625;9.800765991210938
1445421529015;91.53839111328125;-0.14420481026172638;0.43591463565826416;-0.091217041015625;0.0382537841796875;9.76153564453125
1445421529048;91.53607177734375;-0.14032237231731415;0.44798702001571655;-0.1108245849609375;-0.079437255859375;9.663467407226562
1445421529081;91.5433349609375;-0.15123799443244934;0.45503735542297363;-0.091217041015625;-0.0402069091796875;9.741928100585938
1445421529114;91.54534912109375;-0.15422292053699493;0.45846471190452576;-0.0716094970703125;-0.0402069091796875;9.741928100585938
1445421529147;91.5545654296875;-0.1684071570634842;0.45706886053085327;-0.0716094970703125;-0.059814453125;9.741928100585938
1445421529180;91.56185913085938;-0.17970846593379974;0.45312389731407166;-0.032379150390625;-0.0205841064453125;9.741928100585938
1445421529214;91.55218505859375;-0.16542500257492065;0.4332963526248932;-0.01275634765625;0.0186309814453125;9.781143188476562
1445421529246;91.54598999023438;-0.1562490314245224;0.42133697867393494;-0.0716094970703125;-0.0205841064453125;9.741928100585938
1445421529280;91.55364990234375;-0.16792461276054382;0.4242621660232544;-0.1108245849609375;-0.059814453125;9.741928100585938
1445421529313;91.55606079101562;-0.1712019294500351;0.43969401717185974;-0.1108245849609375;-0.0205841064453125;9.76153564453125
1445421529346;91.5489501953125;-0.16033779084682465;0.43759825825691223;-0.0519866943359375;-0.0205841064453125;9.70269775390625
1445421529378;91.5478515625;-0.15878145396709442;0.43327242136001587;-0.0519866943359375;-0.0205841064453125;9.722305297851562
1445421529414;91.54205322265625;-0.1501895785331726;0.4219677746295929;-0.01275634765625;-0.0009765625;9.741928100585938
1445421529444;91.536865234375;-0.14251571893692017;0.41248396039009094;-0.032379150390625;-0.0205841064453125;9.76153564453125
1445421529477;91.53976440429688;-0.14738191664218903;0.3966379463672638;-0.032379150390625;-0.0205841064453125;9.683090209960938
1445421529511;91.53955078125;-0.1471901684999466;0.39241498708724976;-0.0716094970703125;-0.0205841064453125;9.741928100585938
1445421529543;91.53787231445312;-0.14432913064956665;0.40105465054512024;-0.0716094970703125;-0.0205841064453125;9.741928100585938
1445421529576;91.5382080078125;-0.1448579579591751;0.40243998169898987;-0.0716094970703125;-0.0402069091796875;9.722305297851562
1445421529609;91.53854370117188;-0.14556188881397247;0.39419034123420715;-0.0716094970703125;-0.0205841064453125;9.781143188476562
1445421529647;91.53851318359375;-0.14556795358657837;0.3929829001426697;-0.0716094970703125;-0.079437255859375;9.70269775390625
1445421529675;91.54898071289062;-0.16150544583797455;0.3972551226615906;-0.091217041015625;-0.059814453125;9.663467407226562
1445421529709;91.53475952148438;-0.1392521858215332;0.4130026400089264;-0.1108245849609375;0.0382537841796875;9.781143188476562
1445421529742;91.53060913085938;-0.13260234892368317;0.4236127734184265;-0.1304473876953125;0.0186309814453125;9.781143188476562
1445421529774;91.534912109375;-0.1390133500099182;0.4298103451728821;-0.091217041015625;-0.059814453125;9.683090209960938
1445421529807;91.53201293945312;-0.1345720738172531;0.42963600158691406;-0.1108245849609375;-0.0205841064453125;9.663467407226562
1445421529840;91.52789306640625;-0.12786617875099182;0.4439370930194855;-0.150054931640625;-0.0009765625;9.741928100585938
1445421529873;91.5322265625;-0.13374413549900055;0.4723963737487793;-0.1304473876953125;-0.0402069091796875;9.722305297851562
1445421529905;91.52883911132812;-0.1283731460571289;0.47976404428482056;-0.091217041015625;0.0186309814453125;9.722305297851562
1445421529939;91.52105712890625;-0.11655174195766449;0.47612568736076355;-0.0519866943359375;-0.0205841064453125;9.76153564453125
1445421529972;91.5264892578125;-0.12491661310195923;0.474365770816803;-0.1108245849609375;-0.059814453125;9.722305297851562
1445421530006;91.53500366210938;-0.13811007142066956;0.46936702728271484;-0.091217041015625;-0.079437255859375;9.781143188476562
1445421530038;91.54177856445312;-0.14813795685768127;0.48178577423095703;-0.1108245849609375;-0.0402069091796875;9.722305297851562
1445421530071;91.55517578125;-0.16844908893108368;0.48943641781806946;-0.0716094970703125;-0.079437255859375;9.663467407226562
1445421530104;91.56549072265625;-0.18438588082790375;0.4852348566055298;-0.0519866943359375;-0.0990447998046875;9.58502197265625
1445421530137;91.57275390625;-0.19566987454891205;0.47788697481155396;-0.0716094970703125;-0.059814453125;9.76153564453125
1445421530170;91.584716796875;-0.21350669860839844;0.49616900086402893;-0.1304473876953125;-0.079437255859375;9.741928100585938
1445421530203;91.58587646484375;-0.2150939553976059;0.5027162432670593;-0.1304473876953125;-0.0402069091796875;9.781143188476562
1445421530236;91.58621215820312;-0.21569125354290009;0.5010228753089905;-0.0716094970703125;-0.0205841064453125;9.683090209960938
1445421530271;91.58523559570312;-0.2145901322364807;0.4865303635597229;-0.032379150390625;-0.059814453125;9.70269775390625
1445421530302;91.59115600585938;-0.2241981029510498;0.4664902985095978;-0.032379150390625;-0.059814453125;9.76153564453125
1445421530336;91.6148681640625;-0.260711133480072;0.4607921540737152;-0.0716094970703125;-0.11865234375;9.70269775390625
1445421530368;91.6156005859375;-0.2619786560535431;0.4558415710926056;-0.0519866943359375;-0.059814453125;9.722305297851562
1445421530401;91.62277221679688;-0.2732705771923065;0.44465604424476624;-0.0519866943359375;-0.11865234375;9.722305297851562
1445421530435;91.62655639648438;-0.2792033851146698;0.44028201699256897;-0.0519866943359375;-0.059814453125;9.76153564453125
1445421530467;91.626220703125;-0.2787352204322815;0.43809038400650024;-0.032379150390625;-0.079437255859375;9.70269775390625
1445421530500;91.6300048828125;-0.2848241329193115;0.42841923236846924;-0.0519866943359375;-0.059814453125;9.741928100585938
1445421530533;91.63165283203125;-0.2874152362346649;0.4271887242794037;-0.1108245849609375;-0.11865234375;9.781143188476562
1445421530566;91.6412353515625;-0.30194392800331116;0.4326460659503937;-0.0716094970703125;-0.059814453125;9.741928100585938
1445421530599;91.64678955078125;-0.3109307885169983;0.4164804518222809;-0.032379150390625;-0.059814453125;9.70269775390625
1445421530632;91.64181518554688;-0.3036949932575226;0.4026895761489868;-0.0519866943359375;-0.0205841064453125;9.70269775390625
1445421530664;91.64328002929688;-0.30597519874572754;0.40124624967575073;-0.0716094970703125;-0.059814453125;9.722305297851562
1445421530698;91.63885498046875;-0.29973849654197693;0.3818422555923462;-0.01275634765625;-0.0009765625;9.741928100585938
1445421530730;91.63690185546875;-0.2969335913658142;0.3751022517681122;-0.0716094970703125;-0.0402069091796875;9.663467407226562
1445421530765;91.6357421875;-0.29522231221199036;0.37311694025993347;-0.032379150390625;-0.059814453125;9.70269775390625
1445421530797;91.62490844726562;-0.278732031583786;0.36873775720596313;-0.0519866943359375;-0.0009765625;9.70269775390625
1445421530832;91.61962890625;-0.2707555294036865;0.36526334285736084;-0.091217041015625;0.0186309814453125;9.741928100585938
1445421530863;91.60208129882812;-0.24352551996707916;0.3753194510936737;-0.0716094970703125;0.0186309814453125;9.741928100585938
1445421530896;91.58782958984375;-0.22146642208099365;0.3834975063800812;-0.0716094970703125;-0.0009765625;9.70269775390625
1445421530933;91.58245849609375;-0.213553786277771;0.37194523215293884;-0.0716094970703125;-0.0205841064453125;9.683090209960938
1445421530962;91.57327270507812;-0.199447363615036;0.37123239040374756;-0.0519866943359375;-0.0009765625;9.741928100585938
1445421530995;91.56936645507812;-0.1932877153158188;0.3778493106365204;-0.0716094970703125;-0.0205841064453125;9.76153564453125
1445421531030;91.572998046875;-0.1989494413137436;0.3736823499202728;-0.0519866943359375;-0.059814453125;9.76153564453125
1445421531062;91.5628662109375;-0.18335534632205963;0.3770850598812103;-0.091217041015625;-0.0009765625;9.800765991210938
1445421531094;91.56246948242188;-0.18272368609905243;0.376784086227417;-0.032379150390625;-0.0205841064453125;9.741928100585938
1445421531127;91.56796264648438;-0.19158658385276794;0.3622913658618927;-0.032379150390625;-0.079437255859375;9.781143188476562
1445421531160;91.56707763671875;-0.18992853164672852;0.37157219648361206;-0.091217041015625;-0.0009765625;9.741928100585938
1445421531193;91.56097412109375;-0.18043385446071625;0.3761766254901886;-0.091217041015625;0.0186309814453125;9.781143188476562
1445421531225;91.5526123046875;-0.16751669347286224;0.3811609745025635;-0.0519866943359375;-0.0205841064453125;9.741928100585938
1445421531259;91.55706787109375;-0.17429561913013458;0.38295984268188477;-0.0519866943359375;-0.0402069091796875;9.741928100585938
1445421531294;91.5531005859375;-0.1682296097278595;0.38190990686416626;-0.0519866943359375;-0.0009765625;9.722305297851562
1445421531325;91.55157470703125;-0.16627810895442963;0.36860018968582153;-0.01275634765625;-0.0009765625;9.663467407226562
1445421531358;91.5533447265625;-0.1697678416967392;0.34039852023124695;0.0068511962890625;-0.0402069091796875;9.781143188476562
1445421531391;91.55645751953125;-0.17484521865844727;0.327491819858551;-0.01275634765625;-0.059814453125;9.76153564453125
1445421531424;91.56878662109375;-0.19349947571754456;0.33713498711586;-0.0716094970703125;-0.079437255859375;9.722305297851562
1445421531458;91.57449340820312;-0.20227602124214172;0.3369539678096771;-0.0519866943359375;-0.059814453125;9.722305297851562
1445421531489;91.5816650390625;-0.21299923956394196;0.34838801622390747;-0.1108245849609375;-0.059814453125;9.82037353515625
1445421531523;91.58642578125;-0.21947094798088074;0.3777882158756256;-0.150054931640625;-0.059814453125;9.781143188476562
1445421531555;91.59170532226562;-0.2272443175315857;0.3891502320766449;-0.091217041015625;-0.0402069091796875;9.781143188476562
1445421531589;91.5904541015625;-0.2249182164669037;0.40406161546707153;-0.1108245849609375;-0.0009765625;9.741928100585938
1445421531622;91.59747314453125;-0.2350274920463562;0.42724308371543884;-0.1304473876953125;-0.11865234375;9.76153564453125
1445421531655;91.59521484375;-0.2315361052751541;0.4283609092235565;-0.1108245849609375;0.0186309814453125;9.70269775390625
1445421531689;91.58367919921875;-0.2137746959924698;0.4307033121585846;-0.0716094970703125;-0.0205841064453125;9.722305297851562
1445421531722;91.58197021484375;-0.21131551265716553;0.42346206307411194;-0.091217041015625;-0.0205841064453125;9.663467407226562
1445421531754;91.58123779296875;-0.21038180589675903;0.4175422191619873;-0.0716094970703125;-0.0205841064453125;9.70269775390625
1445421531791;91.580810546875;-0.20999465882778168;0.4072608947753906;-0.032379150390625;-0.0402069091796875;9.663467407226562
1445421531820;91.58096313476562;-0.21033161878585815;0.4045390784740448;-0.032379150390625;-0.0205841064453125;9.663467407226562
1445421531853;91.57989501953125;-0.20872505009174347;0.4033832252025604;-0.0716094970703125;-0.0205841064453125;9.663467407226562
1445421531885;91.57095336914062;-0.1951615810394287;0.39849853515625;-0.0519866943359375;-0.0009765625;9.70269775390625
1445421531918;91.563720703125;-0.18400879204273224;0.40006354451179504;-0.1108245849609375;-0.0205841064453125;9.76153564453125
1445421531952;91.5618896484375;-0.18107075989246368;0.40593260526657104;-0.0716094970703125;-0.0205841064453125;9.70269775390625
1445421531985;91.55502319335938;-0.17102882266044617;0.3870929479598999;-0.032379150390625;-0.0009765625;9.722305297851562
1445421532019;91.550537109375;-0.16436047852039337;0.3795481324195862;-0.032379150390625;-0.0009765625;9.741928100585938
1445421532051;91.54742431640625;-0.16007092595100403;0.36220404505729675;-0.01275634765625;-0.0402069091796875;9.76153564453125
1445421532084;91.55255126953125;-0.1679803431034088;0.3600928485393524;-0.0716094970703125;-0.0402069091796875;9.76153564453125
1445421532118;91.54843139648438;-0.16176022589206696;0.35688191652297974;-0.0519866943359375;-0.0009765625;9.741928100585938
1445421532151;91.53460693359375;-0.14068102836608887;0.3517555892467499;-0.0716094970703125;0.0382537841796875;9.70269775390625
1445421532183;91.52801513671875;-0.1306898295879364;0.34792181849479675;-0.0519866943359375;0.0186309814453125;9.70269775390625
1445421532216;91.5321044921875;-0.13678310811519623;0.3537900745868683;-0.091217041015625;-0.059814453125;9.70269775390625
1445421532250;91.54632568359375;-0.15852443873882294;0.3567824363708496;-0.0519866943359375;-0.079437255859375;9.722305297851562
1445421532282;91.54995727539062;-0.16410939395427704;0.35697612166404724;-0.032379150390625;0.0382537841796875;9.722305297851562
1445421532314;91.52871704101562;-0.13191044330596924;0.34223872423171997;-0.032379150390625;0.0382537841796875;9.741928100585938
1445421532348;91.52911376953125;-0.132430300116539;0.34585368633270264;-0.091217041015625;-0.0009765625;9.76153564453125
1445421532381;91.52227783203125;-0.12173287570476532;0.35286232829093933;-0.1108245849609375;-0.0009765625;9.722305297851562
1445421532414;91.51931762695312;-0.1166376918554306;0.3735541105270386;-0.1108245849609375;-0.0009765625;9.70269775390625
1445421532448;91.51226806640625;-0.10539673268795013;0.38853877782821655;-0.091217041015625;-0.0205841064453125;9.683090209960938
1445421532480;91.51522827148438;-0.11001390963792801;0.3868691921234131;-0.0716094970703125;-0.0402069091796875;9.683090209960938
1445421532515;91.51858520507812;-0.11540864408016205;0.3782215714454651;-0.0716094970703125;-0.0009765625;9.70269775390625
1445421532546;91.51638793945312;-0.11242613941431046;0.36236605048179626;-0.01275634765625;-0.0009765625;9.70269775390625
1445421532579;91.5159912109375;-0.11182256042957306;0.3629308342933655;-0.0716094970703125;-0.0205841064453125;9.683090209960938
1445421532613;91.51953125;-0.11755455285310745;0.35107454657554626;-0.0519866943359375;-0.059814453125;9.722305297851562
1445421532645;91.52072143554688;-0.11925749480724335;0.3552977442741394;-0.0519866943359375;-0.0205841064453125;9.82037353515625
1445421532678;91.52359008789062;-0.12363041937351227;0.35691148042678833;-0.0519866943359375;-0.0402069091796875;9.800765991210938
1445421532712;91.516845703125;-0.11334799230098724;0.354483038187027;-0.0519866943359375;0.0186309814453125;9.741928100585938
1445421532744;91.51654052734375;-0.11313074082136154;0.3465973138809204;-0.091217041015625;-0.0402069091796875;9.70269775390625
1445421532777;91.51953125;-0.11758846789598465;0.35138729214668274;-0.032379150390625;-0.0205841064453125;9.70269775390625
1445421532809;91.51980590820312;-0.11776020377874374;0.35958388447761536;-0.0716094970703125;-0.0205841064453125;9.781143188476562
1445421532843;91.52749633789062;-0.12980274856090546;0.3508971929550171;0.026458740234375;-0.0205841064453125;9.683090209960938
1445421532876;91.51947021484375;-0.11796599626541138;0.33272385597229004;-0.032379150390625;0.0186309814453125;9.70269775390625
1445421532909;91.52249145507812;-0.12292221933603287;0.32097429037094116;-0.0519866943359375;-0.0205841064453125;9.722305297851562
1445421532941;91.52032470703125;-0.11952374130487442;0.32341712713241577;-0.0716094970703125;-0.0205841064453125;9.722305297851562
1445421532975;91.51376342773438;-0.10939915478229523;0.3256259262561798;-0.0519866943359375;-0.0205841064453125;9.781143188476562
1445421533008;91.50927734375;-0.10249403864145279;0.3262699544429779;-0.0519866943359375;-0.0009765625;9.76153564453125
1445421533041;91.50616455078125;-0.09795023500919342;0.31811097264289856;-0.032379150390625;-0.0009765625;9.722305297851562
1445421533074;91.50482177734375;-0.09601164609193802;0.31252872943878174;-0.0519866943359375;-0.0205841064453125;9.70269775390625
1445421533108;91.50390625;-0.09441719204187393;0.32090330123901367;-0.0716094970703125;-0.0009765625;9.722305297851562
1445421533140;91.49365234375;-0.0785367488861084;0.3248756527900696;-0.0519866943359375;0.057861328125;9.741928100585938
1445421533173;91.49041748046875;-0.0730939731001854;0.3434998691082001;-0.1108245849609375;-0.0009765625;9.722305297851562
1445421533208;91.496826171875;-0.08267931640148163;0.35391098260879517;-0.091217041015625;-0.0205841064453125;9.781143188476562
1445421533239;91.49871826171875;-0.08551241457462311;0.35518878698349;-0.032379150390625;-0.0402069091796875;9.741928100585938
1445421533272;91.508056640625;-0.09954194724559784;0.3669371008872986;-0.091217041015625;-0.0402069091796875;9.663467407226562
1445421533308;91.50491333007812;-0.09444951266050339;0.3765142261981964;-0.1108245849609375;0.0186309814453125;9.663467407226562
1445421533339;91.498779296875;-0.08479120582342148;0.3876214027404785;-0.091217041015625;0.0186309814453125;9.741928100585938
1445421533372;91.50259399414062;-0.09049350768327713;0.3924241364002228;-0.1108245849609375;-0.0402069091796875;9.76153564453125
1445421533405;91.513916015625;-0.1074141189455986;0.40788981318473816;-0.091217041015625;-0.059814453125;9.781143188476562
1445421533437;91.51513671875;-0.10925959795713425;0.4107958674430847;-0.0519866943359375;-0.0205841064453125;9.741928100585938
1445421533471;91.51937866210938;-0.11552364379167557;0.41846975684165955;-0.032379150390625;-0.079437255859375;9.76153564453125
1445421533503;91.52926635742188;-0.1309388130903244;0.40898606181144714;-0.0716094970703125;-0.059814453125;9.722305297851562
1445421533536;91.53399658203125;-0.13839885592460632;0.4022717773914337;-0.0519866943359375;-0.059814453125;9.800765991210938
1445421533569;91.5333251953125;-0.13724678754806519;0.4065537452697754;-0.091217041015625;-0.0402069091796875;9.800765991210938
1445421533602;91.53457641601562;-0.13919536769390106;0.4042491018772125;-0.032379150390625;-0.0402069091796875;9.781143188476562
1445421533635;91.5343017578125;-0.13917401432991028;0.3915092349052429;-0.0519866943359375;-0.0009765625;9.76153564453125
1445421533668;91.53399658203125;-0.1385515332221985;0.3965926766395569;-0.091217041015625;-0.0205841064453125;9.722305297851562
1445421533702;91.52981567382812;-0.13150428235530853;0.4194202125072479;-0.150054931640625;0.0186309814453125;9.722305297851562
1445421533734;91.53512573242188;-0.13915984332561493;0.4368182122707367;-0.1304473876953125;-0.059814453125;9.76153564453125
1445421533767;91.53524780273438;-0.1391811966896057;0.4426705837249756;-0.091217041015625;-0.0205841064453125;9.741928100585938
1445421533801;91.529296875;-0.12963224947452545;0.4596909284591675;-0.1108245849609375;-0.0205841064453125;9.76153564453125
1445421533833;91.53353881835938;-0.13604280352592468;0.4622252881526947;-0.091217041015625;-0.059814453125;9.781143188476562
1445421533867;91.54434204101562;-0.15235212445259094;0.4712493121623993;-0.150054931640625;-0.079437255859375;9.781143188476562
1445421533899;91.54608154296875;-0.15512491762638092;0.46811234951019287;-0.091217041015625;-0.0205841064453125;9.64385986328125
1445421533932;91.54937744140625;-0.16001741588115692;0.4727499186992645;-0.1108245849609375;-0.0205841064453125;9.722305297851562
1445421533965;91.54324340820312;-0.15053457021713257;0.47653064131736755;-0.091217041015625;-0.0009765625;9.76153564453125
1445421533998;91.55441284179688;-0.16738055646419525;0.4854399263858795;-0.091217041015625;-0.059814453125;9.76153564453125
1445421534032;91.55386352539062;-0.16647538542747498;0.48861250281333923;-0.1304473876953125;-0.0402069091796875;9.70269775390625
1445421534064;91.55673217773438;-0.1706530749797821;0.49581101536750793;-0.0716094970703125;-0.0402069091796875;9.624237060546875
1445421534097;91.57083129882812;-0.19260616600513458;0.48299679160118103;-0.032379150390625;-0.079437255859375;9.722305297851562
1445421534130;91.5777587890625;-0.2034635692834854;0.4737142026424408;-0.032379150390625;-0.079437255859375;9.76153564453125
1445421534164;91.57611083984375;-0.20141319930553436;0.4580138921737671;-0.032379150390625;-0.0205841064453125;9.82037353515625
1445421534196;91.56869506835938;-0.19062712788581848;0.4368458390235901;-0.0519866943359375;0.0186309814453125;9.839996337890625
1445421534230;91.56637573242188;-0.18712390959262848;0.4346012473106384;-0.0716094970703125;-0.0205841064453125;9.800765991210938
1445421534262;91.55450439453125;-0.16916604340076447;0.4262250065803528;-0.0519866943359375;0.0382537841796875;9.82037353515625
1445421534300;91.54302978515625;-0.15123909711837769;0.4376262426376343;-0.1304473876953125;-0.0009765625;9.722305297851562
1445421534328;91.55010986328125;-0.16181160509586334;0.44862064719200134;-0.1108245849609375;-0.079437255859375;9.70269775390625
1445421534361;91.55145263671875;-0.16345946490764618;0.46297377347946167;-0.1108245849609375;-0.0402069091796875;9.663467407226562
1445421534397;91.55728149414062;-0.172788605093956;0.4500235915184021;-0.01275634765625;-0.0009765625;9.722305297851562
1445421534428;91.54183959960938;-0.1495216339826584;0.4350101947784424;-0.0519866943359375;0.0382537841796875;9.663467407226562
1445421534460;91.5389404296875;-0.14496707916259766;0.4387633204460144;-0.091217041015625;0.0186309814453125;9.70269775390625
1445421534493;91.53106689453125;-0.13257834315299988;0.450641006231308;-0.091217041015625;-0.0205841064453125;9.741928100585938
1445421534526;91.5416259765625;-0.14886905252933502;0.4464153051376343;-0.0716094970703125;-0.059814453125;9.741928100585938
1445421534559;91.54058837890625;-0.14719292521476746;0.4493173062801361;-0.0519866943359375;-0.059814453125;9.76153564453125
1445421534592;91.543212890625;-0.15127137303352356;0.4464624524116516;-0.0716094970703125;-0.0205841064453125;9.781143188476562
1445421534626;91.53244018554688;-0.1350751519203186;0.4367605447769165;-0.0519866943359375;0.0186309814453125;9.76153564453125
1445421534658;91.52761840820312;-0.1277373880147934;0.4342096745967865;-0.091217041015625;0.0186309814453125;9.800765991210938
1445421534692;91.53170776367188;-0.13386715948581696;0.43931010365486145;-0.091217041015625;-0.079437255859375;9.800765991210938
1445421534724;91.53579711914062;-0.14034432172775269;0.4308426082134247;-0.0519866943359375;-0.0402069091796875;9.82037353515625
1445421534757;91.53466796875;-0.13849176466464996;0.43608948588371277;-0.1304473876953125;-0.079437255859375;9.741928100585938
1445421534790;91.55615234375;-0.17086561024188995;0.4567526876926422;-0.1304473876953125;-0.138275146484375;9.70269775390625
1445421534823;91.58883666992188;-0.220479816198349;0.47268959879875183;-0.1108245849609375;-0.138275146484375;9.624237060546875
1445421534856;91.5926513671875;-0.2266058325767517;0.463482141494751;-0.0519866943359375;-0.079437255859375;9.663467407226562
1445421534890;91.59262084960938;-0.22667203843593597;0.458747923374176;-0.091217041015625;-0.0402069091796875;9.722305297851562
1445421534922;91.58935546875;-0.22175376117229462;0.45568394660949707;-0.01275634765625;-0.0205841064453125;9.722305297851562
1445421534955;91.58599853515625;-0.21693722903728485;0.4450550377368927;-0.091217041015625;-0.0205841064453125;9.76153564453125
1445421534988;91.58493041992188;-0.21507002413272858;0.45266324281692505;-0.1108245849609375;-0.0009765625;9.76153564453125
1445421535022;91.57208251953125;-0.19538149237632751;0.45184245705604553;-0.032379150390625;0.077484130859375;9.76153564453125
1445421535054;91.55117797851562;-0.16384448111057281;0.4345972537994385;-0.0519866943359375;-0.0009765625;9.82037353515625
1445421535087;91.55682373046875;-0.1722518652677536;0.44285812973976135;-0.1108245849609375;-0.079437255859375;9.741928100585938
1445421535122;91.5609130859375;-0.1784486323595047;0.4470595419406891;-0.091217041015625;-0.0990447998046875;9.70269775390625
1445421535153;91.573486328125;-0.1972569078207016;0.4629427194595337;-0.1304473876953125;-0.059814453125;9.683090209960938
1445421535186;91.57281494140625;-0.19597086310386658;0.4724661707878113;-0.091217041015625;0.0186309814453125;9.722305297851562
1445421535220;91.56130981445312;-0.17822952568531036;0.47538578510284424;-0.091217041015625;0.0186309814453125;9.741928100585938
1445421535252;91.5653076171875;-0.18447928130626678;0.47228649258613586;-0.0519866943359375;-0.0402069091796875;9.722305297851562
1445421535284;91.5654296875;-0.1844596266746521;0.4784754812717438;-0.091217041015625;-0.0009765625;9.741928100585938
1445421535318;91.5628662109375;-0.18021561205387115;0.4892010986804962;-0.1108245849609375;-0.0402069091796875;9.741928100585938
1445421535351;91.552978515625;-0.16486427187919617;0.4983004033565521;-0.1304473876953125;0.0186309814453125;9.722305297851562
1445421535385;91.55523681640625;-0.16823714971542358;0.5000613331794739;-0.0716094970703125;-0.0205841064453125;9.76153564453125
1445421535418;91.559326171875;-0.17469953000545502;0.49267736077308655;-0.032379150390625;-0.059814453125;9.722305297851562
1445421535451;91.5703125;-0.1921897530555725;0.46917152404785156;-0.01275634765625;-0.079437255859375;9.722305297851562
1445421535483;91.5736083984375;-0.1973898708820343;0.4635188579559326;-0.032379150390625;-0.059814453125;9.70269775390625
1445421535516;91.5794677734375;-0.20702262222766876;0.44146671891212463;-0.032379150390625;-0.0402069091796875;9.663467407226562
1445421535549;91.5762939453125;-0.20226261019706726;0.4372907876968384;-0.0716094970703125;-0.0205841064453125;9.781143188476562
1445421535582;91.5758056640625;-0.2016974836587906;0.4300030767917633;-0.032379150390625;-0.0205841064453125;9.781143188476562
1445421535614;91.57623291015625;-0.20205870270729065;0.44009312987327576;-0.1108245849609375;-0.0009765625;9.781143188476562
1445421535648;91.57470703125;-0.20015159249305725;0.4255000650882721;-0.0519866943359375;-0.059814453125;9.70269775390625
1445421535681;91.5780029296875;-0.2052389234304428;0.4233298599720001;-0.0716094970703125;-0.059814453125;9.722305297851562
1445421535714;91.59390258789062;-0.22933682799339294;0.4334162473678589;-0.1108245849609375;-0.079437255859375;9.722305297851562
1445421535747;91.60037231445312;-0.2392493486404419;0.4339739680290222;-0.0716094970703125;-0.0402069091796875;9.741928100585938
1445421535780;91.589599609375;-0.2228042334318161;0.43205127120018005;-0.0716094970703125;0.0382537841796875;9.76153564453125
1445421535813;91.58251953125;-0.2120496779680252;0.428376704454422;-0.0716094970703125;-0.0402069091796875;9.76153564453125
1445421535846;91.58004760742188;-0.20842361450195312;0.4224322736263275;-0.091217041015625;-0.0009765625;9.683090209960938
1445421535882;91.572998046875;-0.1973433792591095;0.4318689703941345;-0.1108245849609375;-0.0205841064453125;9.64385986328125
1445421535912;91.56640625;-0.18690040707588196;0.4446282982826233;-0.1304473876953125;-0.0205841064453125;9.683090209960938
1445421535946;91.570556640625;-0.19298085570335388;0.4542677700519562;-0.1108245849609375;-0.0402069091796875;9.70269775390625
1445421535979;91.57540893554688;-0.20034077763557434;0.4572155177593231;-0.0716094970703125;-0.079437255859375;9.683090209960938
1445421536011;91.57815551757812;-0.20450055599212646;0.4590741991996765;-0.1304473876953125;-0.0402069091796875;9.64385986328125
1445421536044;91.574462890625;-0.19841326773166656;0.47474318742752075;-0.1108245849609375;-0.0009765625;9.663467407226562
1445421536078;91.5888671875;-0.22055350244045258;0.47268152236938477;-0.0716094970703125;-0.0990447998046875;9.70269775390625
1445421536110;91.58755493164062;-0.21872864663600922;0.46476656198501587;0.026458740234375;-0.0990447998046875;9.741928100585938
1445421536143;91.60369873046875;-0.24441933631896973;0.431511253118515;0.026458740234375;-0.079437255859375;9.70269775390625
1445421536175;91.617431640625;-0.26585352420806885;0.4188701808452606;-0.0519866943359375;-0.059814453125;9.781143188476562
1445421536210;91.623779296875;-0.27577444911003113;0.41200903058052063;-0.1108245849609375;-0.059814453125;9.82037353515625
1445421536243;91.63104248046875;-0.28638648986816406;0.43006008863449097;-0.1108245849609375;-0.059814453125;9.800765991210938
1445421536275;91.6318359375;-0.28771868348121643;0.4268122911453247;-0.0716094970703125;-0.0205841064453125;9.741928100585938
1445421536309;91.63690185546875;-0.29550206661224365;0.42572805285453796;-0.032379150390625;-0.0402069091796875;9.741928100585938
1445421536341;91.63253784179688;-0.28935492038726807;0.40753236413002014;-0.01275634765625;-0.0402069091796875;9.722305297851562
1445421536374;91.63461303710938;-0.2928503453731537;0.39567551016807556;-0.0519866943359375;-0.079437255859375;9.722305297851562
1445421536407;91.63461303710938;-0.2926083207130432;0.4045248031616211;-0.091217041015625;-0.0402069091796875;9.741928100585938
1445421536440;91.6304931640625;-0.2857697904109955;0.4231017529964447;-0.1108245849609375;-0.0205841064453125;9.741928100585938
1445421536474;91.63949584960938;-0.29932913184165955;0.43083110451698303;-0.1108245849609375;-0.0990447998046875;9.741928100585938
1445421536506;91.65008544921875;-0.3151998221874237;0.4434932768344879;-0.091217041015625;-0.059814453125;9.663467407226562
1445421536539;91.65560913085938;-0.3238537907600403;0.4370456039905548;-0.0716094970703125;-0.059814453125;9.70269775390625
1445421536572;91.65887451171875;-0.32907339930534363;0.42827916145324707;-0.0519866943359375;-0.0205841064453125;9.70269775390625
1445421536605;91.6524658203125;-0.31900647282600403;0.43697819113731384;-0.1108245849609375;-0.0205841064453125;9.683090209960938
1445421536638;91.65652465820312;-0.32472530007362366;0.4548865556716919;-0.091217041015625;-0.079437255859375;9.76153564453125
1445421536673;91.65008544921875;-0.3145471513271332;0.46515509486198425;-0.091217041015625;-0.0009765625;9.722305297851562
1445421536704;91.63433837890625;-0.2903841435909271;0.466389924287796;-0.0716094970703125;0.0186309814453125;9.741928100585938
1445421536737;91.61355590820312;-0.25880709290504456;0.45705363154411316;-0.032379150390625;0.0382537841796875;9.781143188476562
1445421536770;91.61282348632812;-0.2578606903553009;0.451068252325058;-0.032379150390625;-0.0402069091796875;9.722305297851562
1445421536803;91.61087036132812;-0.2552945613861084;0.4361775815486908;-0.0519866943359375;-0.0009765625;9.82037353515625
1445421536836;91.603759765625;-0.24455763399600983;0.42904481291770935;-0.032379150390625;0.0186309814453125;9.800765991210938
1445421536868;91.5936279296875;-0.2297840565443039;0.40390244126319885;-0.01275634765625;-0.0205841064453125;9.82037353515625
1445421536902;91.600830078125;-0.24069233238697052;0.4074793756008148;-0.091217041015625;-0.059814453125;9.722305297851562
1445421536935;91.59344482421875;-0.22924838960170746;0.4128028452396393;-0.1304473876953125;-0.0205841064453125;9.683090209960938
1445421536969;91.59405517578125;-0.22933867573738098;0.44216275215148926;-0.150054931640625;-0.0402069091796875;9.800765991210938
1445421537001;91.6036376953125;-0.2437334507703781;0.4531441330909729;-0.091217041015625;-0.0990447998046875;9.683090209960938
1445421537035;91.60589599609375;-0.24722616374492645;0.4528905749320984;-0.0519866943359375;-0.079437255859375;9.741928100585938
1445421537068;91.61672973632812;-0.2639915347099304;0.4457377791404724;-0.0519866943359375;-0.0990447998046875;9.722305297851562
1445421537099;91.63726806640625;-0.2954508662223816;0.44547075033187866;-0.091217041015625;-0.11865234375;9.683090209960938
1445421537136;91.64163208007812;-0.30215364694595337;0.446414977312088;-0.0716094970703125;-0.079437255859375;9.683090209960938
1445421537167;91.63027954101562;-0.28434571623802185;0.4597012400627136;-0.1108245849609375;-0.0205841064453125;9.722305297851562
1445421537199;91.637451171875;-0.29546552896499634;0.4563589096069336;-0.0716094970703125;-0.059814453125;9.781143188476562
1445421537232;91.64483642578125;-0.3066908121109009;0.4585005044937134;-0.0519866943359375;-0.079437255859375;9.741928100585938
1445421537265;91.6549072265625;-0.32190123200416565;0.4659523367881775;-0.0716094970703125;-0.0990447998046875;9.741928100585938
1445421537299;91.65972900390625;-0.3294898569583893;0.4588012397289276;-0.0716094970703125;-0.11865234375;9.741928100585938
1445421537332;91.66790771484375;-0.3422873914241791;0.4506196677684784;-0.0519866943359375;-0.059814453125;9.839996337890625
1445421537364;91.66815185546875;-0.34270429611206055;0.45018869638442993;-0.091217041015625;-0.059814453125;9.839996337890625
1445421537397;91.67160034179688;-0.34747835993766785;0.4672544002532959;-0.1108245849609375;-0.079437255859375;9.722305297851562
1445421537431;91.66949462890625;-0.34432491660118103;0.4640663266181946;-0.0519866943359375;-0.0402069091796875;9.741928100585938
1445421537464;91.66543579101562;-0.33815979957580566;0.4616077244281769;-0.0519866943359375;-0.059814453125;9.722305297851562
1445421537496;91.6658935546875;-0.33912599086761475;0.4530014395713806;-0.032379150390625;-0.059814453125;9.683090209960938
1445421537530;91.66363525390625;-0.33561909198760986;0.45432448387145996;-0.1108245849609375;-0.0402069091796875;9.722305297851562
1445421537562;91.65850830078125;-0.32789433002471924;0.45129460096359253;-0.0716094970703125;-0.0205841064453125;9.741928100585938
1445421537595;91.65185546875;-0.3177144229412079;0.4500962495803833;-0.0716094970703125;0.0186309814453125;9.800765991210938
1445421537629;91.63613891601562;-0.2937091588973999;0.4469203054904938;-0.0716094970703125;-0.0009765625;9.722305297851562
1445421537661;91.626708984375;-0.2795381247997284;0.4379793107509613;-0.0519866943359375;-0.0205841064453125;9.76153564453125
1445421537695;91.62579345703125;-0.277982622385025;0.4419498145580292;-0.1108245849609375;-0.079437255859375;9.70269775390625
1445421537728;91.6146240234375;-0.2605476677417755;0.4539918899536133;-0.1108245849609375;-0.0009765625;9.70269775390625
1445421537760;91.61044311523438;-0.25405022501945496;0.45601707696914673;-0.032379150390625;-0.079437255859375;9.741928100585938
1445421537793;91.6202392578125;-0.2693125903606415;0.44845855236053467;-0.091217041015625;-0.079437255859375;9.741928100585938
1445421537826;91.62127685546875;-0.2707509398460388;0.45243948698043823;-0.0519866943359375;-0.0402069091796875;9.722305297851562
1445421537859;91.61813354492188;-0.2659201920032501;0.4533654749393463;-0.0716094970703125;-0.0009765625;9.663467407226562
1445421537892;91.61190795898438;-0.25669190287590027;0.44338053464889526;-0.01275634765625;-0.0402069091796875;9.70269775390625
1445421537925;91.5987548828125;-0.2374894767999649;0.4091324210166931;0.0068511962890625;0.0186309814453125;9.70269775390625
1445421537958;91.59902954101562;-0.2382526993751526;0.396953284740448;-0.01275634765625;-0.0402069091796875;9.741928100585938
1445421537991;91.6033935546875;-0.24494557082653046;0.3956652283668518;-0.0716094970703125;-0.0990447998046875;9.722305297851562
1445421538024;91.59945678710938;-0.23851732909679413;0.4099646210670471;-0.1108245849609375;-0.0009765625;9.741928100585938
1445421538058;91.596435546875;-0.23377735912799835;0.4145107865333557;-0.091217041015625;-0.0205841064453125;9.741928100585938
1445421538090;91.59310913085938;-0.22838100790977478;0.42495593428611755;-0.091217041015625;-0.0205841064453125;9.76153564453125
1445421538122;91.59182739257812;-0.2263280153274536;0.42826542258262634;-0.1108245849609375;-0.059814453125;9.741928100585938
1445421538156;91.592041015625;-0.22617650032043457;0.4443005323410034;-0.1108245849609375;-0.0205841064453125;9.722305297851562
1445421538189;91.60345458984375;-0.24372664093971252;0.44373181462287903;-0.0519866943359375;-0.0990447998046875;9.683090209960938
1445421538222;91.6182861328125;-0.2663406431674957;0.44658800959587097;-0.0716094970703125;-0.0402069091796875;9.839996337890625
1445421538255;91.61459350585938;-0.26092278957366943;0.4392944276332855;-0.032379150390625;-0.0402069091796875;9.859603881835938
1445421538287;91.6138916015625;-0.2602638900279999;0.42440763115882874;-0.032379150390625;-0.0205841064453125;9.839996337890625
1445421538321;91.61459350585938;-0.2611793577671051;0.42908570170402527;-0.091217041015625;-0.0402069091796875;9.781143188476562
1445421538354;91.62234497070312;-0.2728991210460663;0.43550193309783936;-0.0519866943359375;-0.059814453125;9.722305297851562
1445421538386;91.6212158203125;-0.271300345659256;0.4303935468196869;-0.0519866943359375;-0.0009765625;9.722305297851562
1445421538420;91.61441040039062;-0.26129916310310364;0.41560325026512146;-0.032379150390625;-0.0402069091796875;9.722305297851562
1445421538453;91.620849609375;-0.27092501521110535;0.42488259077072144;-0.1108245849609375;-0.0402069091796875;9.722305297851562
1445421538486;91.61636352539062;-0.264186292886734;0.41930681467056274;-0.0519866943359375;-0.0009765625;9.741928100585938
1445421538519;91.60345458984375;-0.24436800181865692;0.4210231304168701;-0.091217041015625;-0.0009765625;9.741928100585938
1445421538552;91.60772705078125;-0.25100114941596985;0.4166712164878845;-0.0519866943359375;-0.0402069091796875;9.70269775390625
1445421538586;91.60919189453125;-0.253228098154068;0.4171662926673889;-0.1108245849609375;-0.059814453125;9.76153564453125
1445421538618;91.60232543945312;-0.24219852685928345;0.4353521168231964;-0.1108245849609375;0.0382537841796875;9.76153564453125
1445421538651;91.60009765625;-0.2385404109954834;0.44401147961616516;-0.091217041015625;-0.0402069091796875;9.76153564453125
1445421538685;91.59951782226562;-0.23769718408584595;0.44256556034088135;-0.0519866943359375;-0.11865234375;9.722305297851562
1445421538716;91.60772705078125;-0.2504086196422577;0.4375521242618561;-0.0716094970703125;-0.0205841064453125;9.70269775390625
1445421538749;91.60479736328125;-0.24643711745738983;0.41978874802589417;-0.032379150390625;-0.0205841064453125;9.741928100585938
1445421538785;91.60052490234375;-0.24002818763256073;0.41501864790916443;-0.0519866943359375;-0.0009765625;9.76153564453125
1445421538816;91.5843505859375;-0.2151576578617096;0.4168623387813568;-0.091217041015625;0.0186309814453125;9.76153564453125
1445421538849;91.5889892578125;-0.22250968217849731;0.40844660997390747;-0.01275634765625;-0.079437255859375;9.76153564453125
1445421538882;91.59359741210938;-0.2301778644323349;0.38743430376052856;-0.032379150390625;-0.0402069091796875;9.741928100585938
1445421538915;91.59307861328125;-0.2296231985092163;0.37876567244529724;-0.0519866943359375;-0.0205841064453125;9.781143188476562
1445421538948;91.59503173828125;-0.23255571722984314;0.3805035948753357;-0.1108245849609375;-0.059814453125;9.70269775390625
1445421538980;91.5982666015625;-0.23770779371261597;0.3744436204433441;0.0068511962890625;-0.0402069091796875;9.741928100585938
1445421539014;91.596923828125;-0.23591098189353943;0.36568930745124817;-0.032379150390625;-0.0402069091796875;9.70269775390625
1445421539046;91.59185791015625;-0.22819100320339203;0.3621983230113983;-0.0716094970703125;-0.0009765625;9.722305297851562
1445421539080;91.58404541015625;-0.21623292565345764;0.3617413640022278;-0.0519866943359375;-0.0205841064453125;9.722305297851562
1445421539113;91.574462890625;-0.2006417065858841;0.39355897903442383;-0.1304473876953125;0.0186309814453125;9.70269775390625
1445421539146;91.57421875;-0.20030231773853302;0.3934577405452728;-0.0716094970703125;-0.0402069091796875;9.741928100585938
1445421539179;91.57781982421875;-0.2055628001689911;0.4016246795654297;-0.091217041015625;-0.0402069091796875;9.800765991210938
1445421539212;91.57830810546875;-0.206386536359787;0.40030166506767273;-0.0716094970703125;0.0186309814453125;9.800765991210938
1445421539245;91.56814575195312;-0.1906440556049347;0.4056519567966461;-0.091217041015625;-0.0205841064453125;9.70269775390625
1445421539278;91.56719970703125;-0.1891961544752121;0.4057677090167999;-0.0716094970703125;-0.0205841064453125;9.741928100585938
1445421539312;91.56634521484375;-0.1879960149526596;0.4021000862121582;-0.0519866943359375;-0.0205841064453125;9.800765991210938
1445421539345;91.56390380859375;-0.18440112471580505;0.3969356119632721;-0.032379150390625;-0.0205841064453125;9.781143188476562
1445421539379;91.5601806640625;-0.1786631941795349;0.39822521805763245;-0.0519866943359375;-0.0205841064453125;9.741928100585938
1445421539414;91.55572509765625;-0.171827495098114;0.3966465890407562;-0.091217041015625;-0.0009765625;9.663467407226562
1445421539443;91.55117797851562;-0.1645287275314331;0.4093818962574005;-0.091217041015625;-0.0205841064453125;9.70269775390625
1445421539476;91.55682373046875;-0.1734994798898697;0.3986286222934723;-0.0519866943359375;-0.059814453125;9.624237060546875
1445421539509;91.56222534179688;-0.1816529780626297;0.40238073468208313;-0.0716094970703125;-0.059814453125;9.64385986328125
1445421539542;91.56451416015625;-0.18485704064369202;0.41353917121887207;-0.1108245849609375;-0.0402069091796875;9.76153564453125
1445421539575;91.56808471679688;-0.19032146036624908;0.41449078917503357;-0.032379150390625;-0.079437255859375;9.683090209960938
1445421539608;91.57574462890625;-0.20246517658233643;0.3993179202079773;-0.032379150390625;-0.059814453125;9.663467407226562
1445421539641;91.57421875;-0.20026665925979614;0.39498111605644226;-0.0519866943359375;-0.0402069091796875;9.683090209960938
1445421539674;91.5684814453125;-0.1913602501153946;0.3980865478515625;-0.0716094970703125;-0.0009765625;9.722305297851562
1445421539708;91.558349609375;-0.1758214831352234;0.3981129229068756;-0.0716094970703125;-0.0009765625;9.76153564453125
1445421539740;91.54827880859375;-0.16026774048805237;0.4017813801765442;-0.0716094970703125;-0.0009765625;9.722305297851562
1445421539773;91.54437255859375;-0.15415948629379272;0.40763983130455017;-0.1108245849609375;-0.0009765625;9.70269775390625
1445421539807;91.5374755859375;-0.14316459000110626;0.4218362867832184;-0.1108245849609375;-0.0009765625;9.741928100585938
1445421539839;91.54071044921875;-0.14769625663757324;0.4377000331878662;-0.0716094970703125;-0.0402069091796875;9.741928100585938
1445421539875;91.54486083984375;-0.1540299654006958;0.43913736939430237;-0.0716094970703125;-0.059814453125;9.781143188476562
1445421539905;91.5594482421875;-0.17643550038337708;0.4374154508113861;-0.0716094970703125;-0.079437255859375;9.722305297851562
1445421539938;91.56414794921875;-0.18444111943244934;0.4077625274658203;0.0068511962890625;-0.0205841064453125;9.722305297851562
1445421539971;91.563232421875;-0.18320371210575104;0.40193507075309753;-0.032379150390625;-0.0205841064453125;9.70269775390625
1445421540005;91.569091796875;-0.1921713799238205;0.40376153588294983;-0.0519866943359375;-0.059814453125;9.76153564453125
1445421540037;91.56497192382812;-0.18583059310913086;0.40451720356941223;-0.0716094970703125;-0.0009765625;9.76153564453125
1445421540070;91.54833984375;-0.16055603325366974;0.39619454741477966;-0.032379150390625;0.057861328125;9.839996337890625
1445421540103;91.55010986328125;-0.16295404732227325;0.40765878558158875;-0.1108245849609375;-0.0402069091796875;9.741928100585938
1445421540136;91.548828125;-0.16069702804088593;0.4171757102012634;-0.1108245849609375;-0.0009765625;9.82037353515625
1445421540169;91.54083251953125;-0.14817838370800018;0.4271281361579895;-0.0716094970703125;0.0186309814453125;9.76153564453125
1445421540205;91.53262329101562;-0.13571564853191376;0.422660768032074;-0.0519866943359375;0.0186309814453125;9.70269775390625
1445421540235;91.53466796875;-0.13875986635684967;0.42661964893341064;-0.091217041015625;-0.0402069091796875;9.683090209960938
1445421540268;91.52752685546875;-0.1276768445968628;0.42995038628578186;-0.0716094970703125;-0.0009765625;9.70269775390625
1445421540300;91.5325927734375;-0.13500384986400604;0.4464026093482971;-0.1108245849609375;-0.059814453125;9.800765991210938
1445421540334;91.53921508789062;-0.14489270746707916;0.4566298723220825;-0.1108245849609375;-0.079437255859375;9.70269775390625
1445421540368;91.5489501953125;-0.1599539965391159;0.45259737968444824;-0.032379150390625;-0.0402069091796875;9.76153564453125
1445421540400;91.54815673828125;-0.15889732539653778;0.4463072419166565;-0.0716094970703125;-0.0402069091796875;9.781143188476562
1445421540434;91.55322265625;-0.16680502891540527;0.4406580328941345;-0.032379150390625;-0.059814453125;9.722305297851562
1445421540466;91.551513671875;-0.16444218158721924;0.4314839839935303;-0.0716094970703125;-0.0205841064453125;9.663467407226562
1445421540499;91.54705810546875;-0.1578773409128189;0.42074957489967346;-0.032379150390625;-0.059814453125;9.64385986328125
1445421540532;91.55575561523438;-0.1715640425682068;0.4080846607685089;-0.0519866943359375;-0.059814453125;9.624237060546875
1445421540565;91.5638427734375;-0.18362528085708618;0.421171635389328;-0.1304473876953125;-0.0402069091796875;9.722305297851562
1445421540597;91.56936645507812;-0.19169078767299652;0.43560826778411865;-0.150054931640625;-0.079437255859375;9.800765991210938
1445421540631;91.57388305664062;-0.19848881661891937;0.43952056765556335;-0.091217041015625;-0.079437255859375;9.781143188476562
1445421540664;91.59417724609375;-0.22953148186206818;0.4417622983455658;-0.0716094970703125;-0.079437255859375;9.722305297851562
1445421540697;91.59378051757812;-0.22890010476112366;0.44274774193763733;-0.0716094970703125;-0.0402069091796875;9.76153564453125
1445421540730;91.59539794921875;-0.2311459332704544;0.4506435692310333;-0.0716094970703125;-0.0205841064453125;9.76153564453125
1445421540764;91.60342407226562;-0.24394772946834564;0.4338195323944092;-0.032379150390625;-0.079437255859375;9.741928100585938
1445421540796;91.60296630859375;-0.24358461797237396;0.42308473587036133;-0.01275634765625;-0.0402069091796875;9.781143188476562
1445421540829;91.59683227539062;-0.23449113965034485;0.4111110270023346;-0.032379150390625;-0.0402069091796875;9.82037353515625
1445421540862;91.59857177734375;-0.23703934252262115;0.4158414602279663;-0.0716094970703125;-0.0402069091796875;9.781143188476562
1445421540895;91.58648681640625;-0.21838198602199554;0.41941407322883606;-0.091217041015625;0.0382537841796875;9.781143188476562
1445421540930;91.58697509765625;-0.21838437020778656;0.4453204274177551;-0.1304473876953125;-0.059814453125;9.70269775390625
1445421540961;91.59024047851562;-0.22335882484912872;0.44675496220588684;-0.0716094970703125;-0.11865234375;9.741928100585938
1445421540996;91.60302734375;-0.2428169697523117;0.45244914293289185;-0.091217041015625;-0.059814453125;9.76153564453125
1445421541029;91.60525512695312;-0.24561059474945068;0.47401654720306396;-0.1108245849609375;-0.0402069091796875;9.741928100585938
1445421541061;91.60037231445312;-0.23748204112052917;0.49629974365234375;-0.1892852783203125;-0.0009765625;9.70269775390625
1445421541094;91.60354614257812;-0.24240723252296448;0.49428340792655945;-0.0716094970703125;-0.0402069091796875;9.683090209960938
1445421541126;91.60394287109375;-0.24322323501110077;0.48777467012405396;-0.0519866943359375;-0.079437255859375;9.683090209960938
1445421541159;91.60934448242188;-0.25212547183036804;0.4642232060432434;-0.01275634765625;-0.059814453125;9.663467407226562
1445421541192;91.609130859375;-0.25226593017578125;0.44926124811172485;-0.0716094970703125;-0.059814453125;9.70269775390625
1445421541225;91.61224365234375;-0.2570587992668152;0.4471967816352844;-0.0716094970703125;-0.059814453125;9.722305297851562
1445421541258;91.6121826171875;-0.2571209669113159;0.44169488549232483;-0.0716094970703125;-0.0205841064453125;9.70269775390625
1445421541291;91.61297607421875;-0.2587360739707947;0.42773380875587463;-0.01275634765625;-0.079437255859375;9.76153564453125
1445421541324;91.618896484375;-0.2685628831386566;0.4026188850402832;-0.01275634765625;-0.0990447998046875;9.76153564453125
1445421541357;91.62030029296875;-0.2709468603134155;0.3951343595981598;-0.091217041015625;-0.0205841064453125;9.781143188476562
1445421541389;91.60797119140625;-0.25175559520721436;0.4044078290462494;-0.091217041015625;-0.0205841064453125;9.683090209960938
1445421541423;91.60296630859375;-0.243783101439476;0.4137912094593048;-0.1108245849609375;-0.0009765625;9.663467407226562
1445421541456;91.607666015625;-0.25086510181427;0.4201265573501587;-0.0716094970703125;-0.079437255859375;9.741928100585938
1445421541489;91.60452270507812;-0.2469426691532135;0.3871425688266754;0.026458740234375;-0.0402069091796875;9.781143188476562
1445421541522;91.60736083984375;-0.25135985016822815;0.3837810754776001;-0.032379150390625;-0.059814453125;9.76153564453125
1445421541555;91.61236572265625;-0.25869128108024597;0.39745473861694336;-0.1108245849609375;-0.0402069091796875;9.741928100585938
1445421541589;91.60665893554688;-0.2498084157705307;0.40245532989501953;-0.0519866943359375;0.0186309814453125;9.781143188476562
1445421541620;91.59429931640625;-0.23104262351989746;0.3947085738182068;-0.01275634765625;-0.0205841064453125;9.800765991210938
1445421541654;91.5899658203125;-0.22488991916179657;0.37724632024765015;-0.0519866943359375;-0.079437255859375;9.76153564453125
1445421541688;91.59136962890625;-0.22705431282520294;0.3770427405834198;-0.091217041015625;-0.0205841064453125;9.741928100585938
1445421541720;91.5850830078125;-0.21700872480869293;0.3919861912727356;-0.1108245849609375;-0.0205841064453125;9.683090209960938
1445421541753;91.59146118164062;-0.22665373980998993;0.3964492976665497;-0.0519866943359375;-0.0402069091796875;9.70269775390625
1445421541787;91.59243774414062;-0.22842192649841309;0.38633647561073303;-0.01275634765625;-0.0402069091796875;9.741928100585938
1445421541819;91.608154296875;-0.25236502289772034;0.39286935329437256;-0.1108245849609375;-0.079437255859375;9.722305297851562
1445421541851;91.6107177734375;-0.2559853494167328;0.40283581614494324;-0.1108245849609375;-0.059814453125;9.70269775390625
1445421541886;91.6185302734375;-0.2677062451839447;0.41307690739631653;-0.091217041015625;-0.0990447998046875;9.722305297851562
1445421541918;91.62991333007812;-0.28525811433792114;0.40923410654067993;-0.0519866943359375;-0.0990447998046875;9.741928100585938
1445421541951;91.63543701171875;-0.29431357979774475;0.3884352743625641;-0.01275634765625;-0.059814453125;9.741928100585938
1445421541984;91.6265869140625;-0.28087249398231506;0.3843596577644348;-0.032379150390625;0.0186309814453125;9.70269775390625
1445421542017;91.633056640625;-0.29031187295913696;0.40104225277900696;-0.150054931640625;-0.059814453125;9.70269775390625
1445421542050;91.63076782226562;-0.286496639251709;0.4113832116127014;-0.091217041015625;-0.0402069091796875;9.741928100585938
1445421542083;91.62091064453125;-0.27129852771759033;0.41383206844329834;-0.0519866943359375;0.0186309814453125;9.781143188476562
1445421542116;91.62738037109375;-0.2818062901496887;0.39371222257614136;-0.01275634765625;-0.059814453125;9.70269775390625
1445421542151;91.63101196289062;-0.2877032458782196;0.3821764886379242;-0.032379150390625;-0.0205841064453125;9.800765991210938
1445421542182;91.62942504882812;-0.285436749458313;0.3768594264984131;-0.0716094970703125;-0.059814453125;9.683090209960938
1445421542215;91.62289428710938;-0.27517083287239075;0.38519740104675293;-0.0716094970703125;-0.0205841064453125;9.741928100585938
1445421542248;91.61642456054688;-0.2650235891342163;0.39340323209762573;-0.091217041015625;-0.0009765625;9.722305297851562
1445421542281;91.60971069335938;-0.25478285551071167;0.39136484265327454;-0.0519866943359375;-0.0205841064453125;9.70269775390625
1445421542315;91.60848999023438;-0.2527904510498047;0.39530280232429504;-0.0716094970703125;-0.0205841064453125;9.741928100585938
1445421542360;91.60137939453125;-0.2414172738790512;0.4121708273887634;-0.091217041015625;-0.0205841064453125;9.781143188476562
1445421542380;91.59603881835938;-0.23292283713817596;0.42357608675956726;-0.1304473876953125;-0.0009765625;9.800765991210938
1445421542443;91.5833740234375;-0.21343763172626495;0.4260175824165344;-0.091217041015625;-0.0009765625;9.741928100585938
1445421542468;91.588134765625;-0.22056780755519867;0.4308110177516937;-0.091217041015625;-0.079437255859375;9.683090209960938
1445421542520;91.58892822265625;-0.2213965505361557;0.4454653859138489;-0.1304473876953125;-0.059814453125;9.70269775390625
1445421542544;91.59341430664062;-0.22781671583652496;0.4613068997859955;-0.150054931640625;-0.079437255859375;9.741928100585938
1445421542568;91.59695434570312;-0.23258958756923676;0.4843473434448242;-0.1892852783203125;-0.059814453125;9.722305297851562
1445421542602;91.59222412109375;-0.2249639630317688;0.4977893829345703;-0.1108245849609375;-0.0205841064453125;9.781143188476562
1445421542619;91.5894775390625;-0.2208968549966812;0.492971271276474;-0.0519866943359375;-0.0205841064453125;9.76153564453125
1445421542677;91.60513305664062;-0.2456016093492508;0.4674316942691803;-0.0519866943359375;-0.079437255859375;9.64385986328125
1445421542703;91.6090087890625;-0.2515617907047272;0.4677416980266571;-0.0716094970703125;-0.059814453125;9.70269775390625
1445421542767;91.61700439453125;-0.26294979453086853;0.49613672494888306;-0.1304473876953125;-0.0402069091796875;9.741928100585938
1445421542774;91.61700439453125;-0.26294979453086853;0.49613672494888306;-0.1304473876953125;-0.0402069091796875;9.741928100585938
1445421542801;91.62445068359375;-0.2745470404624939;0.4900970757007599;-0.091217041015625;-0.059814453125;9.781143188476562
1445421542834;91.62451171875;-0.2747248411178589;0.4867643713951111;-0.0716094970703125;-0.0205841064453125;9.800765991210938
1445421542868;91.6295166015625;-0.28304824233055115;0.4647851586341858;-0.032379150390625;-0.059814453125;9.741928100585938
1445421542899;91.652587890625;-0.31885749101638794;0.45019954442977905;-0.032379150390625;-0.11865234375;9.87921142578125
1445421542932;91.68438720703125;-0.3674811124801636;0.4529436230659485;-0.0716094970703125;-0.197113037109375;9.663467407226562
1445421542969;91.71044921875;-0.40706464648246765;0.4653770923614502;-0.091217041015625;-0.079437255859375;9.722305297851562
1445421542999;91.70172119140625;-0.39351972937583923;0.46996188163757324;-0.1304473876953125;-0.0205841064453125;9.741928100585938
1445421543031;91.68994140625;-0.37533801794052124;0.47578319907188416;-0.0716094970703125;-0.059814453125;9.76153564453125
1445421543064;91.71200561523438;-0.4099257290363312;0.45013657212257385;-0.032379150390625;-0.11865234375;9.781143188476562
1445421543100;91.70867919921875;-0.40423741936683655;0.4688841998577118;-0.150054931640625;-0.0402069091796875;9.76153564453125
1445421543130;91.69992065429688;-0.3903147876262665;0.4855242371559143;-0.1696624755859375;-0.0205841064453125;9.70269775390625
1445421543163;91.6995849609375;-0.38944488763809204;0.49674564599990845;-0.1108245849609375;-0.079437255859375;9.741928100585938
1445421543196;91.70440673828125;-0.3968287706375122;0.496997594833374;-0.0716094970703125;-0.059814453125;9.76153564453125
1445421543232;91.68548583984375;-0.3681698739528656;0.48737478256225586;-0.0519866943359375;0.0382537841796875;9.76153564453125
1445421543262;91.67837524414062;-0.3573433458805084;0.48385611176490784;-0.0716094970703125;-0.059814453125;9.741928100585938
1445421543295;91.68463134765625;-0.3670339584350586;0.47998255491256714;-0.0519866943359375;-0.0990447998046875;9.741928100585938
1445421543330;91.69122314453125;-0.37743648886680603;0.4700944721698761;-0.0716094970703125;-0.079437255859375;9.76153564453125
1445421543363;91.67428588867188;-0.3524271845817566;0.43905872106552124;0.0068511962890625;-0.059814453125;9.76153564453125
1445421543394;91.67584228515625;-0.3550747036933899;0.4289472699165344;-0.032379150390625;-0.059814453125;9.741928100585938
1445421543429;91.664794921875;-0.33882802724838257;0.4072237014770508;-0.032379150390625;-0.0205841064453125;9.781143188476562
1445421543460;91.65689086914062;-0.3267693817615509;0.4037601947784424;-0.0716094970703125;-0.0402069091796875;9.781143188476562
1445421543494;91.65969848632812;-0.33107608556747437;0.4043806195259094;-0.0716094970703125;-0.0990447998046875;9.781143188476562
1445421543526;91.66799926757812;-0.3436582088470459;0.409529447555542;-0.091217041015625;-0.079437255859375;9.839996337890625
1445421543560;91.66714477539062;-0.3422842025756836;0.41099563241004944;-0.091217041015625;-0.0205841064453125;9.76153564453125
1445421543593;91.65908813476562;-0.32965415716171265;0.4202502965927124;-0.091217041015625;-0.0402069091796875;9.683090209960938
1445421543625;91.65426635742188;-0.32161638140678406;0.44241634011268616;-0.1108245849609375;-0.0402069091796875;9.70269775390625
1445421543658;91.65023803710938;-0.3154430091381073;0.44214102625846863;-0.0716094970703125;-0.0205841064453125;9.741928100585938
1445421543691;91.6478271484375;-0.3119520843029022;0.43508368730545044;-0.032379150390625;-0.059814453125;9.781143188476562
1445421543725;91.6644287109375;-0.3376827836036682;0.4256090223789215;-0.0716094970703125;-0.138275146484375;9.70269775390625
1445421543757;91.66668701171875;-0.34088075160980225;0.43541964888572693;-0.1108245849609375;-0.079437255859375;9.781143188476562
1445421543790;91.66464233398438;-0.33738887310028076;0.447873055934906;-0.0716094970703125;-0.059814453125;9.741928100585938
1445421543823;91.66046142578125;-0.3308362066745758;0.4524998068809509;-0.091217041015625;-0.059814453125;9.722305297851562
1445421543856;91.66424560546875;-0.3367088735103607;0.45033347606658936;-0.0716094970703125;-0.079437255859375;9.722305297851562
1445421543889;91.67306518554688;-0.35044145584106445;0.44214367866516113;-0.0519866943359375;-0.11865234375;9.76153564453125
1445421543922;91.6734619140625;-0.35093843936920166;0.4461739957332611;-0.032379150390625;-0.0990447998046875;9.741928100585938
1445421543956;91.67916870117188;-0.3598267138004303;0.4417949616909027;-0.091217041015625;-0.079437255859375;9.722305297851562
1445421543989;91.67724609375;-0.35667961835861206;0.4478972554206848;-0.1108245849609375;-0.059814453125;9.741928100585938
1445421544021;91.66839599609375;-0.3433879017829895;0.4395699203014374;-0.0519866943359375;-0.0009765625;9.741928100585938
1445421544054;91.66302490234375;-0.3355327546596527;0.4250868558883667;-0.0519866943359375;-0.0205841064453125;9.741928100585938
1445421544087;91.66796875;-0.34347787499427795;0.4139043390750885;-0.01275634765625;-0.059814453125;9.741928100585938
1445421544120;91.671875;-0.349362850189209;0.41649919748306274;-0.091217041015625;-0.079437255859375;9.70269775390625
1445421544153;91.67608642578125;-0.35515764355659485;0.4395541250705719;-0.1304473876953125;-0.0402069091796875;9.722305297851562
1445421544186;91.66720581054688;-0.34093838930130005;0.4608686864376068;-0.1304473876953125;-0.0205841064453125;9.683090209960938
1445421544220;91.6705322265625;-0.3458123803138733;0.46818798780441284;-0.1108245849609375;-0.079437255859375;9.683090209960938
1445421544251;91.67385864257812;-0.3510214388370514;0.4637610912322998;-0.0519866943359375;-0.059814453125;9.722305297851562
1445421544290;91.67822265625;-0.3575361371040344;0.4691823720932007;-0.1108245849609375;-0.0990447998046875;9.76153564453125
1445421544318;91.68478393554688;-0.3673969805240631;0.4763655364513397;-0.1108245849609375;-0.0990447998046875;9.70269775390625
1445421544351;91.68490600585938;-0.36728283762931824;0.48720476031303406;-0.091217041015625;-0.0402069091796875;9.781143188476562
1445421544385;91.68682861328125;-0.37025269865989685;0.48471271991729736;-0.0716094970703125;-0.079437255859375;9.76153564453125
1445421544418;91.67666625976562;-0.3554885685443878;0.4581069052219391;-0.01275634765625;-0.0009765625;9.663467407226562
1445421544450;91.67977905273438;-0.36121270060539246;0.4259079694747925;0.0068511962890625;-0.11865234375;9.781143188476562
1445421544486;91.68115234375;-0.36385592818260193;0.40729689598083496;0.0068511962890625;-0.079437255859375;9.76153564453125
1445421544516;91.68301391601562;-0.3662966191768646;0.4223440885543823;-0.150054931640625;-0.079437255859375;9.76153564453125
1445421544549;91.68887329101562;-0.37508004903793335;0.42925506830215454;-0.091217041015625;-0.0402069091796875;9.722305297851562
1445421544583;91.6702880859375;-0.3465988039970398;0.4286833107471466;-0.0519866943359375;-0.0009765625;9.722305297851562
1445421544615;91.65155029296875;-0.3185412585735321;0.40561941266059875;-0.01275634765625;-0.0205841064453125;9.741928100585938
1445421544648;91.65554809570312;-0.3247700333595276;0.40259355306625366;-0.091217041015625;-0.0402069091796875;9.781143188476562
1445421544681;91.65713500976562;-0.3270067870616913;0.4090486466884613;-0.1108245849609375;-0.0990447998046875;9.76153564453125
1445421544715;91.6490478515625;-0.3145873248577118;0.4094131886959076;-0.0716094970703125;-0.0402069091796875;9.741928100585938
1445421544747;91.64923095703125;-0.3149012625217438;0.4081408381462097;-0.0716094970703125;-0.059814453125;9.722305297851562
1445421544780;91.63916015625;-0.2995745837688446;0.4054185152053833;-0.0519866943359375;0.0186309814453125;9.741928100585938
1445421544814;91.6373291015625;-0.29623010754585266;0.42320430278778076;-0.091217041015625;-0.0205841064453125;9.76153564453125
1445421544851;91.63446044921875;-0.291586309671402;0.4303625822067261;-0.1108245849609375;-0.0205841064453125;9.781143188476562
1445421544898;91.61016845703125;-0.2540728747844696;0.4413614273071289;-0.091217041015625;0.0186309814453125;9.741928100585938
1445421544915;91.60101318359375;-0.2403024137020111;0.4325995147228241;-0.032379150390625;-0.0009765625;9.781143188476562
1445421544946;91.5938720703125;-0.22944669425487518;0.42860767245292664;-0.0519866943359375;-0.0009765625;9.70269775390625
1445421544980;91.58798217773438;-0.22076092660427094;0.41574642062187195;-0.01275634765625;-0.0205841064453125;9.663467407226562
1445421545012;91.58761596679688;-0.22050978243350983;0.405971884727478;-0.1108245849609375;0.0186309814453125;9.76153564453125
1445421545045;91.58258056640625;-0.21260832250118256;0.4126681983470917;-0.0716094970703125;-0.0402069091796875;9.76153564453125
1445421545079;91.5738525390625;-0.19980643689632416;0.389909565448761;-0.01275634765625;-0.0205841064453125;9.781143188476562
1445421545112;91.58169555664062;-0.2117634266614914;0.3934442102909088;-0.0716094970703125;-0.079437255859375;9.741928100585938
1445421545143;91.5830078125;-0.2136486917734146;0.39696359634399414;-0.0716094970703125;-0.0205841064453125;9.781143188476562
1445421545176;91.58773803710938;-0.2203000783920288;0.4199921190738678;-0.150054931640625;-0.059814453125;9.800765991210938
1445421545209;91.5909423828125;-0.22495363652706146;0.4278090000152588;-0.1108245849609375;-0.079437255859375;9.781143188476562
1445421545242;91.60150146484375;-0.24104471504688263;0.430824875831604;-0.0519866943359375;-0.059814453125;9.781143188476562
1445421545275;91.60565185546875;-0.24755173921585083;0.4271714687347412;-0.0519866943359375;-0.11865234375;9.683090209960938
1445421545308;91.61090087890625;-0.25600504875183105;0.41224223375320435;-0.032379150390625;-0.0402069091796875;9.76153564453125
1445421545341;91.622802734375;-0.27429458498954773;0.41070595383644104;-0.0716094970703125;-0.0990447998046875;9.741928100585938
1445421545374;91.62664794921875;-0.28022587299346924;0.4105795919895172;-0.032379150390625;-0.079437255859375;9.82037353515625
1445421545407;91.63796997070312;-0.2979092299938202;0.39904096722602844;-0.0519866943359375;-0.11865234375;9.800765991210938
1445421545440;91.64852905273438;-0.3146134912967682;0.3802791237831116;0.0068511962890625;-0.0990447998046875;9.663467407226562
1445421545474;91.6566162109375;-0.32736486196517944;0.368699848651886;-0.091217041015625;-0.079437255859375;9.722305297851562
1445421545506;91.6588134765625;-0.33039093017578125;0.38106366991996765;-0.1108245849609375;-0.059814453125;9.70269775390625
1445421545539;91.65988159179688;-0.3314644992351532;0.4011070728302002;-0.1108245849609375;-0.0402069091796875;9.683090209960938
1445421545572;91.6611328125;-0.3331556022167206;0.40727540850639343;-0.091217041015625;-0.059814453125;9.76153564453125
1445421545605;91.6673583984375;-0.3421933650970459;0.4256635904312134;-0.1304473876953125;-0.059814453125;9.741928100585938
1445421545638;91.66607666015625;-0.3397972881793976;0.44034188985824585;-0.091217041015625;-0.0205841064453125;9.722305297851562
1445421545671;91.6636962890625;-0.33589616417884827;0.44829219579696655;-0.1108245849609375;-0.0402069091796875;9.70269775390625
1445421545704;91.6630859375;-0.33496537804603577;0.4491727650165558;-0.091217041015625;-0.0402069091796875;9.683090209960938
1445421545737;91.65838623046875;-0.3276389241218567;0.45396435260772705;-0.0519866943359375;-0.079437255859375;9.781143188476562
1445421545770;91.6644287109375;-0.33686789870262146;0.45438316464424133;-0.0716094970703125;-0.079437255859375;9.741928100585938
1445421545803;91.65817260742188;-0.3276653587818146;0.4402776062488556;-0.032379150390625;-0.0205841064453125;9.76153564453125
1445421545838;91.65487670898438;-0.322712779045105;0.43693652749061584;-0.0519866943359375;-0.0402069091796875;9.781143188476562
1445421545869;91.650146484375;-0.31556856632232666;0.43277934193611145;-0.091217041015625;-0.0402069091796875;9.722305297851562
1445421545902;91.6429443359375;-0.3043273687362671;0.44126078486442566;-0.1108245849609375;-0.079437255859375;9.663467407226562
1445421545937;91.64791870117188;-0.31190499663352966;0.4415072798728943;-0.0716094970703125;-0.0990447998046875;9.64385986328125
1445421545968;91.63839721679688;-0.29709911346435547;0.4494510293006897;-0.1108245849609375;-0.0009765625;9.70269775390625
1445421546001;91.63848876953125;-0.29682910442352295;0.4642402231693268;-0.1108245849609375;-0.079437255859375;9.70269775390625
1445421546034;91.636474609375;-0.29387035965919495;0.4585232436656952;-0.0519866943359375;-0.0402069091796875;9.683090209960938
1445421546068;91.63812255859375;-0.296527236700058;0.4536935091018677;-0.091217041015625;-0.0990447998046875;9.722305297851562
1445421546101;91.65048217773438;-0.3153005838394165;0.4601176381111145;-0.091217041015625;-0.0990447998046875;9.70269775390625
1445421546132;91.65203857421875;-0.31728827953338623;0.47335007786750793;-0.1304473876953125;-0.079437255859375;9.741928100585938
1445421546166;91.64230346679688;-0.30204880237579346;0.485158234834671;-0.0716094970703125;-0.0205841064453125;9.722305297851562
1445421546199;91.64047241210938;-0.29932716488838196;0.4820558726787567;-0.0716094970703125;0.0186309814453125;9.722305297851562
1445421546233;91.622802734375;-0.27245646715164185;0.47440558671951294;-0.0716094970703125;-0.0205841064453125;9.683090209960938
1445421546266;91.62957763671875;-0.28262031078338623;0.4834720194339752;-0.150054931640625;-0.0990447998046875;9.781143188476562
1445421546299;91.63189697265625;-0.285903662443161;0.4911775290966034;-0.091217041015625;-0.079437255859375;9.76153564453125
1445421546331;91.63369750976562;-0.2884415090084076;0.5000346899032593;-0.1108245849609375;-0.0205841064453125;9.741928100585938
1445421546364;91.6324462890625;-0.28652411699295044;0.49932152032852173;-0.0716094970703125;-0.0402069091796875;9.800765991210938
1445421546397;91.62994384765625;-0.28276270627975464;0.4975361227989197;-0.0716094970703125;-0.0205841064453125;9.800765991210938
1445421546430;91.61935424804688;-0.26665163040161133;0.49332767724990845;-0.0716094970703125;-0.0009765625;9.741928100585938
1445421546463;91.61773681640625;-0.26402294635772705;0.49801042675971985;-0.0716094970703125;-0.0402069091796875;9.76153564453125
1445421546496;91.6204833984375;-0.2679762840270996;0.5069626569747925;-0.1108245849609375;-0.079437255859375;9.741928100585938
1445421546529;91.62335205078125;-0.27243396639823914;0.5050331354141235;-0.0716094970703125;-0.059814453125;9.76153564453125
1445421546562;91.62689208984375;-0.27799585461616516;0.5009567141532898;-0.0716094970703125;-0.0009765625;9.722305297851562
1445421546602;91.62322998046875;-0.27240633964538574;0.4991641342639923;-0.0716094970703125;-0.079437255859375;9.76153564453125
1445421546629;91.63253784179688;-0.28671273589134216;0.49857938289642334;-0.0716094970703125;-0.059814453125;9.70269775390625
1445421546662;91.62945556640625;-0.2818474769592285;0.5039175152778625;-0.091217041015625;-0.059814453125;9.76153564453125
1445421546694;91.63027954101562;-0.28311437368392944;0.502747118473053;-0.091217041015625;-0.0402069091796875;9.722305297851562
1445421546728;91.64251708984375;-0.30128565430641174;0.5220507979393005;-0.150054931640625;-0.079437255859375;9.722305297851562
1445421546760;91.64645385742188;-0.30746352672576904;0.5171422362327576;-0.0716094970703125;-0.079437255859375;9.722305297851562
1445421546793;91.63995361328125;-0.29781752824783325;0.5075633525848389;-0.0519866943359375;-0.0402069091796875;9.683090209960938
1445421546827;91.6468505859375;-0.3084239363670349;0.5045104026794434;-0.0716094970703125;-0.0990447998046875;9.722305297851562
1445421546859;91.645751953125;-0.3067757189273834;0.5037114024162292;-0.0716094970703125;-0.0402069091796875;9.70269775390625
1445421546892;91.63125610351562;-0.284954309463501;0.49148431420326233;-0.0716094970703125;0.0382537841796875;9.76153564453125
1445421546925;91.63088989257812;-0.2843768894672394;0.4915635585784912;-0.0519866943359375;-0.0402069091796875;9.64385986328125
1445421546958;91.62908935546875;-0.28171372413635254;0.4885466396808624;-0.091217041015625;-0.0402069091796875;9.624237060546875
1445421546991;91.61810302734375;-0.2651612460613251;0.4787306785583496;-0.0519866943359375;-0.0402069091796875;9.70269775390625
1445421547024;91.61846923828125;-0.2658952474594116;0.4732489585876465;-0.0519866943359375;-0.0990447998046875;9.683090209960938
1445421547057;91.6343994140625;-0.29024258255958557;0.4748528301715851;-0.091217041015625;-0.11865234375;9.722305297851562
1445421547090;91.6378173828125;-0.29578036069869995;0.4650235176086426;-0.0519866943359375;-0.0402069091796875;9.70269775390625
1445421547123;91.63571166992188;-0.292456716299057;0.4679988920688629;-0.091217041015625;-0.0402069091796875;9.663467407226562
1445421547156;91.63119506835938;-0.28553518652915955;0.46765854954719543;-0.0716094970703125;-0.0205841064453125;9.683090209960938
1445421547189;91.63104248046875;-0.28554531931877136;0.4595324993133545;-0.0716094970703125;-0.0402069091796875;9.683090209960938
1445421547223;91.63070678710938;-0.2848644554615021;0.4653514623641968;-0.1108245849609375;-0.059814453125;9.741928100585938
1445421547256;91.63543701171875;-0.29203084111213684;0.46805286407470703;-0.0716094970703125;-0.0402069091796875;9.76153564453125
1445421547288;91.63351440429688;-0.2893284857273102;0.4595343768596649;-0.0716094970703125;-0.079437255859375;9.70269775390625
1445421547321;91.64199829101562;-0.30230093002319336;0.46058356761932373;-0.0519866943359375;-0.079437255859375;9.683090209960938
1445421547355;91.63912963867188;-0.29803159832954407;0.45562395453453064;-0.0519866943359375;-0.0009765625;9.781143188476562
1445421547388;91.634521484375;-0.29094624519348145;0.45634835958480835;-0.032379150390625;-0.0402069091796875;9.76153564453125
1445421547420;91.63052368164062;-0.28509843349456787;0.44684624671936035;-0.0716094970703125;-0.0205841064453125;9.76153564453125
1445421547453;91.61483764648438;-0.2608643174171448;0.4537132978439331;-0.0716094970703125;0.0186309814453125;9.82037353515625
1445421547490;91.6109619140625;-0.25469744205474854;0.46118462085723877;-0.091217041015625;-0.0009765625;9.800765991210938
1445421547520;91.61013793945312;-0.2535317838191986;0.4590657949447632;-0.0716094970703125;-0.0205841064453125;9.70269775390625
1445421547553;91.613037109375;-0.2580204904079437;0.456462025642395;-0.0716094970703125;-0.0402069091796875;9.70269775390625
1445421547585;91.613037109375;-0.2580204904079437;0.456462025642395;-0.0519866943359375;-0.0009765625;9.722305297851562
1445421547618;91.6021728515625;-0.24185004830360413;0.4404110610485077;-0.032379150390625;-0.0205841064453125;9.70269775390625
1445421547651;91.60586547851562;-0.24776481091976166;0.43169963359832764;-0.0519866943359375;-0.0402069091796875;9.722305297851562
1445421547684;91.59881591796875;-0.2371247410774231;0.4250456392765045;-0.0716094970703125;0.0186309814453125;9.741928100585938
1445421547718;91.57479858398438;-0.1999053657054901;0.4393973648548126;-0.1108245849609375;0.057861328125;9.70269775390625
1445421547750;91.57354736328125;-0.19807255268096924;0.4369303584098816;-0.0519866943359375;-0.079437255859375;9.741928100585938
1445421547783;91.5814208984375;-0.21053571999073029;0.4228159785270691;-0.032379150390625;-0.0402069091796875;9.781143188476562
1445421547817;91.59075927734375;-0.22491896152496338;0.4192596673965454;-0.0716094970703125;-0.059814453125;9.781143188476562
1445421547849;91.59136962890625;-0.22565899789333344;0.4265962243080139;-0.1108245849609375;-0.079437255859375;9.722305297851562
1445421547882;91.60150146484375;-0.24070073664188385;0.44406700134277344;-0.1108245849609375;-0.059814453125;9.722305297851562
1445421547915;91.61087036132812;-0.2553417384624481;0.43452897667884827;-0.0519866943359375;-0.079437255859375;9.76153564453125
1445421547949;91.6187744140625;-0.26744282245635986;0.43516409397125244;-0.0716094970703125;-0.0990447998046875;9.781143188476562
1445421547981;91.63619995117188;-0.29436442255973816;0.42742595076560974;-0.0519866943359375;-0.0990447998046875;9.741928100585938
1445421548016;91.63848876953125;-0.2977297902107239;0.4320971965789795;-0.1108245849609375;-0.0990447998046875;9.70269775390625
1445421548047;91.64068603515625;-0.3006947338581085;0.44685059785842896;-0.1108245849609375;-0.0009765625;9.76153564453125
1445421548080;91.63711547851562;-0.2950228750705719;0.453153133392334;-0.091217041015625;-0.079437255859375;9.722305297851562
1445421548114;91.63558959960938;-0.29256802797317505;0.45745986700057983;-0.0716094970703125;-0.059814453125;9.70269775390625
1445421548148;91.63690185546875;-0.2945490777492523;0.45888036489486694;-0.091217041015625;-0.0402069091796875;9.683090209960938
1445421548179;91.63113403320312;-0.2855186462402344;0.46507513523101807;-0.0519866943359375;-0.0205841064453125;9.76153564453125
1445421548216;91.6331787109375;-0.28873908519744873;0.4619809091091156;-0.091217041015625;-0.059814453125;9.76153564453125
1445421548246;91.63800048828125;-0.2963423728942871;0.4551447927951813;-0.0519866943359375;-0.079437255859375;9.76153564453125
1445421548278;91.63967895507812;-0.29871177673339844;0.4618890881538391;-0.091217041015625;-0.0402069091796875;9.683090209960938
1445421548311;91.6407470703125;-0.30031296610832214;0.46357306838035583;-0.091217041015625;-0.059814453125;9.683090209960938
1445421548343;91.65802001953125;-0.32696133852005005;0.45607054233551025;-0.0519866943359375;-0.0990447998046875;9.70269775390625
1445421548381;91.66268920898438;-0.33408820629119873;0.4570300579071045;-0.0519866943359375;-0.11865234375;9.82037353515625
1445421548410;91.6754150390625;-0.35375094413757324;0.45229795575141907;-0.091217041015625;-0.11865234375;9.800765991210938
1445421548446;91.67449951171875;-0.3521847128868103;0.4576568305492401;-0.1108245849609375;-0.059814453125;9.741928100585938
1445421548479;91.67755126953125;-0.3568102717399597;0.4600677788257599;-0.0716094970703125;-0.11865234375;9.70269775390625
1445421548510;91.67953491210938;-0.360257625579834;0.445774108171463;-0.032379150390625;-0.0205841064453125;9.741928100585938
1445421548542;91.67901611328125;-0.3589417338371277;0.46388599276542664;-0.150054931640625;-0.079437255859375;9.741928100585938
1445421548578;91.67391967773438;-0.3507860004901886;0.4751090705394745;-0.1108245849609375;-0.0402069091796875;9.741928100585938
1445421548608;91.66799926757812;-0.34123197197914124;0.4918500781059265;-0.1108245849609375;-0.0402069091796875;9.76153564453125
1445421548642;91.66287231445312;-0.3334783911705017;0.4878721833229065;-0.0716094970703125;-0.059814453125;9.741928100585938
1445421548674;91.66677856445312;-0.3397981822490692;0.47644105553627014;-0.032379150390625;-0.079437255859375;9.70269775390625
1445421548707;91.66064453125;-0.33082231879234314;0.4618508815765381;-0.01275634765625;-0.059814453125;9.722305297851562
1445421548741;91.65475463867188;-0.32201963663101196;0.45463502407073975;-0.0716094970703125;-0.0009765625;9.722305297851562
1445421548773;91.64956665039062;-0.31374409794807434;0.4658052325248718;-0.1304473876953125;-0.0009765625;9.722305297851562
1445421548806;91.65121459960938;-0.31598034501075745;0.47561320662498474;-0.1108245849609375;-0.0205841064453125;9.663467407226562
1445421548839;91.65078735351562;-0.31523147225379944;0.47827762365341187;-0.0519866943359375;-0.0009765625;9.741928100585938
1445421548872;91.638427734375;-0.2967183589935303;0.4638485014438629;-0.0519866943359375;-0.0009765625;9.781143188476562
1445421548905;91.62176513671875;-0.27119719982147217;0.4635733962059021;-0.091217041015625;0.0186309814453125;9.741928100585938
1445421548942;91.6185302734375;-0.2662835121154785;0.4631023406982422;-0.0519866943359375;-0.059814453125;9.741928100585938
1445421548971;91.62548828125;-0.2768498361110687;0.4658629298210144;-0.1108245849609375;-0.059814453125;9.741928100585938
1445421549005;91.63156127929688;-0.2861303687095642;0.46637478470802307;-0.1108245849609375;-0.0990447998046875;9.663467407226562
1445421549037;91.6422119140625;-0.3025241196155548;0.4640864133834839;-0.0519866943359375;-0.138275146484375;9.70269775390625
1445421549070;91.650146484375;-0.31437376141548157;0.4748222529888153;-0.091217041015625;-0.0402069091796875;9.70269775390625
1445421549104;91.64144897460938;-0.30060726404190063;0.4896041452884674;-0.1304473876953125;-0.0205841064453125;9.722305297851562
1445421549137;91.63699340820312;-0.29394829273223877;0.48411282896995544;-0.0519866943359375;-0.0205841064453125;9.741928100585938
1445421549169;91.63296508789062;-0.28738516569137573;0.4976041316986084;-0.1108245849609375;-0.059814453125;9.741928100585938
1445421549202;91.63201904296875;-0.2859936058521271;0.4967837333679199;-0.1108245849609375;-0.0205841064453125;9.722305297851562
1445421549236;91.62957763671875;-0.28236252069473267;0.49215593934059143;-0.01275634765625;-0.059814453125;9.76153564453125
1445421549269;91.62472534179688;-0.275315523147583;0.47828051447868347;0.0068511962890625;-0.0205841064453125;9.70269775390625
1445421549301;91.61859130859375;-0.2661447525024414;0.4694664180278778;-0.032379150390625;0.0186309814453125;9.722305297851562
1445421549335;91.60107421875;-0.2402561753988266;0.4359982907772064;0.04608154296875;-0.0009765625;9.70269775390625
1445421549367;91.60263061523438;-0.2430456280708313;0.42205196619033813;-0.032379150390625;-0.079437255859375;9.722305297851562
1445421549400;91.60433959960938;-0.2457621544599533;0.4200006127357483;-0.091217041015625;-0.0402069091796875;9.781143188476562
1445421549433;91.6053466796875;-0.2471686750650406;0.42268168926239014;-0.0519866943359375;-0.0402069091796875;9.800765991210938
1445421549466;91.60342407226562;-0.24439334869384766;0.4183090329170227;-0.091217041015625;-0.059814453125;9.70269775390625
1445421549499;91.6065673828125;-0.2488720566034317;0.43001002073287964;-0.091217041015625;-0.0402069091796875;9.741928100585938
1445421549532;91.6099853515625;-0.254130095243454;0.42843756079673767;-0.091217041015625;-0.059814453125;9.663467407226562
1445421549565;91.61468505859375;-0.2614864706993103;0.4232976734638214;-0.032379150390625;-0.059814453125;9.722305297851562
1445421549598;91.61492919921875;-0.26216188073158264;0.41220197081565857;-0.01275634765625;-0.0402069091796875;9.70269775390625
1445421549631;91.60882568359375;-0.25351762771606445;0.38743388652801514;-0.01275634765625;-0.0205841064453125;9.741928100585938
1445421549665;91.6083984375;-0.2532522976398468;0.3738389015197754;0.0068511962890625;-0.059814453125;9.741928100585938
1445421549702;91.60971069335938;-0.25555214285850525;0.3641323447227478;-0.091217041015625;-0.0205841064453125;9.722305297851562
1445421549733;91.615966796875;-0.2654174566268921;0.3552839159965515;-0.032379150390625;-0.079437255859375;9.722305297851562
1445421549764;91.61187744140625;-0.25912708044052124;0.35488638281822205;-0.01275634765625;-0.0402069091796875;9.800765991210938
1445421549799;91.6126708984375;-0.2608034312725067;0.34032702445983887;-0.01275634765625;-0.059814453125;9.76153564453125
1445421549830;91.60617065429688;-0.250190407037735;0.3611379563808441;-0.1108245849609375;-0.0205841064453125;9.76153564453125
1445421549863;91.60821533203125;-0.25328537821769714;0.36408644914627075;-0.0716094970703125;-0.059814453125;9.70269775390625
1445421549895;91.621337890625;-0.2734144926071167;0.3640199303627014;-0.091217041015625;-0.079437255859375;9.70269775390625
1445421549928;91.61541748046875;-0.26421672105789185;0.36669841408729553;-0.0519866943359375;-0.0402069091796875;9.70269775390625
1445421549962;91.61520385742188;-0.26389411091804504;0.3672538101673126;-0.0716094970703125;-0.0402069091796875;9.76153564453125
1445421549996;91.62127685546875;-0.27297601103782654;0.37632623314857483;-0.091217041015625;-0.059814453125;9.663467407226562
1445421550030;91.62548828125;-0.279217392206192;0.3819839358329773;-0.1108245849609375;-0.0205841064453125;9.76153564453125
1445421550062;91.6201171875;-0.27071163058280945;0.39264875650405884;-0.0716094970703125;-0.0205841064453125;9.76153564453125
1445421550093;91.62307739257812;-0.2748033106327057;0.4080502986907959;-0.091217041015625;-0.0402069091796875;9.741928100585938
1445421550132;91.6265869140625;-0.2801366448402405;0.4108072817325592;-0.032379150390625;-0.059814453125;9.859603881835938
1445421550160;91.62283325195312;-0.27454325556755066;0.4036889970302582;-0.0716094970703125;-0.0205841064453125;9.82037353515625
1445421550192;91.62313842773438;-0.27447453141212463;0.42330068349838257;-0.1108245849609375;-0.059814453125;9.800765991210938
1445421550225;91.62646484375;-0.2795208990573883;0.42498016357421875;-0.0716094970703125;-0.059814453125;9.741928100585938
1445421550259;91.63250732421875;-0.28909236192703247;0.41438600420951843;-0.032379150390625;-0.0402069091796875;9.76153564453125
1445421550291;91.62820434570312;-0.28264477849006653;0.4088982939720154;-0.0519866943359375;-0.0205841064453125;9.76153564453125
1445421550324;91.63250732421875;-0.28929054737091064;0.40629783272743225;-0.0519866943359375;-0.079437255859375;9.781143188476562
1445421550356;91.64315795898438;-0.30604463815689087;0.39252057671546936;0.0068511962890625;-0.0990447998046875;9.70269775390625
1445421550390;91.64974975585938;-0.3164488673210144;0.3825741410255432;-0.0716094970703125;-0.059814453125;9.722305297851562
1445421550423;91.64547729492188;-0.3097611665725708;0.387005478143692;-0.0716094970703125;-0.0205841064453125;9.722305297851562
1445421550456;91.64389038085938;-0.3073336184024811;0.38731464743614197;-0.0716094970703125;-0.079437255859375;9.663467407226562
1445421550489;91.64822387695312;-0.3139614462852478;0.38716474175453186;-0.0716094970703125;-0.0402069091796875;9.70269775390625
1445421550522;91.64599609375;-0.3105069100856781;0.388264000415802;-0.0716094970703125;-0.059814453125;9.800765991210938
1445421550555;91.64404296875;-0.30743342638015747;0.39198240637779236;-0.1108245849609375;-0.0205841064453125;9.781143188476562
1445421550589;91.638427734375;-0.2985442280769348;0.40089401602745056;-0.0716094970703125;-0.0402069091796875;9.781143188476562
1445421550621;91.63351440429688;-0.29104167222976685;0.40038809180259705;-0.0519866943359375;-0.0205841064453125;9.82037353515625
1445421550654;91.6185302734375;-0.2675212323665619;0.41789039969444275;-0.1108245849609375;-0.0009765625;9.781143188476562
1445421550688;91.61553955078125;-0.2628726363182068;0.42148295044898987;-0.091217041015625;-0.0009765625;9.781143188476562
1445421550721;91.61236572265625;-0.25786128640174866;0.4268015921115875;-0.091217041015625;-0.0205841064453125;9.683090209960938
1445421550754;91.61349487304688;-0.2594236135482788;0.4326530992984772;-0.091217041015625;-0.059814453125;9.722305297851562
1445421550786;91.61502075195312;-0.26170533895492554;0.4345960319042206;-0.091217041015625;-0.059814453125;9.70269775390625
1445421550819;91.62777709960938;-0.28081169724464417;0.4506254494190216;-0.1304473876953125;-0.079437255859375;9.722305297851562
1445421550852;91.636962890625;-0.29460203647613525;0.4587015211582184;-0.1108245849609375;-0.059814453125;9.683090209960938
1445421550886;91.64007568359375;-0.29910558462142944;0.4685632884502411;-0.1108245849609375;-0.079437255859375;9.683090209960938
1445421550918;91.64187622070312;-0.3017464876174927;0.4727097153663635;-0.091217041015625;-0.079437255859375;9.663467407226562
1445421550951;91.64157104492188;-0.3013915717601776;0.4690430760383606;-0.091217041015625;-0.0205841064453125;9.76153564453125
1445421550984;91.64251708984375;-0.3027321398258209;0.47217196226119995;-0.0716094970703125;-0.059814453125;9.741928100585938
1445421551017;91.63677978515625;-0.2942679822444916;0.46107104420661926;-0.0519866943359375;-0.0402069091796875;9.76153564453125
1445421551054;91.636962890625;-0.29452648758888245;0.462336927652359;-0.091217041015625;-0.0402069091796875;9.76153564453125
1445421551083;91.6395263671875;-0.29873284697532654;0.45210403203964233;-0.01275634765625;-0.079437255859375;9.76153564453125
1445421551117;91.63040161132812;-0.285261332988739;0.43531811237335205;-0.0519866943359375;-0.0009765625;9.781143188476562
1445421551149;91.62594604492188;-0.27840906381607056;0.4354141354560852;-0.0519866943359375;-0.0205841064453125;9.781143188476562
1445421551182;91.62661743164062;-0.2793833017349243;0.4370824694633484;-0.0519866943359375;-0.059814453125;9.70269775390625
1445421551216;91.62744140625;-0.28047436475753784;0.4446452260017395;-0.091217041015625;-0.0205841064453125;9.70269775390625
1445421551255;91.62338256835938;-0.2739694118499756;0.4530097246170044;-0.0519866943359375;-0.0009765625;9.683090209960938
1445421551281;91.61138916015625;-0.2556411623954773;0.451738566160202;-0.0519866943359375;0.0186309814453125;9.741928100585938
1445421551316;91.60977172851562;-0.25309813022613525;0.45359504222869873;-0.1108245849609375;-0.0402069091796875;9.741928100585938
1445421551348;91.61587524414062;-0.2622661292552948;0.46037155389785767;-0.091217041015625;-0.079437255859375;9.64385986328125
1445421551380;91.62310791015625;-0.2732356786727905;0.4639369249343872;-0.0519866943359375;-0.0402069091796875;9.722305297851562
1445421551415;91.61569213867188;-0.2620174288749695;0.45980143547058105;-0.0716094970703125;-0.059814453125;9.683090209960938
1445421551446;91.62646484375;-0.2785852253437042;0.45701274275779724;-0.0716094970703125;-0.0990447998046875;9.663467407226562
1445421551480;91.62918090820312;-0.28265631198883057;0.4603849947452545;-0.091217041015625;-0.059814453125;9.722305297851562
1445421551513;91.63360595703125;-0.2894893288612366;0.4595927596092224;-0.0716094970703125;-0.079437255859375;9.70269775390625
1445421551546;91.6256103515625;-0.277464896440506;0.4516131579875946;-0.0716094970703125;-0.0009765625;9.722305297851562
1445421551578;91.62203979492188;-0.2720116078853607;0.4500362277030945;-0.091217041015625;-0.079437255859375;9.70269775390625
1445421551612;91.6314697265625;-0.2863065302371979;0.455307275056839;-0.091217041015625;-0.079437255859375;9.741928100585938
1445421551646;91.63446044921875;-0.290887713432312;0.4548977017402649;-0.0519866943359375;-0.0205841064453125;9.741928100585938
1445421551680;91.631103515625;-0.2858176529407501;0.4521414041519165;-0.0519866943359375;-0.0205841064453125;9.663467407226562
1445421551710;91.62918090820312;-0.2836444675922394;0.42607542872428894;0.0068511962890625;-0.0402069091796875;9.722305297851562
1445421551743;91.62362670898438;-0.2751076817512512;0.4262111783027649;-0.0716094970703125;-0.0402069091796875;9.741928100585938
1445421551776;91.6212158203125;-0.2713738679885864;0.4286227524280548;-0.0716094970703125;-0.0205841064453125;9.70269775390625
1445421551809;91.6156005859375;-0.26271167397499084;0.4294712543487549;-0.0519866943359375;-0.0205841064453125;9.683090209960938
1445421551842;91.6024169921875;-0.24281415343284607;0.41941314935684204;-0.01275634765625;0.0186309814453125;9.741928100585938
1445421551875;91.59661865234375;-0.2339126616716385;0.4193821847438812;-0.0716094970703125;0.0186309814453125;9.781143188476562
1445421551908;91.58938598632812;-0.22313974797725677;0.40828055143356323;-0.01275634765625;-0.0009765625;9.781143188476562
1445421551941;91.58615112304688;-0.2180592119693756;0.41174745559692383;-0.0519866943359375;0.0186309814453125;9.76153564453125
1445421551974;91.57962036132812;-0.20824286341667175;0.40576282143592834;-0.0519866943359375;-0.0402069091796875;9.722305297851562
1445421552007;91.58477783203125;-0.21632909774780273;0.39862123131752014;-0.0519866943359375;-0.059814453125;9.64385986328125
1445421552041;91.5843505859375;-0.21568350493907928;0.3982260525226593;-0.091217041015625;-0.079437255859375;9.683090209960938
