sep=;
timestamp;gyro-alpha;gyro-beta;gyro-gamma;accel-x;accel-y;accel-z
1445509798660;136.48580932617188;-109.86752319335938;6.681575775146484;1.30133056640625;-11.749343872070312;-4.53656005859375
1445509798690;126.9539794921875;-119.5300521850586;5.680379390716553;1.30133056640625;-11.749343872070312;-4.53656005859375
1445509798723;119.6783447265625;-130.4542236328125;2.6066110134124756;1.30133056640625;-11.749343872070312;-4.53656005859375
1445509798756;116.92362976074219;-134.70135498046875;0.6603487133979797;1.30133056640625;-11.749343872070312;-4.53656005859375
1445509798792;112.96353149414062;-140.73641967773438;-3.0842323303222656;2.8507843017578125;-2.6095428466796875;1.4847259521484375
1445509798823;110.9102783203125;-143.1475372314453;-5.352280139923096;2.8507843017578125;-2.6095428466796875;1.4847259521484375
1445509798855;110.30313110351562;-142.5865478515625;-5.453729629516602;2.8507843017578125;-2.6095428466796875;1.4847259521484375
1445509798888;110.63531494140625;-138.55299377441406;-5.108181476593018;3.9098968505859375;-4.3159027099609375;-7.2628021240234375
1445509798921;111.12481689453125;-135.51126098632812;-4.885555744171143;3.9098968505859375;-4.3159027099609375;-7.2628021240234375
1445509798954;113.55026245117188;-128.56344604492188;-2.0412685871124268;3.9098968505859375;-4.3159027099609375;-7.2628021240234375
1445509799029;120.84059143066406;-114.06979370117188;1.7976610660552979;1.12481689453125;-10.14105224609375;-2.5556182861328125
1445509799064;123.47679138183594;-110.42166137695312;1.2612791061401367;1.12481689453125;-10.14105224609375;-2.5556182861328125
1445509799030;120.84059143066406;-114.06979370117188;1.7976610660552979;1.12481689453125;-10.14105224609375;-2.5556182861328125
1445509799117;128.96707153320312;-100.88257598876953;-0.25680917501449585;1.12481689453125;-10.14105224609375;-2.5556182861328125
1445509799145;129.44461059570312;-98.47123718261719;-0.2069244682788849;-0.267730712890625;-11.062881469726562;-1.0257720947265625
1445509799193;133.4329376220703;-92.39363861083984;0.3722035884857178;-0.267730712890625;-11.062881469726562;-1.0257720947265625
1445509799216;134.77171325683594;-90.59074401855469;0.9335830211639404;-0.267730712890625;-11.062881469726562;-1.0257720947265625
1445509799259;135.99009704589844;-87.65872192382812;1.2135642766952515;0.5756378173828125;-8.611221313476562;-1.3984375
1445509799317;138.14898681640625;-84.73446655273438;0.5158945918083191;0.5756378173828125;-8.611221313476562;-1.3984375
1445509799321;138.14898681640625;-84.73446655273438;0.5158945918083191;0.5756378173828125;-8.611221313476562;-1.3984375
1445509799351;138.18057250976562;-83.09557342529297;-0.8936435580253601;0.5756378173828125;-8.611221313476562;-1.3984375
1445509799384;137.6149444580078;-82.0172348022461;-1.801911473274231;0.1245269775390625;-11.670883178710938;0.36676025390625
1445509799417;136.9558868408203;-79.50559997558594;-3.4728751182556152;0.1245269775390625;-11.670883178710938;0.36676025390625
1445509799452;136.6746063232422;-78.0497817993164;-4.776889801025391;0.1245269775390625;-11.670883178710938;0.36676025390625
1445509799484;136.40499877929688;-78.72021484375;-5.245483875274658;1.811279296875;-13.534149169921875;-3.9873809814453125
1445509799516;134.96971130371094;-82.24888610839844;-5.530340671539307;1.811279296875;-13.534149169921875;-3.9873809814453125
1445509799548;132.0688018798828;-88.13899993896484;-5.148308753967285;1.811279296875;-13.534149169921875;-3.9873809814453125
1445509799582;131.3489227294922;-91.80264282226562;-4.667914390563965;1.811279296875;-13.534149169921875;-3.9873809814453125
1445509799614;131.45504760742188;-98.65210723876953;-2.226064443588257;0.1833648681640625;-13.632217407226562;1.2297515869140625
1445509799649;131.3976593017578;-100.7710952758789;-0.8226954340934753;0.1833648681640625;-13.632217407226562;1.2297515869140625
1445509799681;129.95278930664062;-104.22583770751953;1.2047001123428345;0.1833648681640625;-13.632217407226562;1.2297515869140625
1445509799713;124.82264709472656;-107.61811828613281;1.6177010536193848;3.7922210693359375;-8.277786254882812;-0.2020263671875
1445509799747;121.96929931640625;-110.4034194946289;1.465177059173584;3.7922210693359375;-8.277786254882812;-0.2020263671875
1445509799780;117.17256164550781;-115.77739715576172;1.453200101852417;3.7922210693359375;-8.277786254882812;-0.2020263671875
1445509799813;112.72958374023438;-119.65440368652344;1.5326757431030273;1.18365478515625;-3.2960052490234375;2.210418701171875
1445509799846;111.01939392089844;-120.73556518554688;1.709570050239563;1.18365478515625;-3.2960052490234375;2.210418701171875
1445509799879;108.583984375;-120.60884857177734;1.8168617486953735;1.18365478515625;-3.2960052490234375;2.210418701171875
1445509799912;107.8150634765625;-117.19075775146484;1.9518685340881348;0.8306121826171875;-7.92474365234375;-5.55645751953125
1445509799945;108.04606628417969;-114.99974822998047;2.3758928775787354;0.8306121826171875;-7.92474365234375;-5.55645751953125
1445509799978;108.05587768554688;-113.09966278076172;1.871246099472046;0.8306121826171875;-7.92474365234375;-5.55645751953125
1445509800012;108.46199035644531;-111.35409545898438;1.155664324760437;5.6750946044921875;-16.731124877929688;-4.3796539306640625
1445509800045;110.423095703125;-110.81171417236328;1.5488778352737427;5.6750946044921875;-16.731124877929688;-4.3796539306640625
1445509800077;114.7034912109375;-108.7988510131836;2.4708147048950195;5.6750946044921875;-16.731124877929688;-4.3796539306640625
1445509800111;118.04551696777344;-106.25899505615234;2.3199596405029297;5.6750946044921875;-16.731124877929688;-4.3796539306640625
1445509800142;120.93325805664062;-100.00374603271484;1.0880001783370972;0.477569580078125;-15.94659423828125;3.15185546875
1445509800176;120.56106567382812;-95.84146118164062;1.7072023153305054;0.477569580078125;-15.94659423828125;3.15185546875
1445509800209;121.0946044921875;-94.86125183105469;1.9267922639846802;0.477569580078125;-15.94659423828125;3.15185546875
1445509800242;123.83409118652344;-91.57176971435547;3.2434253692626953;0.477569580078125;-15.94659423828125;3.15185546875
1445509800275;128.9920654296875;-87.17481231689453;4.425246715545654;1.3209381103515625;-9.081939697265625;-0.7904205322265625
1445509800308;130.68124389648438;-85.33001708984375;4.493934631347656;1.3209381103515625;-9.081939697265625;-0.7904205322265625
1445509800341;133.51942443847656;-82.47212982177734;3.972888469696045;1.3209381103515625;-9.081939697265625;-0.7904205322265625
1445509800374;137.52871704101562;-80.2352523803711;3.6655993461608887;-1.3072357177734375;-10.8863525390625;-0.7904205322265625
1445509800407;138.4636993408203;-79.46297454833984;3.212768793106079;-1.3072357177734375;-10.8863525390625;-0.7904205322265625
1445509800440;138.984130859375;-77.81549072265625;1.3921160697937012;-1.3072357177734375;-10.8863525390625;-0.7904205322265625
1445509800473;139.30052185058594;-76.72001647949219;0.35095950961112976;1.2032623291015625;-14.514816284179688;-0.692352294921875
1445509800506;139.84844970703125;-74.82633209228516;-1.360243558883667;1.2032623291015625;-14.514816284179688;-0.692352294921875
1445509800540;139.92015075683594;-74.94658660888672;-1.891341209411621;1.2032623291015625;-14.514816284179688;-0.692352294921875
1445509800574;139.20526123046875;-76.32770538330078;-1.5633338689804077;0.3991241455078125;-13.946029663085938;-3.889312744140625
1445509800605;137.228271484375;-81.83536529541016;-0.5296050310134888;0.3991241455078125;-13.946029663085938;-3.889312744140625
1445509800638;137.23057556152344;-89.78352355957031;1.0276380777359009;0.3991241455078125;-13.946029663085938;-3.889312744140625
1445509800672;137.71853637695312;-93.95661926269531;1.9632902145385742;1.732818603515625;-13.651840209960938;2.386932373046875
1445509800704;137.76016235351562;-101.46002197265625;3.4901304244995117;1.732818603515625;-13.651840209960938;2.386932373046875
1445509800736;137.94503784179688;-107.82806396484375;6.98928165435791;1.732818603515625;-13.651840209960938;2.386932373046875
1445509800769;136.24440002441406;-111.07673645019531;8.68329906463623;1.732818603515625;-13.651840209960938;2.386932373046875
1445509800802;126.28001403808594;-121.21306610107422;8.043390274047852;-0.660003662109375;-11.141326904296875;-0.692352294921875
1445509800835;121.57203674316406;-127.15640258789062;6.663010120391846;-0.660003662109375;-11.141326904296875;-0.692352294921875
1445509800868;115.22409057617188;-136.92959594726562;3.1885316371917725;-0.660003662109375;-11.141326904296875;-0.692352294921875
1445509800902;111.44136047363281;-142.4923553466797;-0.031869664788246155;1.850494384765625;-2.648773193359375;0.30792236328125
1445509800935;110.025146484375;-143.7906494140625;-1.3652963638305664;1.850494384765625;-2.648773193359375;0.30792236328125
1445509800969;108.12760925292969;-143.75730895996094;-2.3873894214630127;1.850494384765625;-2.648773193359375;0.30792236328125
1445509801001;107.03642272949219;-140.67178344726562;-2.880889892578125;2.046630859375;-5.9830322265625;-8.714187622070312
1445509801034;106.03173828125;-138.27919006347656;-3.3187592029571533;2.046630859375;-5.9830322265625;-8.714187622070312
1445509801068;105.07266235351562;-132.75558471679688;-2.8388025760650635;2.046630859375;-5.9830322265625;-8.714187622070312
1445509801101;108.22097778320312;-126.67251586914062;0.17825116217136383;2.4781341552734375;-7.7874603271484375;-0.94732666015625
1445509801133;111.14151000976562;-122.99459075927734;1.8639612197875977;2.4781341552734375;-7.7874603271484375;-0.94732666015625
1445509801171;118.19131469726562;-114.92198944091797;3.2160167694091797;2.4781341552734375;-7.7874603271484375;-0.94732666015625
1445509801199;121.8226318359375;-110.43434143066406;3.4869110584259033;-1.3856964111328125;-14.593276977539062;-0.3981475830078125
1445509801232;126.73226928710938;-102.08345031738281;3.7580411434173584;-1.3856964111328125;-14.593276977539062;-0.3981475830078125
1445509801265;126.43893432617188;-97.30451965332031;3.261317014694214;-1.3856964111328125;-14.593276977539062;-0.3981475830078125
1445509801298;126.57272338867188;-95.89818572998047;3.110028028488159;-1.464141845703125;-9.650726318359375;-0.2608642578125
1445509801331;130.0110626220703;-91.7618408203125;3.8653199672698975;-1.464141845703125;-9.650726318359375;-0.2608642578125
1445509801369;133.4418487548828;-87.91812896728516;4.012186527252197;-1.464141845703125;-9.650726318359375;-0.2608642578125
1445509801396;134.4811553955078;-86.26675415039062;3.8876407146453857;-1.464141845703125;-9.650726318359375;-0.2608642578125
1445509801430;136.03407287597656;-83.50164031982422;3.130005359649658;-1.4445343017578125;-9.886077880859375;-0.633514404296875
1445509801462;135.35342407226562;-80.9498062133789;1.6761233806610107;-1.4445343017578125;-9.886077880859375;-0.633514404296875
1445509801495;134.2183380126953;-79.83942413330078;0.7309849262237549;-1.4445343017578125;-9.886077880859375;-0.633514404296875
1445509801529;131.37367248535156;-78.36692810058594;-1.0443731546401978;1.0071258544921875;-12.71038818359375;-3.791259765625
1445509801563;130.08863830566406;-77.95549011230469;-1.6436952352523804;1.0071258544921875;-12.71038818359375;-3.791259765625
1445509801595;128.6086883544922;-79.99243927001953;-1.966828465461731;1.0071258544921875;-12.71038818359375;-3.791259765625
1445509801627;127.10504150390625;-86.74037170410156;-0.844931960105896;3.7922210693359375;-15.083602905273438;-4.5757904052734375
1445509801660;127.2772216796875;-91.08796691894531;-0.2699437141418457;3.7922210693359375;-15.083602905273438;-4.5757904052734375
1445509801694;128.8168182373047;-99.94001007080078;1.4400408267974854;3.7922210693359375;-15.083602905273438;-4.5757904052734375
1445509801727;128.5038299560547;-106.00370788574219;4.172307968139648;-1.3072357177734375;-12.318130493164062;3.1714630126953125
1445509801759;126.79957580566406;-108.88261413574219;5.074425220489502;-1.3072357177734375;-12.318130493164062;3.1714630126953125
1445509801793;118.05291748046875;-117.17741394042969;4.313640117645264;-1.3072357177734375;-12.318130493164062;3.1714630126953125
1445509801825;110.5113525390625;-127.24032592773438;2.0550537109375;2.1446990966796875;-7.944366455078125;0.4844512939453125
1445509801859;107.62466430664062;-131.6404266357422;0.5731564164161682;2.1446990966796875;-7.944366455078125;0.4844512939453125
1445509801891;102.80712890625;-138.0779266357422;-2.764751672744751;2.1446990966796875;-7.944366455078125;0.4844512939453125
1445509801925;99.55801391601562;-140.6858367919922;-4.950459003448486;2.164306640625;-0.0990447998046875;-2.14373779296875
1445509801957;98.86376953125;-140.2728271484375;-4.789538383483887;2.164306640625;-0.0990447998046875;-2.14373779296875
1445509801991;97.98095703125;-136.57705688476562;-3.785109758377075;2.164306640625;-0.0990447998046875;-2.14373779296875
1445509802024;98.50228881835938;-133.44869995117188;-2.339686155319214;3.63531494140625;-11.474761962890625;-0.0843353271484375
1445509802058;104.58245849609375;-124.78795623779297;2.1755332946777344;3.63531494140625;-11.474761962890625;-0.0843353271484375
1445509802090;109.4541015625;-116.18424987792969;4.357973575592041;3.63531494140625;-11.474761962890625;-0.0843353271484375
1445509802123;110.98764038085938;-113.06301879882812;4.713185787200928;3.63531494140625;-11.474761962890625;-0.0843353271484375
1445509802156;115.5806884765625;-106.58914947509766;4.501405715942383;0.477569580078125;-8.297409057617188;-0.0451202392578125
1445509802188;120.72637939453125;-99.2332763671875;3.3493525981903076;0.477569580078125;-8.297409057617188;-0.0451202392578125
1445509802222;120.685791015625;-96.47207641601562;3.4450783729553223;0.477569580078125;-8.297409057617188;-0.0451202392578125
1445509802255;120.03038024902344;-94.04621887207031;3.138094186782837;-1.5426025390625;-10.494094848632812;-0.1431732177734375
1445509802287;121.78945922851562;-92.2317123413086;3.31221866607666;-1.5426025390625;-10.494094848632812;-0.1431732177734375
1445509802321;126.75093078613281;-88.42984771728516;3.8913118839263916;-1.5426025390625;-10.494094848632812;-0.1431732177734375
1445509802354;128.23941040039062;-85.89407348632812;3.5484201908111572;0.7913818359375;-9.434967041015625;-1.2807464599609375
1445509802388;128.71022033691406;-85.04656982421875;3.291408061981201;0.7913818359375;-9.434967041015625;-1.2807464599609375
1445509802420;129.9644775390625;-83.23211669921875;2.3813343048095703;0.7913818359375;-9.434967041015625;-1.2807464599609375
1445509802452;130.19046020507812;-80.7707748413086;0.9896444082260132;-1.0718841552734375;-12.9261474609375;-1.5553436279296875
1445509802486;129.3488311767578;-79.52214813232422;0.14414958655834198;-1.0718841552734375;-12.9261474609375;-1.5553436279296875
1445509802519;127.95269775390625;-77.61682891845703;-1.85394287109375;-1.0718841552734375;-12.9261474609375;-1.5553436279296875
1445509802552;127.16508483886719;-77.9649429321289;-2.8672549724578857;0.3206634521484375;-14.612884521484375;-2.9871063232421875
1445509802584;126.11802673339844;-79.74059295654297;-2.595392942428589;0.3206634521484375;-14.612884521484375;-2.9871063232421875
1445509802620;122.30487060546875;-86.02365112304688;-1.427119255065918;0.3206634521484375;-14.612884521484375;-2.9871063232421875
1445509802651;120.45034790039062;-94.44791412353516;-0.22159238159656525;1.046356201171875;-16.868408203125;1.190521240234375
1445509802684;120.545654296875;-98.9680404663086;0.7435877323150635;1.046356201171875;-16.868408203125;1.190521240234375
1445509802719;121.18531799316406;-105.73119354248047;3.556302547454834;1.046356201171875;-16.868408203125;1.190521240234375
1445509802751;119.33287048339844;-110.52471923828125;6.666333198547363;1.046356201171875;-16.868408203125;1.190521240234375
1445509802784;115.31329345703125;-113.72547912597656;7.019280910491943;0.3795013427734375;-10.160659790039062;-1.6141815185546875
1445509802819;105.49539184570312;-123.57838439941406;5.043099403381348;0.3795013427734375;-10.160659790039062;-1.6141815185546875
1445509802851;101.58151245117188;-128.43133544921875;2.932785749435425;0.3795013427734375;-10.160659790039062;-1.6141815185546875
1445509802881;96.6917724609375;-135.7422332763672;-1.1512374877929688;4.0864105224609375;-4.413970947265625;1.131683349609375
1445509802915;93.32568359375;-140.12197875976562;-4.456470966339111;4.0864105224609375;-4.413970947265625;1.131683349609375
1445509802948;92.1270751953125;-141.34983825683594;-5.470026969909668;4.0864105224609375;-4.413970947265625;1.131683349609375
1445509802980;92.26620483398438;-140.5731201171875;-4.784566402435303;2.9488525390625;-1.4915924072265625;-6.6940155029296875
1445509803014;93.78192138671875;-135.72840881347656;-2.5025453567504883;2.9488525390625;-1.4915924072265625;-6.6940155029296875
1445509803046;95.39907836914062;-132.62237548828125;0.13990291953086853;2.9488525390625;-1.4915924072265625;-6.6940155029296875
1445509803079;98.25592041015625;-125.63654327392578;3.7763683795928955;3.0272979736328125;-13.338027954101562;-2.8302001953125
1445509803113;99.00689697265625;-122.56879425048828;4.430967330932617;3.0272979736328125;-13.338027954101562;-2.8302001953125
1445509803146;103.54611206054688;-115.90385437011719;5.369222164154053;3.0272979736328125;-13.338027954101562;-2.8302001953125
1445509803179;110.09597778320312;-107.78638458251953;5.313307285308838;1.0855865478515625;-13.122268676757812;-1.18267822265625
1445509803212;112.92701721191406;-103.8174057006836;5.8035054206848145;1.0855865478515625;-13.122268676757812;-1.18267822265625
1445509803245;118.17819213867188;-96.67174530029297;6.510804176330566;1.0855865478515625;-13.122268676757812;-1.18267822265625
1445509803278;120.63088989257812;-92.14213562011719;6.777340412139893;-2.974365234375;-9.729171752929688;-0.4177703857421875
1445509803311;122.42843627929688;-90.62632751464844;6.890997409820557;-2.974365234375;-9.729171752929688;-0.4177703857421875
1445509803344;128.19705200195312;-86.48845672607422;7.906051158905029;-2.974365234375;-9.729171752929688;-0.4177703857421875
1445509803377;130.55899047851562;-83.0703125;7.675146579742432;-0.0519866943359375;-9.807632446289062;-1.6337890625
1445509803410;131.2274627685547;-81.87448120117188;7.355963706970215;-0.0519866943359375;-9.807632446289062;-1.6337890625
1445509803443;133.20135498046875;-79.9602279663086;6.192604064941406;-0.0519866943359375;-9.807632446289062;-1.6337890625
1445509803475;133.19944763183594;-79.2082748413086;5.5401482582092285;-0.58154296875;-13.298797607421875;0.01373291015625
1445509803509;131.9242706298828;-77.84005737304688;3.8333728313446045;-0.58154296875;-13.298797607421875;0.01373291015625
1445509803542;131.22238159179688;-76.50410461425781;1.3968455791473389;-0.58154296875;-13.298797607421875;0.01373291015625
1445509803574;130.95066833496094;-76.02823638916016;0.4113328754901886;-0.58154296875;-13.298797607421875;0.01373291015625
1445509803607;129.97265625;-77.197265625;-0.0195599552243948;2.125091552734375;-13.2203369140625;-3.3597564697265625
1445509803641;127.79531860351562;-82.3104019165039;1.3900781869888306;2.125091552734375;-13.2203369140625;-3.3597564697265625
1445509803674;126.30522155761719;-86.28178405761719;2.0924479961395264;2.125091552734375;-13.2203369140625;-3.3597564697265625
1445509803706;126.60482788085938;-95.51155853271484;3.8932642936706543;-0.0716094970703125;-15.397415161132812;3.857940673828125
1445509803740;129.75677490234375;-101.72493743896484;7.432969093322754;-0.0716094970703125;-15.397415161132812;3.857940673828125
1445509803774;129.36895751953125;-103.81903839111328;8.580072402954102;-0.0716094970703125;-15.397415161132812;3.857940673828125
1445509803807;123.04541015625;-110.84050750732422;8.546318054199219;0.8894500732421875;-10.003753662109375;-3.2420806884765625
1445509803839;118.50723266601562;-116.42449951171875;7.3565168380737305;0.8894500732421875;-10.003753662109375;-3.2420806884765625
1445509803872;110.86683654785156;-126.8927993774414;3.189894676208496;0.8894500732421875;-10.003753662109375;-3.2420806884765625
1445509803905;108.02261352539062;-135.73414611816406;-0.2784252166748047;2.811553955078125;-4.355133056640625;0.01373291015625
1445509803938;107.45761108398438;-139.1355438232422;-1.989859938621521;2.811553955078125;-4.355133056640625;0.01373291015625
1445509803971;107.3121337890625;-143.22189331054688;-4.4018354415893555;2.811553955078125;-4.355133056640625;0.01373291015625
1445509804004;108.44369506835938;-144.4234161376953;-4.662070274353027;2.183929443359375;-2.4330291748046875;-3.144012451171875
1445509804037;109.48464965820312;-144.10745239257812;-4.016905784606934;2.183929443359375;-2.4330291748046875;-3.144012451171875
1445509804070;112.43296813964844;-141.03428649902344;-1.50770103931427;2.183929443359375;-2.4330291748046875;-3.144012451171875
1445509804103;114.0772705078125;-135.0137939453125;0.8935478925704956;-0.6796112060546875;-13.181106567382812;-9.930221557617188
1445509804137;114.98541259765625;-131.69595336914062;3.37202787399292;-0.6796112060546875;-13.181106567382812;-9.930221557617188
1445509804170;118.000732421875;-125.8608169555664;7.17753791809082;-0.6796112060546875;-13.181106567382812;-9.930221557617188
1445509804201;124.96319580078125;-119.76766967773438;10.18510913848877;6.65576171875;-5.9045867919921875;0.81787109375
1445509804235;130.8372802734375;-115.59263610839844;10.713345527648926;6.65576171875;-5.9045867919921875;0.81787109375
1445509804268;143.76060485839844;-105.69760131835938;10.210393905639648;6.65576171875;-5.9045867919921875;0.81787109375
1445509804300;150.02622985839844;-100.3836441040039;10.343185424804688;-4.0923309326171875;-12.004318237304688;1.0532379150390625
1445509804334;160.9234161376953;-90.52593994140625;11.548256874084473;-4.0923309326171875;-12.004318237304688;1.0532379150390625
1445509804368;169.73687744140625;-83.0201644897461;11.265143394470215;-4.0923309326171875;-12.004318237304688;1.0532379150390625
1445509804402;172.53819274902344;-81.15917205810547;10.627096176147461;-3.052825927734375;-10.690231323242188;-0.751190185546875
1445509804434;178.4432830810547;-80.25240325927734;8.29029369354248;-3.052825927734375;-10.690231323242188;-0.751190185546875
1445509804465;188.43896484375;-78.46588897705078;6.407598495483398;-3.052825927734375;-10.690231323242188;-0.751190185546875
1445509804498;193.118896484375;-77.16708374023438;5.97141170501709;-3.052825927734375;-10.690231323242188;-0.751190185546875
1445509804532;199.025146484375;-75.27825927734375;4.912165641784668;-2.425201416015625;-9.140777587890625;-0.2020263671875
1445509804564;202.5849609375;-74.59832000732422;3.4764087200164795;-2.425201416015625;-9.140777587890625;-0.2020263671875
1445509804598;203.8922119140625;-74.4610366821289;2.53779935836792;-2.425201416015625;-9.140777587890625;-0.2020263671875
1445509804631;205.12408447265625;-74.43473052978516;0.11720272153615952;-0.2481231689453125;-11.670883178710938;-0.300079345703125
1445509804663;205.8326416015625;-74.39730834960938;-1.25577712059021;-0.2481231689453125;-11.670883178710938;-0.300079345703125
1445509804696;207.0479736328125;-74.37122344970703;-3.4347219467163086;-0.2481231689453125;-11.670883178710938;-0.300079345703125
1445509804730;208.89727783203125;-75.31480407714844;-4.614325046539307;-0.6207733154296875;-13.338027954101562;0.2883148193359375
1445509804763;210.0816650390625;-76.3953628540039;-4.760129928588867;-0.6207733154296875;-13.338027954101562;0.2883148193359375
1445509804796;211.673828125;-79.78650665283203;-3.7490949630737305;-0.6207733154296875;-13.338027954101562;0.2883148193359375
1445509804829;215.5557861328125;-84.11539459228516;-2.944467067718506;2.7723236083984375;-10.219512939453125;0.6609649658203125
1445509804862;220.76144409179688;-86.54981994628906;-2.7943034172058105;2.7723236083984375;-10.219512939453125;0.6609649658203125
1445509804895;229.95358276367188;-90.77008819580078;-2.53999924659729;2.7723236083984375;-10.219512939453125;0.6609649658203125
1445509804928;230.992919921875;-94.10078430175781;-4.739684581756592;2.67425537109375;-8.846572875976562;0.7001953125
1445509804961;230.739990234375;-95.55378723144531;-6.645335674285889;2.67425537109375;-8.846572875976562;0.7001953125
1445509804993;232.81692504882812;-98.26659393310547;-8.177678108215332;2.67425537109375;-8.846572875976562;0.7001953125
1445509805027;234.77145385742188;-99.19967651367188;-8.52793025970459;3.1253662109375;-5.9830322265625;-0.94732666015625
1445509805059;238.381591796875;-100.53119659423828;-9.851871490478516;3.1253662109375;-5.9830322265625;-0.94732666015625
1445509805093;241.928466796875;-101.67890167236328;-11.734028816223145;3.1253662109375;-5.9830322265625;-0.94732666015625
1445509805126;244.15374755859375;-102.23871612548828;-12.613049507141113;3.1253662109375;-5.9830322265625;-0.94732666015625
1445509805158;250.18429565429688;-103.18163299560547;-13.897013664245605;0.16375732421875;-6.1399383544921875;-1.6730194091796875
1445509805192;256.52801513671875;-103.46121978759766;-14.297981262207031;0.16375732421875;-6.1399383544921875;-1.6730194091796875
1445509805225;259.375732421875;-103.16541290283203;-14.083513259887695;0.16375732421875;-6.1399383544921875;-1.6730194091796875
1445509805258;265.6585998535156;-101.7513198852539;-12.986305236816406;-0.58154296875;-8.670059204101562;-1.888763427734375
1445509805291;269.39544677734375;-99.21308898925781;-12.048129081726074;-0.58154296875;-8.670059204101562;-1.888763427734375
1445509805324;269.9820251464844;-97.6679458618164;-11.794795036315918;-0.58154296875;-8.670059204101562;-1.888763427734375
1445509805357;271.0567626953125;-94.9773178100586;-11.20129108428955;1.5955352783203125;-11.670883178710938;-4.65423583984375
1445509805390;272.5169677734375;-94.03624725341797;-10.723355293273926;1.5955352783203125;-11.670883178710938;-4.65423583984375
1445509805424;277.08697509765625;-92.37142181396484;-10.091816902160645;1.5955352783203125;-11.670883178710938;-4.65423583984375
1445509805456;281.06951904296875;-91.18685913085938;-9.94579792022705;1.222869873046875;-11.376693725585938;-1.9083709716796875
1445509805490;282.4339904785156;-91.1180419921875;-9.775031089782715;1.222869873046875;-11.376693725585938;-1.9083709716796875
1445509805522;284.7676696777344;-91.47855377197266;-9.366037368774414;1.222869873046875;-11.376693725585938;-1.9083709716796875
1445509805554;291.5419616699219;-93.52122497558594;-7.329151630401611;-2.3271331787109375;-9.023101806640625;5.48583984375
1445509805588;294.9386291503906;-94.20760345458984;-6.074503421783447;-2.3271331787109375;-9.023101806640625;5.48583984375
1445509805621;296.7997131347656;-91.8882064819336;-5.754222393035889;-2.3271331787109375;-9.023101806640625;5.48583984375
1445509805653;296.14654541015625;-88.3403549194336;-5.473390579223633;-0.91497802734375;-10.376419067382812;-2.1633453369140625
1445509805687;298.3714294433594;-87.21112060546875;-5.258553504943848;-0.91497802734375;-10.376419067382812;-2.1633453369140625
1445509805720;302.9706115722656;-86.17466735839844;-4.879876136779785;-0.91497802734375;-10.376419067382812;-2.1633453369140625
1445509805753;303.8230895996094;-84.69743347167969;-4.899156093597412;-2.0721588134765625;-9.278060913085938;-2.908660888671875
1445509805785;303.1863098144531;-84.1281967163086;-4.9252166748046875;-2.0721588134765625;-9.278060913085938;-2.908660888671875
1445509805820;301.4668273925781;-83.8984603881836;-4.586359977722168;-2.0721588134765625;-9.278060913085938;-2.908660888671875
1445509805851;301.6263122558594;-84.22161865234375;-4.284891128540039;-2.0721588134765625;-9.278060913085938;-2.908660888671875
1445509805884;302.2696838378906;-85.73406219482422;-4.302845001220703;0.026458740234375;-5.3946380615234375;-0.2608642578125
1445509805921;300.9709777832031;-87.71139526367188;-5.396029472351074;0.026458740234375;-5.3946380615234375;-0.2608642578125
1445509805952;300.4521179199219;-88.63127899169922;-6.129790782928467;0.026458740234375;-5.3946380615234375;-0.2608642578125
1445509805985;303.00762939453125;-91.3180160522461;-7.081732749938965;-0.836517333984375;-10.02337646484375;-2.8302001953125
1445509806019;305.5249328613281;-93.93572998046875;-7.71094274520874;-0.836517333984375;-10.02337646484375;-2.8302001953125
1445509806050;305.87615966796875;-96.06562042236328;-8.160478591918945;-0.836517333984375;-10.02337646484375;-2.8302001953125
1445509806083;301.4277648925781;-104.00906372070312;-10.703264236450195;0.595245361328125;-19.59466552734375;-3.144012451171875
1445509806119;297.7413024902344;-113.49851989746094;-13.166433334350586;0.595245361328125;-19.59466552734375;-3.144012451171875
1445509806148;298.35552978515625;-118.30707550048828;-12.885422706604004;0.595245361328125;-19.59466552734375;-3.144012451171875
1445509806182;298.490966796875;-125.56503295898438;-11.450776100158691;2.43890380859375;-14.86785888671875;-1.771087646484375
1445509806215;298.0419006347656;-128.26429748535156;-11.166120529174805;2.43890380859375;-14.86785888671875;-1.771087646484375
1445509806248;297.3152160644531;-131.45660400390625;-11.446809768676758;2.43890380859375;-14.86785888671875;-1.771087646484375
1445509806281;296.0023193359375;-131.600341796875;-11.355186462402344;1.5759124755859375;-2.0603790283203125;-0.123565673828125
1445509806315;295.81939697265625;-130.10653686523438;-10.845086097717285;1.5759124755859375;-2.0603790283203125;-0.123565673828125
1445509806347;296.65478515625;-124.53062438964844;-9.876785278320312;1.5759124755859375;-2.0603790283203125;-0.123565673828125
1445509806380;298.8566589355469;-117.7669906616211;-8.792444229125977;0.9482879638671875;-6.179168701171875;-2.7321319580078125
1445509806413;300.7781982421875;-115.27976989746094;-8.040060997009277;0.9482879638671875;-6.179168701171875;-2.7321319580078125
1445509806445;302.5794677734375;-112.09671783447266;-7.852823257446289;0.9482879638671875;-6.179168701171875;-2.7321319580078125
1445509806479;300.78778076171875;-109.24666595458984;-9.18169116973877;-0.0716094970703125;-10.396026611328125;-3.6343536376953125
1445509806511;300.0113525390625;-107.44812774658203;-9.283963203430176;-0.0716094970703125;-10.396026611328125;-3.6343536376953125
1445509806544;299.8125305175781;-103.47254943847656;-8.368619918823242;-0.0716094970703125;-10.396026611328125;-3.6343536376953125
1445509806578;298.8044128417969;-99.25437927246094;-7.2828850746154785;4.3021697998046875;-13.67144775390625;-5.4583892822265625
1445509806611;297.341064453125;-96.92382049560547;-7.57367467880249;4.3021697998046875;-13.67144775390625;-5.4583892822265625
1445509806643;300.2902526855469;-95.83981323242188;-7.380958080291748;4.3021697998046875;-13.67144775390625;-5.4583892822265625
1445509806677;303.5437316894531;-95.41290283203125;-7.105805397033691;4.3021697998046875;-13.67144775390625;-5.4583892822265625
1445509806710;308.415283203125;-97.41627502441406;-7.686412811279297;-7.8580780029296875;-10.297958374023438;5.780029296875
1445509806743;309.5522155761719;-99.98859405517578;-6.1536545753479;-7.8580780029296875;-10.297958374023438;5.780029296875
1445509806776;309.2428894042969;-98.40982818603516;-5.052592754364014;-7.8580780029296875;-10.297958374023438;5.780029296875
1445509806809;309.0050354003906;-94.60548400878906;-4.358023166656494;1.12481689453125;-9.493820190429688;-0.9080963134765625
1445509806842;309.7055969238281;-92.62894439697266;-4.511526584625244;1.12481689453125;-9.493820190429688;-0.9080963134765625
1445509806875;308.7724609375;-91.78863525390625;-4.897542476654053;1.12481689453125;-9.493820190429688;-0.9080963134765625
1445509806908;307.8597412109375;-90.54981231689453;-5.472821235656738;-1.4249267578125;-7.80706787109375;-3.144012451171875
1445509806941;307.7442321777344;-90.87299346923828;-5.782463550567627;-1.4249267578125;-7.80706787109375;-3.144012451171875
1445509806974;307.3758544921875;-91.4984359741211;-5.992005825042725;-1.4249267578125;-7.80706787109375;-3.144012451171875
1445509807008;307.7846984863281;-93.25973510742188;-6.436534881591797;-0.4246368408203125;-6.689117431640625;-1.0257720947265625
1445509807040;308.0472412109375;-93.91744995117188;-6.606557846069336;-0.4246368408203125;-6.689117431640625;-1.0257720947265625
1445509807073;308.7009582519531;-95.37525177001953;-6.482251167297363;-0.4246368408203125;-6.689117431640625;-1.0257720947265625
1445509807105;309.01104736328125;-98.01762390136719;-6.401304721832275;-0.7580718994140625;-10.7098388671875;-8.00811767578125
1445509807140;308.9564208984375;-100.25154113769531;-6.794405937194824;-0.7580718994140625;-10.7098388671875;-8.00811767578125
1445509807172;308.01434326171875;-108.40483856201172;-9.0703763961792;-0.7580718994140625;-10.7098388671875;-8.00811767578125
1445509807204;302.9435119628906;-117.6067886352539;-12.99128246307373;-0.6207733154296875;-22.6151123046875;0.994384765625
1445509807237;301.5210266113281;-122.438232421875;-13.379415512084961;-0.6207733154296875;-22.6151123046875;0.994384765625
1445509807271;299.63623046875;-129.41757202148438;-13.288722038269043;-0.6207733154296875;-22.6151123046875;0.994384765625
1445509807304;299.1266784667969;-133.63656616210938;-13.27649974822998;2.066253662109375;-6.5910491943359375;-0.4373779296875
1445509807337;298.98486328125;-134.77040100097656;-13.030412673950195;2.066253662109375;-6.5910491943359375;-0.4373779296875
1445509807369;297.15704345703125;-134.55523681640625;-12.466726303100586;2.066253662109375;-6.5910491943359375;-0.4373779296875
1445509807404;296.18096923828125;-132.9622039794922;-12.097021102905273;2.066253662109375;-6.5910491943359375;-0.4373779296875
1445509807435;295.5502624511719;-127.7425537109375;-11.192159652709961;1.105194091796875;-1.82501220703125;0.2686920166015625
1445509807468;298.7533874511719;-121.1505126953125;-8.940202713012695;1.105194091796875;-1.82501220703125;0.2686920166015625
1445509807502;301.5993347167969;-117.7645492553711;-7.925706386566162;1.105194091796875;-1.82501220703125;0.2686920166015625
1445509807535;305.7442626953125;-111.91045379638672;-7.751412868499756;1.164031982421875;-11.749343872070312;-4.281585693359375
1445509807569;301.8858947753906;-108.8112564086914;-9.678200721740723;1.164031982421875;-11.749343872070312;-4.281585693359375
1445509807601;299.450927734375;-107.36137390136719;-9.79267692565918;1.164031982421875;-11.749343872070312;-4.281585693359375
1445509807635;297.72265625;-102.70266723632812;-8.003297805786133;-0.405029296875;-10.02337646484375;-3.3205413818359375
1445509807668;298.9516906738281;-97.58988189697266;-5.350822925567627;-0.405029296875;-10.02337646484375;-3.3205413818359375
1445509807700;299.54669189453125;-95.58210754394531;-4.569675445556641;-0.405029296875;-10.02337646484375;-3.3205413818359375
1445509807734;301.0872802734375;-93.74246215820312;-4.394574165344238;7.597198486328125;-20.418426513671875;-1.9868316650390625
1445509807767;304.77105712890625;-95.08525085449219;-6.105431079864502;7.597198486328125;-20.418426513671875;-1.9868316650390625
1445509807798;307.3178405761719;-97.72428131103516;-5.915948867797852;7.597198486328125;-20.418426513671875;-1.9868316650390625
1445509807832;311.6841125488281;-100.28691864013672;-2.7782058715820312;-1.6995086669921875;-13.691055297851562;2.4850006103515625
1445509807868;307.93353271484375;-95.71231079101562;-2.2543389797210693;-1.6995086669921875;-13.691055297851562;2.4850006103515625
1445509807898;306.3442687988281;-93.31694030761719;-2.409907817840576;-1.6995086669921875;-13.691055297851562;2.4850006103515625
1445509807931;308.39373779296875;-91.49250793457031;-2.6567976474761963;1.2817230224609375;-8.415084838867188;-2.5948486328125
1445509807964;308.5219421386719;-90.85032653808594;-2.949772834777832;1.2817230224609375;-8.415084838867188;-2.5948486328125
1445509807996;306.4118347167969;-89.85822296142578;-3.736483335494995;1.2817230224609375;-8.415084838867188;-2.5948486328125
1445509808029;304.7785339355469;-90.11788940429688;-4.1765456199646;-0.91497802734375;-6.8264007568359375;-1.6337890625
1445509808069;304.5291748046875;-90.97232818603516;-4.775168418884277;-0.91497802734375;-6.8264007568359375;-1.6337890625
1445509808095;303.8420104980469;-92.68498992919922;-6.360147476196289;-0.91497802734375;-6.8264007568359375;-1.6337890625
1445509808136;304.3166198730469;-94.6185073852539;-7.237961769104004;-1.6406707763671875;-8.513153076171875;-2.3594818115234375
1445509808161;305.3592834472656;-96.26875305175781;-7.500619411468506;-1.6406707763671875;-8.513153076171875;-2.3594818115234375
1445509808194;305.85455322265625;-100.74512481689453;-8.745980262756348;-1.6406707763671875;-8.513153076171875;-2.3594818115234375
1445509808228;305.3043518066406;-103.57823944091797;-10.00576400756836;-1.6406707763671875;-8.513153076171875;-2.3594818115234375
1445509808261;301.7972412109375;-112.80707550048828;-13.903697967529297;-0.3069610595703125;-22.928924560546875;-1.12384033203125
1445509808296;299.57623291015625;-122.0716323852539;-15.646577835083008;-0.3069610595703125;-22.928924560546875;-1.12384033203125
1445509808328;299.51947021484375;-125.75882720947266;-15.08774185180664;-0.3069610595703125;-22.928924560546875;-1.12384033203125
1445509808360;297.693115234375;-130.57794189453125;-13.762983322143555;2.2819976806640625;-9.533035278320312;-1.75146484375
1445509808393;296.9296569824219;-133.0193634033203;-11.526001930236816;2.2819976806640625;-9.533035278320312;-1.75146484375
1445509808428;295.6965026855469;-133.29986572265625;-10.7359619140625;2.2819976806640625;-9.533035278320312;-1.75146484375
1445509808460;293.0214538574219;-131.73255920410156;-9.628138542175293;1.615142822265625;-2.4918670654296875;-0.3589324951171875
1445509808494;292.3009033203125;-127.6363525390625;-8.278505325317383;1.615142822265625;-2.4918670654296875;-0.3589324951171875
1445509808525;292.5269775390625;-124.74055480957031;-7.534496784210205;1.615142822265625;-2.4918670654296875;-0.3589324951171875
1445509808558;293.59271240234375;-118.13622283935547;-6.6629157066345215;0.6344757080078125;-5.4534759521484375;-3.57550048828125
1445509808591;294.71856689453125;-115.27827453613281;-6.114706039428711;0.6344757080078125;-5.4534759521484375;-3.57550048828125
1445509808624;296.20611572265625;-111.59676361083984;-5.06955099105835;0.6344757080078125;-5.4534759521484375;-3.57550048828125
1445509808657;295.52239990234375;-107.43407440185547;-5.031794548034668;0.4971771240234375;-9.650726318359375;-2.4967803955078125
1445509808690;294.21826171875;-105.26253509521484;-5.158675193786621;0.4971771240234375;-9.650726318359375;-2.4967803955078125
1445509808723;291.97296142578125;-101.17515563964844;-4.721652984619141;0.4971771240234375;-9.650726318359375;-2.4967803955078125
1445509808755;290.7163391113281;-96.81383514404297;-3.2755260467529297;4.2237091064453125;-17.9471435546875;-6.0663909912109375
1445509808789;289.9471740722656;-94.8347396850586;-3.0241620540618896;4.2237091064453125;-17.9471435546875;-6.0663909912109375
1445509808821;293.152587890625;-94.36885833740234;-2.5698752403259277;4.2237091064453125;-17.9471435546875;-6.0663909912109375
1445509808855;297.0738525390625;-93.73300170898438;-3.483891725540161;4.2237091064453125;-17.9471435546875;-6.0663909912109375
1445509808888;297.2591247558594;-94.55755615234375;-3.978785753250122;-7.6227264404296875;-8.670059204101562;8.486679077148438
1445509808920;301.6195373535156;-96.03119659423828;-1.5966660976409912;-7.6227264404296875;-8.670059204101562;8.486679077148438
1445509808953;299.8851013183594;-93.29190826416016;-0.03413045406341553;-7.6227264404296875;-8.670059204101562;8.486679077148438
1445509808987;296.24285888671875;-91.13619995117188;0.14430156350135803;0.7913818359375;-9.68994140625;-2.6144561767578125
1445509809020;293.5617980957031;-88.0098648071289;-0.1584623008966446;0.7913818359375;-9.68994140625;-2.6144561767578125
1445509809053;293.6287841796875;-87.65583801269531;-0.47480258345603943;0.7913818359375;-9.68994140625;-2.6144561767578125
1445509809086;292.385009765625;-86.979736328125;-1.0048730373382568;-0.7384490966796875;-8.1993408203125;-3.536285400390625
1445509809119;291.7198486328125;-87.0522689819336;-1.311142086982727;-0.7384490966796875;-8.1993408203125;-3.536285400390625
1445509809151;290.9412841796875;-87.74065399169922;-1.7236533164978027;-0.7384490966796875;-8.1993408203125;-3.536285400390625
1445509809186;289.2404479980469;-88.9745864868164;-3.296091318130493;-1.111114501953125;-8.238555908203125;0.4844512939453125
1445509809218;288.2552185058594;-89.69823455810547;-4.989684104919434;-1.111114501953125;-8.238555908203125;0.4844512939453125
1445509809251;288.6449279785156;-90.05644989013672;-5.45623779296875;-1.111114501953125;-8.238555908203125;0.4844512939453125
1445509809285;289.25787353515625;-92.50696563720703;-6.385571002960205;-1.111114501953125;-8.238555908203125;0.4844512939453125
1445509809321;287.14752197265625;-97.34510803222656;-8.500850677490234;0.34027099609375;-9.827239990234375;-5.73297119140625
1445509809350;285.2666320800781;-100.61233520507812;-9.89865779876709;0.34027099609375;-9.827239990234375;-5.73297119140625
1445509809384;285.4297790527344;-108.94011688232422;-11.012548446655273;0.34027099609375;-9.827239990234375;-5.73297119140625
1445509809449;283.4789733886719;-116.21826934814453;-9.05739974975586;0.5560302734375;-17.08416748046875;-2.967498779296875
1445509809417;285.5321044921875;-114.24601745605469;-9.569706916809082;0.5560302734375;-17.08416748046875;-2.967498779296875
1445509809482;280.1013488769531;-119.48380279541016;-8.862677574157715;0.5560302734375;-17.08416748046875;-2.967498779296875
1445509809517;278.77716064453125;-120.34252166748047;-8.859526634216309;1.47784423828125;-5.8261260986328125;-0.4766082763671875
1445509809548;275.6188049316406;-119.71395111083984;-9.247920989990234;1.47784423828125;-5.8261260986328125;-0.4766082763671875
1445509809580;273.9898376464844;-117.35163116455078;-9.594825744628906;1.47784423828125;-5.8261260986328125;-0.4766082763671875
1445509809613;273.80218505859375;-115.8155517578125;-9.522068977355957;1.47784423828125;-5.8261260986328125;-0.4766082763671875
1445509809646;273.87884521484375;-112.66887664794922;-8.978503227233887;2.7919464111328125;-5.041595458984375;-1.5553436279296875
1445509809680;275.11407470703125;-110.46321105957031;-7.845545768737793;2.7919464111328125;-5.041595458984375;-1.5553436279296875
1445509809713;276.11187744140625;-109.70186614990234;-7.160404682159424;2.7919464111328125;-5.041595458984375;-1.5553436279296875
1445509809745;276.8472900390625;-107.3203353881836;-6.233609199523926;0.04608154296875;-7.12060546875;-3.45782470703125
1445509809779;276.6092834472656;-105.63468933105469;-5.9043169021606445;0.04608154296875;-7.12060546875;-3.45782470703125
1445509809812;276.0281066894531;-102.02861785888672;-5.269305229187012;0.04608154296875;-7.12060546875;-3.45782470703125
1445509809844;275.5606384277344;-99.37698364257812;-4.368186950683594;2.1446990966796875;-10.690231323242188;-8.06695556640625
1445509809878;274.9564208984375;-98.5602798461914;-4.626959800720215;2.1446990966796875;-10.690231323242188;-8.06695556640625
1445509809910;281.5750427246094;-97.39260864257812;-5.016759872436523;2.1446990966796875;-10.690231323242188;-8.06695556640625
1445509809943;285.89947509765625;-95.59384155273438;-3.874795913696289;0.7129364013671875;-14.80902099609375;4.269805908203125
1445509809977;284.8255920410156;-93.97557067871094;-4.039754390716553;0.7129364013671875;-14.80902099609375;4.269805908203125
1445509810010;283.21453857421875;-93.42097473144531;-1.8814798593521118;0.7129364013671875;-14.80902099609375;4.269805908203125
1445509810043;286.6682434082031;-90.8337173461914;0.47509288787841797;-1.8956451416015625;-12.788848876953125;1.131683349609375
1445509810076;289.9400634765625;-89.36241149902344;1.7209678888320923;-1.8956451416015625;-12.788848876953125;1.131683349609375
1445509810109;296.6262512207031;-85.6911392211914;2.9746081829071045;-1.8956451416015625;-12.788848876953125;1.131683349609375
1445509810143;298.47979736328125;-84.28124237060547;2.5713999271392822;-1.8956451416015625;-12.788848876953125;1.131683349609375
1445509810174;300.4516906738281;-82.33541107177734;0.7565901279449463;-2.4448089599609375;-7.86590576171875;1.641632080078125
1445509810207;301.18096923828125;-79.99546813964844;-0.5442769527435303;-2.4448089599609375;-7.86590576171875;1.641632080078125
1445509810242;301.12884521484375;-78.49761962890625;-1.1047320365905762;-2.4448089599609375;-7.86590576171875;1.641632080078125
1445509810275;301.6995849609375;-75.59954071044922;-2.7053487300872803;-0.542327880859375;-9.68994140625;-0.3393096923828125
1445509810307;302.4026184082031;-74.26004028320312;-4.447134971618652;-0.542327880859375;-9.68994140625;-0.3393096923828125
1445509810342;302.52911376953125;-74.12612915039062;-5.074044227600098;-0.542327880859375;-9.68994140625;-0.3393096923828125
1445509810373;302.2826843261719;-74.9466552734375;-5.19590425491333;-3.2097320556640625;-14.514816284179688;-3.8697052001953125
1445509810405;300.0690002441406;-77.3250503540039;-4.243109226226807;-3.2097320556640625;-14.514816284179688;-3.8697052001953125
1445509810439;298.1925354003906;-80.22762298583984;-3.3732101917266846;-3.2097320556640625;-14.514816284179688;-3.8697052001953125
1445509810473;294.52655029296875;-89.72940063476562;-2.2819583415985107;4.066802978515625;-15.770065307617188;0.5236663818359375
1445509810505;294.17340087890625;-99.31753540039062;-2.426053285598755;4.066802978515625;-15.770065307617188;0.5236663818359375
1445509810537;295.98687744140625;-103.40835571289062;-2.18361234664917;4.066802978515625;-15.770065307617188;0.5236663818359375
1445509810570;297.7978210449219;-110.75682830810547;-1.562206745147705;-1.4445343017578125;-12.965362548828125;-0.2020263671875
1445509810603;296.7296447753906;-113.89193725585938;-0.8556906580924988;-1.4445343017578125;-12.965362548828125;-0.2020263671875
1445509810639;292.3088684082031;-120.63301849365234;-0.5254367589950562;-1.4445343017578125;-12.965362548828125;-0.2020263671875
1445509810670;287.7412109375;-127.43534088134766;-3.761970281600952;1.4582366943359375;-5.3161773681640625;1.9162139892578125
1445509810703;285.7586669921875;-130.315185546875;-5.742250919342041;1.4582366943359375;-5.3161773681640625;1.9162139892578125
1445509810736;284.7359619140625;-134.3179931640625;-7.397711753845215;1.4582366943359375;-5.3161773681640625;1.9162139892578125
1445509810768;286.0852966308594;-134.88687133789062;-4.962486267089844;1.4582366943359375;-5.3161773681640625;1.9162139892578125
1445509810802;286.138671875;-133.71310424804688;-3.671968698501587;0.9482879638671875;-1.0993194580078125;-1.2807464599609375
1445509810838;285.6504211425781;-129.74024963378906;-1.8121191263198853;0.9482879638671875;-1.0993194580078125;-1.2807464599609375
1445509810868;286.38720703125;-124.23873901367188;-0.9561018943786621;0.9482879638671875;-1.0993194580078125;-1.2807464599609375
1445509810900;287.85498046875;-121.41654205322266;-0.8955117464065552;0.9482879638671875;-1.0993194580078125;-1.2807464599609375
1445509810935;290.3258056640625;-115.47954559326172;-1.917759656906128;1.2817230224609375;-9.278060913085938;-2.2418060302734375
1445509810967;289.59735107421875;-112.02879333496094;-2.5619916915893555;1.2817230224609375;-9.278060913085938;-2.2418060302734375
1445509811001;284.39215087890625;-105.53871154785156;-3.088428497314453;1.2817230224609375;-9.278060913085938;-2.2418060302734375
1445509811035;283.0799560546875;-100.5481948852539;-2.318946123123169;3.949127197265625;-15.456253051757812;-7.5766143798828125
1445509811066;283.80865478515625;-98.69541931152344;-1.850095510482788;3.949127197265625;-15.456253051757812;-7.5766143798828125
1445509811098;287.2074890136719;-97.51882934570312;-0.1954428255558014;3.949127197265625;-15.456253051757812;-7.5766143798828125
1445509811135;289.304443359375;-96.84442138671875;0.4549175798892975;-2.05255126953125;-16.731124877929688;-2.9282684326171875
1445509811164;289.952392578125;-97.1884536743164;0.808895468711853;-2.05255126953125;-16.731124877929688;-2.9282684326171875
1445509811198;290.4363098144531;-99.0445785522461;1.3833757638931274;-2.05255126953125;-16.731124877929688;-2.9282684326171875
1445509811231;291.38629150390625;-95.83283996582031;3.371342182159424;-0.405029296875;-12.65155029296875;-3.771636962890625
1445509811264;291.7702941894531;-93.58103942871094;3.7237555980682373;-0.405029296875;-12.65155029296875;-3.771636962890625
1445509811296;292.3154296875;-92.1199951171875;3.471701145172119;-0.405029296875;-12.65155029296875;-3.771636962890625
1445509811330;291.4424133300781;-91.86956024169922;2.932558298110962;-1.2483978271484375;-7.297119140625;-3.8697052001953125
1445509811363;290.1873779296875;-92.17124938964844;1.951116681098938;-1.2483978271484375;-7.297119140625;-3.8697052001953125
1445509811396;290.1984558105469;-93.0377426147461;1.320665717124939;-1.2483978271484375;-7.297119140625;-3.8697052001953125
1445509811429;290.6051330566406;-93.6221694946289;0.7422249913215637;0.8502197265625;-7.6501617431640625;-1.51611328125
1445509811462;292.54180908203125;-95.5290756225586;-0.7316902279853821;0.8502197265625;-7.6501617431640625;-1.51611328125
1445509811494;295.8390197753906;-98.49752807617188;-1.3827779293060303;0.8502197265625;-7.6501617431640625;-1.51611328125
1445509811529;297.0643310546875;-100.79438781738281;-1.2288964986801147;0.8502197265625;-7.6501617431640625;-1.51611328125
1445509811561;295.84796142578125;-108.97775268554688;-1.830426573753357;-1.8956451416015625;-12.788848876953125;-7.2628021240234375
1445509811594;290.63677978515625;-119.27423858642578;-3.5951662063598633;-1.8956451416015625;-12.788848876953125;-7.2628021240234375
1445509811627;289.2356262207031;-123.86168670654297;-3.489302396774292;-1.8956451416015625;-12.788848876953125;-7.2628021240234375
1445509811660;289.6310729980469;-130.37355041503906;-3.5302975177764893;4.6159820556640625;-7.35595703125;-0.8492584228515625
1445509811693;290.94805908203125;-131.9910430908203;-2.371546745300293;4.6159820556640625;-7.35595703125;-0.8492584228515625
1445509811725;293.094482421875;-131.5673828125;0.21119162440299988;4.6159820556640625;-7.35595703125;-0.8492584228515625
1445509811759;292.01422119140625;-128.24703979492188;0.5948808789253235;1.3405609130859375;-5.0612030029296875;-2.006439208984375
1445509811791;291.21331787109375;-126.00324249267578;0.22354070842266083;1.3405609130859375;-5.0612030029296875;-2.006439208984375
1445509811824;292.49847412109375;-120.33412170410156;-0.41973596811294556;1.3405609130859375;-5.0612030029296875;-2.006439208984375
1445509811858;293.98785400390625;-114.08818054199219;-1.8621314764022827;-1.0130462646484375;-9.258453369140625;-3.1047821044921875
1445509811891;293.1810302734375;-111.60408782958984;-2.5537874698638916;-1.0130462646484375;-9.258453369140625;-3.1047821044921875
1445509811925;290.04998779296875;-107.88298797607422;-2.892059087753296;-1.0130462646484375;-9.258453369140625;-3.1047821044921875
1445509811956;287.19329833984375;-103.107177734375;-2.070387363433838;0.7717742919921875;-8.513153076171875;-3.4970550537109375
1445509811991;286.890869140625;-100.72965240478516;-1.507490873336792;0.7717742919921875;-8.513153076171875;-3.4970550537109375
1445509812023;288.5760192871094;-98.14411926269531;-0.4292028248310089;0.7717742919921875;-8.513153076171875;-3.4970550537109375
1445509812056;291.109130859375;-97.45633697509766;0.3933212459087372;3.2038116455078125;-23.340805053710938;-5.654510498046875
1445509812089;293.8874206542969;-97.61555480957031;0.11774401366710663;3.2038116455078125;-23.340805053710938;-5.654510498046875
1445509812122;296.0342712402344;-102.26846313476562;0.47078976035118103;3.2038116455078125;-23.340805053710938;-5.654510498046875
1445509812155;296.89715576171875;-102.99169158935547;1.3264918327331543;-3.1508941650390625;-14.573654174804688;-7.3216400146484375
1445509812187;294.7004089355469;-99.48309326171875;2.9398043155670166;-3.1508941650390625;-14.573654174804688;-7.3216400146484375
1445509812220;296.4992980957031;-96.7377700805664;4.255555629730225;-3.1508941650390625;-14.573654174804688;-7.3216400146484375
1445509812254;296.0038146972656;-96.45442962646484;3.7098612785339355;-3.1508941650390625;-14.573654174804688;-7.3216400146484375
1445509812287;292.9857177734375;-95.43687438964844;1.8260680437088013;2.301605224609375;-7.7678375244140625;-2.8890380859375
1445509812319;292.2969665527344;-94.59954833984375;1.2921867370605469;2.301605224609375;-7.7678375244140625;-2.8890380859375
1445509812352;292.57305908203125;-94.56449890136719;1.2849687337875366;2.301605224609375;-7.7678375244140625;-2.8890380859375
1445509812386;293.0014953613281;-94.88040924072266;0.261434942483902;-0.718841552734375;-8.670059204101562;-1.4180450439453125
1445509812419;293.322998046875;-95.14260864257812;-0.3006885349750519;-0.718841552734375;-8.670059204101562;-1.4180450439453125
1445509812452;294.2229309082031;-96.66494750976562;-1.328549861907959;-0.718841552734375;-8.670059204101562;-1.4180450439453125
1445509812486;293.6387939453125;-100.57151794433594;-2.7925047874450684;-0.718841552734375;-8.670059204101562;-1.4180450439453125
1445509812519;293.36309814453125;-104.19327545166016;-3.7226264476776123;-0.091217041015625;-11.749343872070312;-6.5175018310546875
1445509812551;291.3701477050781;-112.68172454833984;-6.429156303405762;-0.091217041015625;-11.749343872070312;-6.5175018310546875
1445509812587;287.7982177734375;-120.25487518310547;-7.739889144897461;-0.091217041015625;-11.749343872070312;-6.5175018310546875
1445509812618;287.2889404296875;-123.11153411865234;-7.594105243682861;4.7336578369140625;-11.965087890625;-0.2608642578125
1445509812650;287.3787841796875;-126.57581329345703;-7.871325969696045;4.7336578369140625;-11.965087890625;-0.2608642578125
1445509812682;288.6043395996094;-127.31204986572266;-5.775035381317139;4.7336578369140625;-11.965087890625;-0.2608642578125
1445509812716;289.1988220214844;-126.10639190673828;-4.230646133422852;0.6148681640625;-4.982757568359375;0.0921783447265625
1445509812749;288.73724365234375;-121.04183959960938;-2.3598077297210693;0.6148681640625;-4.982757568359375;0.0921783447265625
1445509812781;288.10723876953125;-114.21442413330078;-2.60250186920166;0.6148681640625;-4.982757568359375;0.0921783447265625
1445509812815;287.66241455078125;-111.2255630493164;-3.011556625366211;1.53668212890625;-8.611221313476562;-3.45782470703125
1445509812847;285.6554870605469;-106.74369049072266;-3.0665383338928223;1.53668212890625;-8.611221313476562;-3.45782470703125
1445509812881;285.37939453125;-105.11582946777344;-2.602729082107544;1.53668212890625;-8.611221313476562;-3.45782470703125
1445509812914;283.33428955078125;-101.71717071533203;-1.450154423713684;0.536407470703125;-10.396026611328125;-4.1246795654296875
1445509812946;282.5025329589844;-98.47493743896484;0.13946065306663513;0.536407470703125;-10.396026611328125;-4.1246795654296875
1445509812981;283.88079833984375;-97.04224395751953;1.0157347917556763;0.536407470703125;-10.396026611328125;-4.1246795654296875
1445509813013;286.7414855957031;-94.36371612548828;2.6076948642730713;2.3408355712890625;-15.299346923828125;-0.6727447509765625
1445509813045;286.431396484375;-92.57415771484375;3.1410388946533203;2.3408355712890625;-15.299346923828125;-0.6727447509765625
1445509813079;285.7686767578125;-91.71968841552734;2.8996403217315674;2.3408355712890625;-15.299346923828125;-0.6727447509765625
1445509813111;287.00103759765625;-91.38044738769531;2.9497897624969482;-4.9553070068359375;-15.201278686523438;-0.82965087890625
1445509813145;288.5927734375;-93.58216094970703;4.475494384765625;-4.9553070068359375;-15.201278686523438;-0.82965087890625
1445509813177;290.4332275390625;-93.72208404541016;5.493546962738037;-4.9553070068359375;-15.201278686523438;-0.82965087890625
1445509813211;293.6706848144531;-91.1044692993164;7.279824256896973;3.92950439453125;-10.866744995117188;-3.5558929443359375
1445509813249;291.3427734375;-87.16547393798828;6.405149936676025;3.92950439453125;-10.866744995117188;-3.5558929443359375
1445509813276;292.60418701171875;-86.57516479492188;5.663501262664795;3.92950439453125;-10.866744995117188;-3.5558929443359375
1445509813309;291.33319091796875;-86.39717102050781;4.395613670349121;-3.562774658203125;-7.7678375244140625;-3.712799072265625
1445509813344;289.79888916015625;-86.64726257324219;4.224043846130371;-3.562774658203125;-7.7678375244140625;-3.712799072265625
1445509813375;288.7032165527344;-88.36924743652344;3.968344211578369;-3.562774658203125;-7.7678375244140625;-3.712799072265625
1445509813408;287.9323425292969;-90.88970184326172;2.367231607437134;0.2029876708984375;-7.826690673828125;-0.868865966796875
1445509813441;287.1590881347656;-92.18926239013672;1.3703110218048096;0.2029876708984375;-7.826690673828125;-0.868865966796875
1445509813475;287.75787353515625;-95.33375549316406;0.1614573448896408;0.2029876708984375;-7.826690673828125;-0.868865966796875
1445509813507;288.5296936035156;-97.45203399658203;-0.10103221237659454;0.2029876708984375;-7.826690673828125;-0.868865966796875
1445509813541;287.46728515625;-104.54754638671875;-2.174776077270508;1.41900634765625;-14.514816284179688;-6.439056396484375
1445509813573;285.9515686035156;-114.84185791015625;-5.723910331726074;1.41900634765625;-14.514816284179688;-6.439056396484375
1445509813608;283.8970947265625;-124.0882797241211;-7.50904655456543;1.41900634765625;-14.514816284179688;-6.439056396484375
1445509813641;283.5001525878906;-128.20193481445312;-7.674978733062744;3.380340576171875;-13.0438232421875;-1.202301025390625
1445509813673;284.34820556640625;-134.59352111816406;-7.845458030700684;3.380340576171875;-13.0438232421875;-1.202301025390625
1445509813705;285.1326904296875;-136.30638122558594;-7.26368522644043;3.380340576171875;-13.0438232421875;-1.202301025390625
1445509813741;284.96893310546875;-136.5582275390625;-5.967625141143799;3.380340576171875;-13.0438232421875;-1.202301025390625
1445509813771;283.2332458496094;-132.9852752685547;-4.496479511260986;1.3797760009765625;-3.904022216796875;-0.9669342041015625
1445509813806;282.48388671875;-129.85537719726562;-4.126986980438232;1.3797760009765625;-3.904022216796875;-0.9669342041015625
1445509813838;283.41241455078125;-123.15010833740234;-3.0077693462371826;1.3797760009765625;-3.904022216796875;-0.9669342041015625
1445509813871;288.0169982910156;-117.23432159423828;-1.9345473051071167;0.987518310546875;-6.747955322265625;-2.9871063232421875
1445509813904;289.6265563964844;-114.71076202392578;-1.8816215991973877;0.987518310546875;-6.747955322265625;-2.9871063232421875
1445509813937;288.8844909667969;-110.15120697021484;-1.5921154022216797;0.987518310546875;-6.747955322265625;-2.9871063232421875
1445509813970;287.3293151855469;-106.60183715820312;-0.6521964073181152;-0.3069610595703125;-9.611495971679688;-5.1445770263671875
1445509814003;287.1101989746094;-104.95697021484375;0.14391224086284637;-0.3069610595703125;-9.611495971679688;-5.1445770263671875
1445509814036;287.991943359375;-101.09046936035156;2.152155637741089;-0.3069610595703125;-9.611495971679688;-5.1445770263671875
1445509814069;287.9368591308594;-99.0764389038086;2.6381278038024902;3.1645965576171875;-12.965362548828125;-3.536285400390625
1445509814101;287.54132080078125;-96.51761627197266;2.4326469898223877;3.1645965576171875;-12.965362548828125;-3.536285400390625
1445509814135;289.829345703125;-94.53339385986328;2.7123537063598633;3.1645965576171875;-12.965362548828125;-3.536285400390625
1445509814168;292.0487060546875;-94.1402359008789;2.511892795562744;-1.6014404296875;-21.654052734375;-5.9487152099609375
1445509814201;293.8514709472656;-95.3332290649414;2.8859829902648926;-1.6014404296875;-21.654052734375;-5.9487152099609375
1445509814234;296.559326171875;-95.75409698486328;4.146888732910156;-1.6014404296875;-21.654052734375;-5.9487152099609375
1445509814267;297.9027404785156;-94.66773986816406;4.760795593261719;-0.1696624755859375;-10.474472045898438;-1.5357208251953125
1445509814301;295.58221435546875;-90.7218017578125;4.825786590576172;-0.1696624755859375;-10.474472045898438;-1.5357208251953125
1445509814333;295.6560974121094;-88.34925079345703;3.9105782508850098;-0.1696624755859375;-10.474472045898438;-1.5357208251953125
1445509814365;295.16009521484375;-87.84288024902344;3.444662570953369;-2.5624847412109375;-8.748504638671875;-4.3208160400390625
1445509814398;293.7837829589844;-87.24407958984375;3.382674217224121;-2.5624847412109375;-8.748504638671875;-4.3208160400390625
1445509814431;292.7838439941406;-87.47032928466797;3.7146060466766357;-2.5624847412109375;-8.748504638671875;-4.3208160400390625
1445509814464;291.22161865234375;-89.34459686279297;3.430368423461914;-0.4638671875;-6.179168701171875;-0.0843353271484375
1445509814497;289.4490661621094;-91.4999771118164;2.0507514476776123;-0.4638671875;-6.179168701171875;-0.0843353271484375
1445509814531;289.34588623046875;-92.77472686767578;1.399631381034851;-0.4638671875;-6.179168701171875;-0.0843353271484375
1445509814564;290.47381591796875;-95.4015884399414;0.5183672308921814;-0.4638671875;-6.179168701171875;-0.0843353271484375
1445509814596;291.4056701660156;-99.70297241210938;-0.19059164822101593;-0.7580718994140625;-9.650726318359375;-5.6937408447265625
1445509814629;291.6240234375;-103.79462432861328;-0.7803151607513428;-0.7580718994140625;-9.650726318359375;-5.6937408447265625
1445509814663;290.3442077636719;-113.02972412109375;-2.8050377368927;-0.7580718994140625;-9.650726318359375;-5.6937408447265625
1445509814696;288.20538330078125;-121.12982940673828;-2.878171443939209;-2.11138916015625;-20.3399658203125;-1.378814697265625
1445509814729;287.5796203613281;-124.60176086425781;-2.5605595111846924;-2.11138916015625;-20.3399658203125;-1.378814697265625
1445509814762;287.0314025878906;-129.69747924804688;-2.219059944152832;-2.11138916015625;-20.3399658203125;-1.378814697265625
1445509814797;286.4862976074219;-130.86456298828125;-1.5506422519683838;1.0071258544921875;-6.806793212890625;-0.751190185546875
1445509814828;285.66522216796875;-130.57943725585938;-1.35416841506958;1.0071258544921875;-6.806793212890625;-0.751190185546875
1445509814860;285.3219909667969;-127.83684539794922;-0.32122889161109924;1.0071258544921875;-6.806793212890625;-0.751190185546875
1445509814894;286.30438232421875;-125.27290344238281;0.5939297676086426;1.3993988037109375;-2.648773193359375;-0.2020263671875
1445509814927;288.90380859375;-118.66365814208984;1.5558300018310547;1.3993988037109375;-2.648773193359375;-0.2020263671875
1445509814960;290.991943359375;-111.72540283203125;0.825752317905426;1.3993988037109375;-2.648773193359375;-0.2020263671875
1445509814997;289.52337646484375;-106.98839569091797;-0.29572463035583496;-2.28790283203125;-13.024200439453125;-6.1448516845703125
1445509815026;286.63092041015625;-105.7500228881836;-0.3548271954059601;-2.28790283203125;-13.024200439453125;-6.1448516845703125
1445509815059;284.6050720214844;-101.12255096435547;0.8241403102874756;-2.28790283203125;-13.024200439453125;-6.1448516845703125
1445509815092;285.7835693359375;-99.13599395751953;1.8892310857772827;-2.28790283203125;-13.024200439453125;-6.1448516845703125
1445509815125;287.0196533203125;-96.8351821899414;3.253669500350952;3.8510589599609375;-12.573104858398438;-5.2818603515625
1445509815158;285.55718994140625;-96.11285400390625;2.5091395378112793;3.8510589599609375;-12.573104858398438;-5.2818603515625
1445509815191;286.471435546875;-96.36161804199219;1.229565978050232;3.8510589599609375;-12.573104858398438;-5.2818603515625
1445509815224;288.429931640625;-96.77030181884766;1.0617197751998901;-4.44537353515625;-16.417312622070312;-2.634063720703125
1445509815256;288.7489318847656;-98.48675537109375;1.1371219158172607;-4.44537353515625;-16.417312622070312;-2.634063720703125
1445509815289;288.42657470703125;-101.57911682128906;2.2040839195251465;-4.44537353515625;-16.417312622070312;-2.634063720703125
1445509815323;288.386962890625;-97.96200561523438;4.040173530578613;1.4582366943359375;-11.415924072265625;-1.888763427734375
1445509815355;287.2448425292969;-95.23855590820312;4.397867202758789;1.4582366943359375;-11.415924072265625;-1.888763427734375
1445509815390;286.8371887207031;-91.29600524902344;3.8337557315826416;1.4582366943359375;-11.415924072265625;-1.888763427734375
1445509815422;287.9282531738281;-90.3956527709961;3.4840798377990723;-0.6207733154296875;-8.82696533203125;-1.7318572998046875
1445509815455;287.5458068847656;-88.40640258789062;2.3774566650390625;-0.6207733154296875;-8.82696533203125;-1.7318572998046875
1445509815488;283.908935546875;-87.177734375;1.9290971755981445;-0.6207733154296875;-8.82696533203125;-1.7318572998046875
1445509815521;282.0577087402344;-87.24060821533203;1.9821969270706177;-0.6207733154296875;-8.82696533203125;-1.7318572998046875
1445509815555;282.08807373046875;-88.78433227539062;1.9621418714523315;-0.0519866943359375;-7.5324859619140625;1.3670501708984375
1445509815587;282.4539794921875;-90.07717895507812;1.4772347211837769;-0.0519866943359375;-7.5324859619140625;1.3670501708984375
1445509815620;281.765625;-90.88996124267578;0.9900254607200623;-0.0519866943359375;-7.5324859619140625;1.3670501708984375
1445509815653;281.00152587890625;-92.74333190917969;0.06266187876462936;-0.34619140625;-8.5523681640625;-1.0453948974609375
1445509815686;281.9734191894531;-94.9362564086914;-0.7568615674972534;-0.34619140625;-8.5523681640625;-1.0453948974609375
1445509815718;282.8991394042969;-96.46678161621094;-1.0522087812423706;-0.34619140625;-8.5523681640625;-1.0453948974609375
1445509815753;283.68719482421875;-101.40921020507812;-2.2526559829711914;0.34027099609375;-12.200454711914062;-5.8114166259765625
1445509815786;281.41302490234375;-109.4974594116211;-4.730231761932373;0.34027099609375;-12.200454711914062;-5.8114166259765625
1445509815818;280.04400634765625;-113.80244445800781;-5.857083797454834;0.34027099609375;-12.200454711914062;-5.8114166259765625
1445509815851;279.6070861816406;-120.95040130615234;-5.176687240600586;1.5759124755859375;-14.612884521484375;-1.143463134765625
1445509815885;277.4066467285156;-125.72233581542969;-4.813229560852051;1.5759124755859375;-14.612884521484375;-1.143463134765625
1445509815917;276.5314025878906;-127.48131561279297;-4.596706867218018;1.5759124755859375;-14.612884521484375;-1.143463134765625
1445509815950;274.3763427734375;-128.11322021484375;-4.586221218109131;1.046356201171875;-5.47308349609375;0.4648284912109375
1445509815984;272.0087890625;-125.76087951660156;-4.507599353790283;1.046356201171875;-5.47308349609375;0.4648284912109375
1445509816015;271.3233337402344;-123.66120910644531;-4.243474006652832;1.046356201171875;-5.47308349609375;0.4648284912109375
1445509816049;271.0960693359375;-118.4846420288086;-3.552849292755127;3.262664794921875;-5.8065185546875;-2.20257568359375
1445509816081;271.52325439453125;-115.76704406738281;-3.333949565887451;3.262664794921875;-5.8065185546875;-2.20257568359375
1445509816115;274.17462158203125;-111.81038665771484;-1.9822431802749634;3.262664794921875;-5.8065185546875;-2.20257568359375
1445509816147;276.2778625488281;-109.14757537841797;-0.2729148864746094;3.262664794921875;-5.8065185546875;-2.20257568359375
1445509816181;276.3704528808594;-108.13518524169922;0.159138485789299;-0.5619354248046875;-8.571990966796875;-1.6533966064453125
1445509816214;276.46759033203125;-105.99612426757812;1.2210536003112793;-0.5619354248046875;-8.571990966796875;-1.6533966064453125
1445509816247;278.9060974121094;-103.73851776123047;2.7758328914642334;-0.5619354248046875;-8.571990966796875;-1.6533966064453125
1445509816280;280.73529052734375;-102.76844024658203;3.6714813709259033;2.0858612060546875;-10.435256958007812;-3.2420806884765625
1445509816313;284.3736267089844;-100.01018524169922;5.215958118438721;2.0858612060546875;-10.435256958007812;-3.2420806884765625
1445509816347;288.4222717285156;-97.1190414428711;6.1017937660217285;2.0858612060546875;-10.435256958007812;-3.2420806884765625
1445509816378;289.6152648925781;-95.81584930419922;6.194759368896484;1.36016845703125;-15.848526000976562;-2.8890380859375
1445509816412;290.374755859375;-93.12049102783203;6.780517101287842;1.36016845703125;-15.848526000976562;-2.8890380859375
1445509816444;292.9921569824219;-91.96952819824219;7.775206565856934;1.36016845703125;-15.848526000976562;-2.8890380859375
1445509816478;299.2498779296875;-90.6914291381836;10.049261093139648;-1.464141845703125;-14.024490356445312;0.9159393310546875
1445509816510;301.3523864746094;-89.21405792236328;11.28890609741211;-1.464141845703125;-14.024490356445312;0.9159393310546875
1445509816544;303.95855712890625;-88.62068939208984;11.859248161315918;-1.464141845703125;-14.024490356445312;0.9159393310546875
1445509816578;315.624267578125;-84.05876922607422;13.003936767578125;4.9886322021484375;-10.042984008789062;3.975616455078125
1445509816609;323.89324951171875;-80.08260345458984;12.75889778137207;4.9886322021484375;-10.042984008789062;3.975616455078125
1445509816643;327.5609436035156;-78.93415832519531;12.239426612854004;4.9886322021484375;-10.042984008789062;3.975616455078125
1445509816675;332.3006896972656;-77.94762420654297;11.74461555480957;-6.77935791015625;-9.317291259765625;5.230865478515625
1445509816709;340.1614074707031;-75.82638549804688;11.263265609741211;-6.77935791015625;-9.317291259765625;5.230865478515625
1445509816742;344.2341613769531;-74.82254028320312;10.839078903198242;-6.77935791015625;-9.317291259765625;5.230865478515625
1445509816774;350.4504089355469;-73.87921142578125;9.682068824768066;-6.77935791015625;-9.317291259765625;5.230865478515625
1445509816807;353.19970703125;-73.53768157958984;9.048093795776367;-1.228790283203125;-9.45458984375;1.50433349609375
1445509816840;358.3889465332031;-73.15065002441406;7.856349468231201;-1.228790283203125;-9.45458984375;1.50433349609375
1445509816874;4.853118896484375;-73.07433319091797;6.349457263946533;-1.228790283203125;-9.45458984375;1.50433349609375
1445509816907;8.293792724609375;-73.31404876708984;5.805419921875;-2.68017578125;-9.06231689453125;-0.9277191162109375
1445509816940;15.01544189453125;-74.40283203125;5.030688762664795;-2.68017578125;-9.06231689453125;-0.9277191162109375
1445509816973;21.62664794921875;-77.81214141845703;4.708119869232178;-2.68017578125;-9.06231689453125;-0.9277191162109375
1445509817005;25.271148681640625;-81.06397247314453;4.39736795425415;3.439178466796875;-15.220901489257812;-4.47772216796875
1445509817039;31.323944091796875;-89.89382934570312;1.672642707824707;3.439178466796875;-15.220901489257812;-4.47772216796875
1445509817071;34.681671142578125;-94.2981948852539;-0.11495557427406311;3.439178466796875;-15.220901489257812;-4.47772216796875
1445509817104;39.516143798828125;-101.03067779541016;-1.735425353050232;-0.1304473876953125;-14.161773681640625;1.1709136962890625
1445509817137;37.00946044921875;-106.64259338378906;-3.5467591285705566;-0.1304473876953125;-14.161773681640625;1.1709136962890625
1445509817171;36.419647216796875;-109.7739486694336;-4.956560134887695;-0.1304473876953125;-14.161773681640625;1.1709136962890625
1445509817203;37.141510009765625;-116.80475616455078;-9.574994087219238;1.615142822265625;-7.297119140625;-2.516387939453125
1445509817237;35.76934814453125;-121.06193542480469;-14.372442245483398;1.615142822265625;-7.297119140625;-2.516387939453125
1445509817270;35.050994873046875;-123.15913391113281;-16.420269012451172;1.615142822265625;-7.297119140625;-2.516387939453125
1445509817303;35.52813720703125;-127.56391143798828;-19.668996810913086;1.850494384765625;-6.3949127197265625;-3.712799072265625
1445509817336;37.43218994140625;-130.72787475585938;-21.78351593017578;1.850494384765625;-6.3949127197265625;-3.712799072265625
1445509817369;38.60650634765625;-131.88401794433594;-22.59832763671875;1.850494384765625;-6.3949127197265625;-3.712799072265625
1445509817401;41.28289794921875;-133.66172790527344;-24.061878204345703;2.4781341552734375;-2.1584320068359375;-3.1047821044921875
1445509817435;44.465576171875;-134.9700164794922;-24.70879554748535;2.4781341552734375;-2.1584320068359375;-3.1047821044921875
1445509817468;45.80242919921875;-135.08619689941406;-24.786590576171875;2.4781341552734375;-2.1584320068359375;-3.1047821044921875
1445509817503;47.299285888671875;-133.71580505371094;-25.00515365600586;2.4781341552734375;-2.1584320068359375;-3.1047821044921875
1445509817534;48.085540771484375;-132.28421020507812;-25.019262313842773;8.499404907226562;-9.258453369140625;-8.439605712890625
1445509817567;49.702667236328125;-129.529052734375;-24.772756576538086;8.499404907226562;-9.258453369140625;-8.439605712890625
1445509817601;51.53271484375;-126.43714904785156;-22.455120086669922;8.499404907226562;-9.258453369140625;-8.439605712890625
1445509817633;53.379119873046875;-124.54740905761719;-20.305482864379883;3.321502685546875;-8.964248657226562;-3.1832427978515625
1445509817667;58.756103515625;-120.81028747558594;-16.007896423339844;3.321502685546875;-8.964248657226562;-3.1832427978515625
1445509817699;66.32723999023438;-117.40773010253906;-11.841568946838379;3.321502685546875;-8.964248657226562;-3.1832427978515625
1445509817731;70.9053955078125;-115.42692565917969;-9.551087379455566;-0.267730712890625;-10.042984008789062;0.1510162353515625
1445509817764;80.52804565429688;-109.71947479248047;-5.179178714752197;-0.267730712890625;-10.042984008789062;0.1510162353515625
1445509817798;88.58831787109375;-103.06315612792969;-3.165435791015625;-0.267730712890625;-10.042984008789062;0.1510162353515625
1445509817831;90.77294921875;-100.38943481445312;-3.053650140762329;-2.5821075439453125;-11.51397705078125;-1.3592071533203125
1445509817864;93.33255004882812;-96.76592254638672;-3.026754140853882;-2.5821075439453125;-11.51397705078125;-1.3592071533203125
1445509817897;94.98394775390625;-95.42357635498047;-2.8701086044311523;-2.5821075439453125;-11.51397705078125;-1.3592071533203125
1445509817930;102.16412353515625;-91.98058319091797;-1.3701878786087036;-0.85614013671875;-10.356796264648438;-2.398712158203125
1445509817962;109.16384887695312;-88.9703140258789;-0.7658389210700989;-0.85614013671875;-10.356796264648438;-2.398712158203125
1445509817996;110.89198303222656;-87.9129409790039;-0.939913809299469;-0.85614013671875;-10.356796264648438;-2.398712158203125
1445509818029;114.3201904296875;-86.38809967041016;-1.3344972133636475;-1.522979736328125;-7.68939208984375;-0.4766082763671875
1445509818062;116.71701049804688;-85.3103256225586;-2.1595613956451416;-1.522979736328125;-7.68939208984375;-0.4766082763671875
1445509818095;117.66806030273438;-84.62053680419922;-2.6467244625091553;-1.522979736328125;-7.68939208984375;-0.4766082763671875
1445509818128;119.26148986816406;-82.04924011230469;-3.9536051750183105;-1.287628173828125;-12.063156127929688;-0.300079345703125
1445509818160;119.75494384765625;-78.68714904785156;-5.057740211486816;-1.287628173828125;-12.063156127929688;-0.300079345703125
1445509818194;120.19712829589844;-77.33087921142578;-5.498873710632324;-1.287628173828125;-12.063156127929688;-0.300079345703125
1445509818227;121.00300598144531;-76.41339874267578;-6.031144142150879;-0.0716094970703125;-13.49493408203125;-2.4967803955078125
1445509818261;118.92228698730469;-79.294189453125;-5.732612133026123;-0.0716094970703125;-13.49493408203125;-2.4967803955078125
1445509818293;117.23210144042969;-81.8988265991211;-5.478437423706055;-0.0716094970703125;-13.49493408203125;-2.4967803955078125
1445509818325;111.9102783203125;-88.65177917480469;-5.468376636505127;-0.0716094970703125;-13.49493408203125;-2.4967803955078125
1445509818359;111.44374084472656;-92.48201751708984;-5.567262172698975;-1.8760223388671875;-15.417037963867188;0.7786407470703125
1445509818392;114.4493408203125;-99.51814270019531;-3.8305420875549316;-1.8760223388671875;-15.417037963867188;0.7786407470703125
1445509818424;112.40145874023438;-104.63287353515625;-2.679955005645752;-1.8760223388671875;-15.417037963867188;0.7786407470703125
1445509818458;108.32803344726562;-107.49951171875;-2.8025214672088623;-1.8760223388671875;-15.417037963867188;0.7786407470703125
1445509818491;100.08258056640625;-115.52684020996094;-4.267339706420898;-3.2097320556640625;-10.807907104492188;0.955169677734375
1445509818523;92.3836669921875;-123.4502944946289;-7.642245769500732;-3.2097320556640625;-10.807907104492188;0.955169677734375
1445509818557;88.96728515625;-126.72872924804688;-10.004542350769043;-3.2097320556640625;-10.807907104492188;0.955169677734375
1445509818590;84.4393310546875;-132.1288604736328;-13.693557739257812;1.3405609130859375;-2.825286865234375;1.1709136962890625
1445509818623;81.0748291015625;-134.51116943359375;-15.97994327545166;1.3405609130859375;-2.825286865234375;1.1709136962890625
1445509818656;80.18936157226562;-134.824462890625;-16.009714126586914;1.3405609130859375;-2.825286865234375;1.1709136962890625
1445509818689;79.74627685546875;-132.6097869873047;-14.406950950622559;3.63531494140625;-1.275848388671875;-4.399261474609375
1445509818722;79.780517578125;-129.7216033935547;-13.163825035095215;3.63531494140625;-1.275848388671875;-4.399261474609375
1445509818754;83.4473876953125;-123.9535140991211;-8.38944149017334;3.63531494140625;-1.275848388671875;-4.399261474609375
1445509818788;89.476806640625;-117.1177749633789;-4.129351615905762;1.556304931640625;-11.90625;-1.6337890625
1445509818820;91.96725463867188;-114.18090057373047;-3.0480573177337646;1.556304931640625;-11.90625;-1.6337890625
1445509818854;98.759033203125;-108.2983627319336;-2.327545404434204;1.556304931640625;-11.90625;-1.6337890625
1445509818888;105.06207275390625;-101.90056610107422;-2.0866246223449707;-0.150054931640625;-13.78912353515625;-0.88848876953125
1445509818920;107.93185424804688;-99.07733154296875;-1.9608862400054932;-0.150054931640625;-13.78912353515625;-0.88848876953125
1445509818952;110.36941528320312;-95.18739318847656;-1.5295157432556152;-0.150054931640625;-13.78912353515625;-0.88848876953125
1445509818986;114.34625244140625;-92.52278900146484;-0.9122787117958069;-4.0138702392578125;-9.572265625;-1.261138916015625
1445509819019;117.8514404296875;-90.98712921142578;-0.30928269028663635;-4.0138702392578125;-9.572265625;-1.261138916015625
1445509819052;123.6229248046875;-88.25078582763672;0.36544835567474365;-4.0138702392578125;-9.572265625;-1.261138916015625
1445509819086;125.30325317382812;-87.16168975830078;0.1932212859392166;-1.4445343017578125;-7.9639739990234375;-0.94732666015625
1445509819117;127.12507629394531;-85.6694564819336;-0.3123580515384674;-1.4445343017578125;-7.9639739990234375;-0.94732666015625
1445509819151;128.25474548339844;-83.91704559326172;-1.2904789447784424;-1.4445343017578125;-7.9639739990234375;-0.94732666015625
1445509819183;128.3274383544922;-82.74945068359375;-1.9562642574310303;-1.4445343017578125;-7.9639739990234375;-0.94732666015625
1445509819218;127.97802734375;-80.37928771972656;-3.3521149158477783;-0.6796112060546875;-12.906524658203125;-1.810302734375
1445509819249;127.9835205078125;-78.77210235595703;-4.353192329406738;-0.6796112060546875;-12.906524658203125;-1.810302734375
1445509819284;127.56111145019531;-78.5405502319336;-4.518624782562256;-0.6796112060546875;-12.906524658203125;-1.810302734375
1445509819321;124.57235717773438;-81.16300964355469;-4.565745830535889;0.8502197265625;-13.338027954101562;-4.791534423828125
1445509819349;120.31146240234375;-87.02491760253906;-4.871154308319092;0.8502197265625;-13.338027954101562;-4.791534423828125
1445509819382;118.79472351074219;-91.15151977539062;-5.173696994781494;0.8502197265625;-13.338027954101562;-4.791534423828125
1445509819414;119.08268737792969;-100.27364349365234;-4.708069801330566;-0.640380859375;-15.260116577148438;1.38665771484375
1445509819448;119.7650146484375;-103.79965209960938;-3.753277540206909;-0.640380859375;-15.260116577148438;1.38665771484375
1445509819481;118.14364624023438;-109.0816421508789;-2.0424952507019043;-0.640380859375;-15.260116577148438;1.38665771484375
1445509819513;109.09620666503906;-115.48278045654297;-2.611443519592285;-2.542877197265625;-10.905975341796875;0.4844512939453125
1445509819546;104.55290222167969;-119.64259338378906;-3.732243299484253;-2.542877197265625;-10.905975341796875;0.4844512939453125
1445509819579;95.909912109375;-127.68495178222656;-8.344775199890137;-2.542877197265625;-10.905975341796875;0.4844512939453125
1445509819613;90.2374267578125;-134.10833740234375;-13.479414939880371;2.0074005126953125;-4.10015869140625;0.7982635498046875
1445509819647;88.60464477539062;-136.54995727539062;-15.400323867797852;2.0074005126953125;-4.10015869140625;0.7982635498046875
1445509819679;87.22784423828125;-139.31149291992188;-16.8096981048584;2.0074005126953125;-4.10015869140625;0.7982635498046875
1445509819712;86.10025024414062;-139.6623992919922;-16.80109405517578;2.870391845703125;-1.5504302978515625;-5.2818603515625
1445509819744;85.4300537109375;-138.74050903320312;-16.35740852355957;2.870391845703125;-1.5504302978515625;-5.2818603515625
1445509819777;84.25466918945312;-133.49964904785156;-14.485684394836426;2.870391845703125;-1.5504302978515625;-5.2818603515625
1445509819811;86.38864135742188;-127.34613800048828;-9.485321998596191;4.6551971435546875;-14.769790649414062;-4.9876708984375
1445509819844;88.50186157226562;-124.1255111694336;-6.892053127288818;4.6551971435546875;-14.769790649414062;-4.9876708984375
1445509819876;92.14657592773438;-118.65180206298828;-4.065587520599365;4.6551971435546875;-14.769790649414062;-4.9876708984375
1445509819910;95.465087890625;-115.9504165649414;-3.073951244354248;0.34027099609375;-11.533599853515625;0.19024658203125
1445509819943;103.697265625;-109.69515991210938;-1.698486566543579;0.34027099609375;-11.533599853515625;0.19024658203125
1445509819975;110.53408813476562;-103.1486587524414;-0.31902438402175903;0.34027099609375;-11.533599853515625;0.19024658203125
1445509820009;111.8104248046875;-100.44696044921875;0.1675567328929901;0.34027099609375;-11.533599853515625;0.19024658203125
1445509820042;112.45819091796875;-96.86199951171875;0.5761600732803345;-2.993988037109375;-9.944915771484375;-1.378814697265625
1445509820075;115.35240173339844;-93.73262786865234;1.2142338752746582;-2.993988037109375;-9.944915771484375;-1.378814697265625
1445509820107;118.2623291015625;-92.08470153808594;2.074504852294922;-2.993988037109375;-9.944915771484375;-1.378814697265625
1445509820140;122.11581420898438;-88.66549682617188;2.737061023712158;-0.0519866943359375;-8.473922729492188;-1.4180450439453125
1445509820174;123.804931640625;-86.22407531738281;2.5772383213043213;-0.0519866943359375;-8.473922729492188;-1.4180450439453125
1445509820207;124.84512329101562;-85.05802917480469;2.2622716426849365;-0.0519866943359375;-8.473922729492188;-1.4180450439453125
1445509820239;125.30267333984375;-82.60899353027344;1.4324673414230347;-2.34674072265625;-10.435256958007812;-0.1431732177734375
1445509820273;124.66192626953125;-79.2884521484375;0.6217199563980103;-2.34674072265625;-10.435256958007812;-0.1431732177734375
1445509820306;124.67050170898438;-77.54393768310547;0.1509268581867218;-2.34674072265625;-10.435256958007812;-0.1431732177734375
1445509820339;125.27536010742188;-75.06314086914062;-0.905988872051239;1.0659637451171875;-15.3189697265625;-3.16363525390625
1445509820373;124.63150024414062;-75.27073669433594;-0.9833240509033203;1.0659637451171875;-15.3189697265625;-3.16363525390625
1445509820405;121.17623901367188;-79.22917175292969;-0.6870139837265015;1.0659637451171875;-15.3189697265625;-3.16363525390625
1445509820438;116.58245849609375;-86.61235809326172;-0.7432359457015991;-1.5033721923828125;-16.025039672851562;-1.96722412109375
1445509820470;114.55718994140625;-91.04241180419922;-0.9288832545280457;-1.5033721923828125;-16.025039672851562;-1.96722412109375
1445509820504;116.10562133789062;-99.14892578125;0.17124848067760468;-1.5033721923828125;-16.025039672851562;-1.96722412109375
1445509820537;115.72476196289062;-104.82295227050781;1.4484976530075073;0.8502197265625;-10.847137451171875;1.9554443359375
1445509820569;112.53266906738281;-107.9538803100586;1.4023947715759277;0.8502197265625;-10.847137451171875;1.9554443359375
1445509820603;103.69107055664062;-117.00865936279297;-0.3361377418041229;0.8502197265625;-10.847137451171875;1.9554443359375
1445509820636;99.79397583007812;-122.05513763427734;-1.9011528491973877;0.8502197265625;-10.847137451171875;1.9554443359375
1445509820671;92.8021240234375;-130.2932586669922;-6.881645202636719;1.928955078125;-5.6888275146484375;1.1120758056640625
1445509820703;88.87332153320312;-135.73191833496094;-10.876221656799316;1.928955078125;-5.6888275146484375;1.1120758056640625
1445509820734;87.762451171875;-137.06468200683594;-11.877715110778809;1.928955078125;-5.6888275146484375;1.1120758056640625
1445509820769;86.5167236328125;-137.06040954589844;-12.058916091918945;3.2234344482421875;-1.1777801513671875;-4.71307373046875
1445509820801;85.36407470703125;-133.69862365722656;-10.687295913696289;3.2234344482421875;-1.1777801513671875;-4.71307373046875
1445509820834;85.24456787109375;-130.82481384277344;-9.159460067749023;3.2234344482421875;-1.1777801513671875;-4.71307373046875
1445509820871;87.71554565429688;-125.08698272705078;-4.601996421813965;3.2234344482421875;-1.1777801513671875;-4.71307373046875
1445509820899;89.49462890625;-122.25110626220703;-2.562995433807373;2.4781341552734375;-10.494094848632812;-2.398712158203125
1445509820932;92.75253295898438;-117.04646301269531;0.036285385489463806;2.4781341552734375;-10.494094848632812;-2.398712158203125
1445509820965;100.28994750976562;-110.52271270751953;1.2632554769515991;2.4781341552734375;-10.494094848632812;-2.398712158203125
1445509820999;108.52056884765625;-101.64793395996094;2.885061740875244;-0.9934234619140625;-15.142440795898438;-0.2804718017578125
1445509821031;109.97866821289062;-97.29375457763672;4.340290069580078;-0.9934234619140625;-15.142440795898438;-0.2804718017578125
1445509821064;110.64143371582031;-92.88749694824219;6.099609375;-0.9934234619140625;-15.142440795898438;-0.2804718017578125
1445509821098;110.38336181640625;-91.91413116455078;6.016640663146973;-4.0727081298828125;-10.8275146484375;-1.96722412109375
1445509821131;113.82810974121094;-89.14163970947266;6.768494129180908;-4.0727081298828125;-10.8275146484375;-1.96722412109375
1445509821165;117.99278259277344;-86.41046905517578;7.371519565582275;-4.0727081298828125;-10.8275146484375;-1.96722412109375
1445509821196;119.15675354003906;-85.38119506835938;7.204773426055908;1.2032623291015625;-7.885528564453125;-0.2216339111328125
1445509821229;119.30339050292969;-84.03130340576172;6.712646961212158;1.2032623291015625;-7.885528564453125;-0.2216339111328125
1445509821263;119.90670776367188;-82.58011627197266;5.967338562011719;1.2032623291015625;-7.885528564453125;-0.2216339111328125
1445509821295;119.74934387207031;-81.98841094970703;5.491539478302002;1.2032623291015625;-7.885528564453125;-0.2216339111328125
1445509821328;118.91360473632812;-80.53305053710938;4.518135070800781;-1.797576904296875;-11.043258666992188;-0.868865966796875
1445509821362;119.07733154296875;-78.98126983642578;3.4018616676330566;-1.797576904296875;-11.043258666992188;-0.868865966796875
1445509821395;119.27908325195312;-78.68428039550781;3.0765860080718994;-1.797576904296875;-11.043258666992188;-0.868865966796875
1445509821427;117.65544128417969;-80.68218994140625;3.5819034576416016;0.04608154296875;-14.907089233398438;-3.144012451171875
1445509821462;113.3922119140625;-86.13790893554688;4.368724822998047;0.04608154296875;-14.907089233398438;-3.144012451171875
1445509821494;110.86773681640625;-90.09387969970703;4.271384239196777;0.04608154296875;-14.907089233398438;-3.144012451171875
1445509821527;110.04937744140625;-98.71057891845703;4.592987537384033;-1.8367919921875;-16.083877563476562;0.327545166015625
1445509821559;110.51126098632812;-102.04090881347656;5.614752292633057;-1.8367919921875;-16.083877563476562;0.327545166015625
1445509821593;109.30630493164062;-106.72697448730469;6.799072742462158;-1.8367919921875;-16.083877563476562;0.327545166015625
1445509821626;100.76068115234375;-113.32829284667969;4.077327251434326;0.869842529296875;-10.807907104492188;0.0333404541015625
1445509821659;96.1748046875;-118.41549682617188;1.9233717918395996;0.869842529296875;-10.807907104492188;0.0333404541015625
1445509821693;89.95330810546875;-128.31353759765625;-1.922688603401184;0.869842529296875;-10.807907104492188;0.0333404541015625
1445509821725;84.45025634765625;-135.50941467285156;-6.430146217346191;0.5560302734375;-7.74822998046875;-0.574676513671875
1445509821758;82.51339721679688;-138.43106079101562;-8.738006591796875;0.5560302734375;-7.74822998046875;-0.574676513671875
1445509821791;81.58123779296875;-141.48544311523438;-11.09720230102539;0.5560302734375;-7.74822998046875;-0.574676513671875
1445509821824;81.86004638671875;-141.4343719482422;-11.24670696258545;2.5958099365234375;-0.8639678955078125;-2.26141357421875
1445509821858;82.68524169921875;-139.4258575439453;-10.018707275390625;2.5958099365234375;-0.8639678955078125;-2.26141357421875
1445509821889;83.4227294921875;-133.6032257080078;-7.630740165710449;2.5958099365234375;-0.8639678955078125;-2.26141357421875
1445509821923;84.98883056640625;-130.70950317382812;-5.399504661560059;2.6546478271484375;-13.416473388671875;-0.9277191162109375
1445509821955;90.9036865234375;-124.21978759765625;-0.46979767084121704;2.6546478271484375;-13.416473388671875;-0.9277191162109375
1445509821993;96.98919677734375;-117.66180419921875;2.6912214756011963;2.6546478271484375;-13.416473388671875;-0.9277191162109375
1445509822024;100.61553955078125;-114.34156036376953;3.507272481918335;-1.1307220458984375;-12.455429077148438;-1.692626953125
1445509822055;107.15562438964844;-107.65850830078125;4.867672443389893;-1.1307220458984375;-12.455429077148438;-1.692626953125
1445509822088;112.36553955078125;-101.51112365722656;5.695337772369385;-1.1307220458984375;-12.455429077148438;-1.692626953125
1445509822121;114.93389892578125;-98.95462799072266;5.697112083435059;-2.8959197998046875;-11.239395141601562;-2.065277099609375
1445509822153;116.31068420410156;-94.8729476928711;5.037827968597412;-2.8959197998046875;-11.239395141601562;-2.065277099609375
1445509822188;120.39042663574219;-91.40217590332031;5.898388385772705;-2.8959197998046875;-11.239395141601562;-2.065277099609375
1445509822225;123.36836242675781;-89.68502807617188;6.2848124504089355;1.36016845703125;-8.964248657226562;-1.8691558837890625
1445509822252;125.42398071289062;-86.6162109375;5.83155632019043;1.36016845703125;-8.964248657226562;-1.8691558837890625
1445509822288;126.21221923828125;-85.22969818115234;5.496984004974365;1.36016845703125;-8.964248657226562;-1.8691558837890625
1445509822318;127.50283813476562;-82.73220825195312;4.649099826812744;-1.8760223388671875;-10.08221435546875;-0.7119598388671875
1445509822355;126.70809936523438;-80.82644653320312;3.3496787548065186;-1.8760223388671875;-10.08221435546875;-0.7119598388671875
1445509822390;127.04173278808594;-78.54398345947266;1.4760749340057373;-1.8760223388671875;-10.08221435546875;-0.7119598388671875
1445509822418;127.54093933105469;-77.59980773925781;0.5393368601799011;-1.8760223388671875;-10.08221435546875;-0.7119598388671875
1445509822452;127.87939453125;-77.18104553222656;-0.2949100732803345;0.5167999267578125;-15.5543212890625;-2.14373779296875
1445509822484;127.05532836914062;-78.65508270263672;-0.13305050134658813;0.5167999267578125;-15.5543212890625;-2.14373779296875
1445509822519;123.52508544921875;-84.3467025756836;0.4053085148334503;0.5167999267578125;-15.5543212890625;-2.14373779296875
1445509822554;120.97007751464844;-92.86009216308594;0.06158440560102463;0.242218017578125;-15.515090942382812;-3.9285430908203125
1445509822583;121.90971374511719;-97.40657043457031;0.4030851721763611;0.242218017578125;-15.515090942382812;-3.9285430908203125
1445509822615;122.93087768554688;-104.77802276611328;1.9595825672149658;0.242218017578125;-15.515090942382812;-3.9285430908203125
1445509822650;117.97344970703125;-110.13868713378906;2.8556153774261475;-1.03265380859375;-10.670608520507812;1.3670501708984375
1445509822682;113.80026245117188;-114.0617904663086;2.503601551055908;-1.03265380859375;-10.670608520507812;1.3670501708984375
1445509822715;104.81109619140625;-123.21343231201172;-0.4080235958099365;-1.03265380859375;-10.670608520507812;1.3670501708984375
1445509822748;100.74807739257812;-127.56058502197266;-2.7300758361816406;2.125091552734375;-4.963134765625;0.7394256591796875
1445509822780;96.24978637695312;-135.22642517089844;-6.757623195648193;2.125091552734375;-4.963134765625;0.7394256591796875
1445509822814;93.65841674804688;-140.09449768066406;-9.595656394958496;2.125091552734375;-4.963134765625;0.7394256591796875
1445509822846;92.81634521484375;-141.3618621826172;-10.06084156036377;2.125091552734375;-4.963134765625;0.7394256591796875
1445509822880;92.35617065429688;-141.7908935546875;-8.852805137634277;1.5955352783203125;-0.373626708984375;-1.712249755859375
1445509822913;92.4373779296875;-141.147705078125;-7.849491119384766;1.5955352783203125;-0.373626708984375;-1.712249755859375
1445509822945;91.6876220703125;-136.96470642089844;-5.797912120819092;1.5955352783203125;-0.373626708984375;-1.712249755859375
1445509822978;90.65765380859375;-131.99644470214844;-2.651731014251709;2.2035369873046875;-13.436080932617188;-3.5558929443359375
1445509823013;90.76303100585938;-129.52252197265625;-1.2249068021774292;2.2035369873046875;-13.436080932617188;-3.5558929443359375
1445509823044;91.885986328125;-124.0428237915039;1.6805256605148315;2.2035369873046875;-13.436080932617188;-3.5558929443359375
1445509823077;96.5228271484375;-117.47808074951172;3.988341808319092;4.3610076904296875;-10.984420776367188;-0.3197021484375
1445509823111;101.00286865234375;-113.78125;4.795900344848633;4.3610076904296875;-10.984420776367188;-0.3197021484375
1445509823143;110.84954833984375;-104.82038879394531;6.720883846282959;4.3610076904296875;-10.984420776367188;-0.3197021484375
1445509823176;117.8115234375;-95.07386779785156;9.431093215942383;-3.4058685302734375;-11.651275634765625;-0.6138916015625
1445509823210;119.9964599609375;-91.2149658203125;9.998712539672852;-3.4058685302734375;-11.651275634765625;-0.6138916015625
1445509823242;119.68489074707031;-87.0841064453125;9.772284507751465;-3.4058685302734375;-11.651275634765625;-0.6138916015625
1445509823276;120.22918701171875;-84.04547119140625;9.532052040100098;-1.0718841552734375;-9.219223022460938;0.2686920166015625
1445509823308;122.02700805664062;-81.9532470703125;9.348546981811523;-1.0718841552734375;-9.219223022460938;0.2686920166015625
1445509823342;127.2054443359375;-78.88728332519531;8.318023681640625;-1.0718841552734375;-9.219223022460938;0.2686920166015625
1445509823374;129.14654541015625;-77.47976684570312;7.692049980163574;-1.6798858642578125;-8.022811889648438;1.0336151123046875
1445509823407;132.19874572753906;-74.73804473876953;6.539628028869629;-1.6798858642578125;-8.022811889648438;1.0336151123046875
1445509823441;132.99819946289062;-71.9229965209961;5.51098108291626;-1.6798858642578125;-8.022811889648438;1.0336151123046875
1445509823474;132.84405517578125;-70.75614929199219;4.924063205718994;-1.6798858642578125;-8.022811889648438;1.0336151123046875
1445509823508;132.79660034179688;-68.43983459472656;3.683197021484375;-1.405303955078125;-10.219512939453125;-0.4569854736328125
1445509823540;133.7144012451172;-66.60298156738281;2.8812148571014404;-1.405303955078125;-10.219512939453125;-0.4569854736328125
1445509823573;134.10574340820312;-66.09000396728516;2.7841601371765137;-1.405303955078125;-10.219512939453125;-0.4569854736328125
1445509823608;135.6313018798828;-66.88861846923828;2.599919319152832;-0.34619140625;-13.651840209960938;-3.3009185791015625
1445509823639;135.8326873779297;-71.23278045654297;4.153317451477051;-0.34619140625;-13.651840209960938;-3.3009185791015625
1445509823672;134.7393035888672;-74.82981872558594;5.301046371459961;-0.34619140625;-13.651840209960938;-3.3009185791015625
1445509823705;130.04156494140625;-84.57117462158203;7.093080043792725;-0.208892822265625;-15.730850219726562;2.0535125732421875
1445509823738;127.03952026367188;-93.93083190917969;7.797977924346924;-0.208892822265625;-15.730850219726562;2.0535125732421875
1445509823770;125.94691467285156;-97.9932632446289;7.936996936798096;-0.208892822265625;-15.730850219726562;2.0535125732421875
1445509823804;122.73905944824219;-104.79778289794922;8.798758506774902;-2.22906494140625;-15.750457763671875;-2.006439208984375
1445509823839;119.03616333007812;-109.11871337890625;9.342161178588867;-2.22906494140625;-15.750457763671875;-2.006439208984375
1445509823869;107.525390625;-120.3698959350586;6.8880486488342285;-2.22906494140625;-15.750457763671875;-2.006439208984375
1445509823902;97.48544311523438;-129.8594207763672;1.013664960861206;1.8308868408203125;-6.865631103515625;2.7988128662109375
1445509823936;94.323974609375;-133.48394775390625;-1.8327103853225708;1.8308868408203125;-6.865631103515625;2.7988128662109375
1445509823969;90.21356201171875;-138.40452575683594;-6.103797912597656;1.8308868408203125;-6.865631103515625;2.7988128662109375
1445509824002;88.15789794921875;-140.92742919921875;-6.928843021392822;3.1057586669921875;-4.1786041259765625;-3.477447509765625
1445509824035;86.77996826171875;-141.5750732421875;-7.100535869598389;3.1057586669921875;-4.1786041259765625;-3.477447509765625
1445509824069;83.91018676757812;-141.67942810058594;-7.393207550048828;3.1057586669921875;-4.1786041259765625;-3.477447509765625
1445509824101;81.52999877929688;-139.9461212158203;-7.4594573974609375;5.890838623046875;-7.80706787109375;-9.243743896484375
1445509824135;80.646484375;-138.5076141357422;-7.471889495849609;5.890838623046875;-7.80706787109375;-9.243743896484375
1445509824169;80.71017456054688;-135.48541259765625;-6.642093658447266;5.890838623046875;-7.80706787109375;-9.243743896484375
1445509824201;80.94854736328125;-133.62353515625;-5.277152061462402;0.5560302734375;-8.866195678710938;-1.143463134765625
1445509824233;83.88519287109375;-128.28631591796875;-0.1436680555343628;0.5560302734375;-8.866195678710938;-1.143463134765625
1445509824265;89.90045166015625;-121.85098266601562;4.55982780456543;0.5560302734375;-8.866195678710938;-1.143463134765625
1445509824298;93.541259765625;-118.40396118164062;6.221918106079102;0.5560302734375;-8.866195678710938;-1.143463134765625
1445509824331;99.88656616210938;-110.72047424316406;8.985294342041016;-1.4837646484375;-10.866744995117188;-1.3592071533203125
1445509824365;104.9320068359375;-103.57573699951172;10.530523300170898;-1.4837646484375;-10.866744995117188;-1.3592071533203125
1445509824397;107.14459228515625;-100.8097152709961;10.462024688720703;-1.4837646484375;-10.866744995117188;-1.3592071533203125
1445509824431;107.94569396972656;-97.03144073486328;9.291265487670898;-3.42547607421875;-10.376419067382812;-1.829925537109375
1445509824463;109.22222900390625;-95.01738739013672;9.263192176818848;-3.42547607421875;-10.376419067382812;-1.829925537109375
1445509824497;115.85601806640625;-89.91552734375;10.751343727111816;-3.42547607421875;-10.376419067382812;-1.829925537109375
1445509824531;118.49615478515625;-85.81329345703125;10.287959098815918;0.5167999267578125;-9.533035278320312;-0.5354461669921875
1445509824565;118.58425903320312;-84.27944946289062;9.668058395385742;0.5167999267578125;-9.533035278320312;-0.5354461669921875
1445509824596;119.75907897949219;-81.62940216064453;8.482343673706055;0.5167999267578125;-9.533035278320312;-0.5354461669921875
1445509824629;120.07833862304688;-79.78001403808594;7.1793012619018555;-1.6406707763671875;-12.141616821289062;-0.4569854736328125
1445509824662;120.10731506347656;-78.89691925048828;6.350569725036621;-1.6406707763671875;-12.141616821289062;-0.4569854736328125
1445509824695;120.24258422851562;-77.44070434570312;4.772827625274658;-1.6406707763671875;-12.141616821289062;-0.4569854736328125
1445509824727;120.5870361328125;-77.15383911132812;4.187627792358398;0.8109893798828125;-13.90679931640625;-2.5359954833984375
1445509824761;119.8004150390625;-78.6165771484375;3.6180002689361572;0.8109893798828125;-13.90679931640625;-2.5359954833984375
1445509824793;115.74751281738281;-83.35939025878906;3.830831289291382;0.8109893798828125;-13.90679931640625;-2.5359954833984375
1445509824828;112.93333435058594;-91.15515899658203;3.2781002521514893;-1.7191162109375;-16.986099243164062;-2.967498779296875
1445509824860;113.20626831054688;-95.5958480834961;3.3288509845733643;-1.7191162109375;-16.986099243164062;-2.967498779296875
1445509824892;115.69778442382812;-102.50150299072266;5.7174882888793945;-1.7191162109375;-16.986099243164062;-2.967498779296875
1445509824927;115.67286682128906;-104.9283676147461;6.971888065338135;-1.7191162109375;-16.986099243164062;-2.967498779296875
1445509824959;108.6505126953125;-110.66517639160156;6.99927282333374;-0.6796112060546875;-11.043258666992188;-0.4373779296875
1445509824992;99.18698120117188;-120.05348205566406;4.740049362182617;-0.6796112060546875;-11.043258666992188;-0.4373779296875
1445509825025;95.26031494140625;-124.75055694580078;2.9256389141082764;-0.6796112060546875;-11.043258666992188;-0.4373779296875
1445509825057;88.75552368164062;-133.0418243408203;-1.699097990989685;2.046630859375;-4.5120391845703125;-0.0843353271484375
1445509825090;84.61495971679688;-139.0091094970703;-5.706475257873535;2.046630859375;-4.5120391845703125;-0.0843353271484375
1445509825123;83.3477783203125;-140.91677856445312;-6.983458995819092;2.046630859375;-4.5120391845703125;-0.0843353271484375
1445509825158;82.21212768554688;-142.1416015625;-6.934469699859619;2.2231597900390625;-1.628875732421875;-3.6147308349609375
1445509825190;81.52294921875;-141.84629821777344;-6.400561809539795;2.2231597900390625;-1.628875732421875;-3.6147308349609375
1445509825222;80.35467529296875;-139.12046813964844;-4.5645928382873535;2.2231597900390625;-1.628875732421875;-3.6147308349609375
1445509825256;79.42791748046875;-132.956787109375;-2.2007687091827393;2.419281005859375;-16.57421875;-8.419998168945312
1445509825290;79.47802734375;-130.3488311767578;-0.270111083984375;2.419281005859375;-16.57421875;-8.419998168945312
1445509825321;80.48504638671875;-125.37357330322266;3.88913631439209;2.419281005859375;-16.57421875;-8.419998168945312
1445509825354;83.719482421875;-119.47454833984375;6.795976638793945;3.81182861328125;-9.160385131835938;-0.0843353271484375
1445509825388;87.48809814453125;-116.07630920410156;7.379998683929443;3.81182861328125;-9.160385131835938;-0.0843353271484375
1445509825421;95.1751708984375;-108.53182983398438;8.345067977905273;3.81182861328125;-9.160385131835938;-0.0843353271484375
1445509825454;99.8035888671875;-101.6561279296875;10.359185218811035;-1.3268585205078125;-10.160659790039062;-1.12384033203125
1445509825487;101.85232543945312;-98.65825653076172;10.918399810791016;-1.3268585205078125;-10.160659790039062;-1.12384033203125
1445509825519;104.12675476074219;-94.32859802246094;10.811144828796387;-1.3268585205078125;-10.160659790039062;-1.12384033203125
1445509825552;105.79037475585938;-91.3965072631836;10.78860092163086;-4.249237060546875;-9.925308227539062;-0.9669342041015625
1445509825586;109.15350341796875;-89.04132843017578;11.534488677978516;-4.249237060546875;-9.925308227539062;-0.9669342041015625
1445509825618;113.20260620117188;-84.90330505371094;11.713485717773438;-4.249237060546875;-9.925308227539062;-0.9669342041015625
1445509825651;113.69015502929688;-83.48069763183594;11.354364395141602;-1.0522613525390625;-9.317291259765625;-1.084625244140625
1445509825684;115.41769409179688;-81.13571166992188;10.388769149780273;-1.0522613525390625;-9.317291259765625;-1.084625244140625
1445509825718;115.50286865234375;-80.03604888916016;9.376744270324707;-1.0522613525390625;-9.317291259765625;-1.084625244140625
1445509825751;115.08642578125;-79.61402893066406;8.926658630371094;-2.11138916015625;-11.239395141601562;0.24908447265625
1445509825784;115.33561706542969;-78.0852279663086;7.518697738647461;-2.11138916015625;-11.239395141601562;0.24908447265625
1445509825820;115.16114807128906;-76.26931762695312;6.038630962371826;-2.11138916015625;-11.239395141601562;0.24908447265625
1445509825850;115.32861328125;-75.62809753417969;5.410491943359375;1.497467041015625;-14.887466430664062;-1.3592071533203125
1445509825882;114.47120666503906;-76.73245239257812;4.790644645690918;1.497467041015625;-14.887466430664062;-1.3592071533203125
1445509825916;110.78616333007812;-81.00442504882812;4.891668796539307;1.497467041015625;-14.887466430664062;-1.3592071533203125
1445509825950;108.81294250488281;-83.84806823730469;4.905221939086914;1.497467041015625;-14.887466430664062;-1.3592071533203125
1445509825982;106.99014282226562;-91.12682342529297;4.683079719543457;-0.5030975341796875;-15.652389526367188;-4.4384918212890625
1445509826014;109.8245849609375;-98.66547393798828;6.0190839767456055;-0.5030975341796875;-15.652389526367188;-4.4384918212890625
1445509826047;109.96160888671875;-101.31507110595703;6.988653659820557;-0.5030975341796875;-15.652389526367188;-4.4384918212890625
1445509826080;107.08059692382812;-106.05171966552734;8.525004386901855;-0.8757476806640625;-9.533035278320312;0.759033203125
1445509826115;104.05502319335938;-109.28645324707031;8.908080101013184;-0.8757476806640625;-9.533035278320312;0.759033203125
1445509826146;95.35800170898438;-117.8870620727539;6.733649253845215;-0.8757476806640625;-9.533035278320312;0.759033203125
1445509826179;87.5489501953125;-126.5787582397461;2.5425305366516113;1.75244140625;-8.670059204101562;-0.1039581298828125
1445509826212;84.83218383789062;-130.4986114501953;0.23744536936283112;1.75244140625;-8.670059204101562;-0.1039581298828125
1445509826246;81.15582275390625;-136.6885528564453;-3.970318078994751;1.75244140625;-8.670059204101562;-0.1039581298828125
1445509826278;79.6834716796875;-140.46490478515625;-6.070663928985596;2.242767333984375;-2.5703125;-0.3785400390625
1445509826312;79.72195434570312;-141.20773315429688;-5.9735212326049805;2.242767333984375;-2.5703125;-0.3785400390625
1445509826344;80.04949951171875;-140.53431701660156;-4.700404167175293;2.242767333984375;-2.5703125;-0.3785400390625
1445509826378;79.36328125;-135.92398071289062;-3.733677387237549;3.046905517578125;-5.728057861328125;-6.850921630859375
1445509826411;79.3685302734375;-132.98611450195312;-2.3366763591766357;3.046905517578125;-5.728057861328125;-6.850921630859375
1445509826444;80.87588500976562;-127.55192565917969;1.5102119445800781;3.046905517578125;-5.728057861328125;-6.850921630859375
1445509826477;81.837158203125;-124.76995849609375;3.547070026397705;1.556304931640625;-7.9051361083984375;-2.634063720703125
1445509826510;85.89425659179688;-118.61814880371094;6.838242053985596;1.556304931640625;-7.9051361083984375;-2.634063720703125
1445509826543;92.4210205078125;-111.52011108398438;10.008450508117676;1.556304931640625;-7.9051361083984375;-2.634063720703125
1445509826576;94.95880126953125;-107.95713806152344;11.75351333618164;0.5167999267578125;-11.90625;-0.2804718017578125
1445509826608;98.42626953125;-101.36215209960938;13.220038414001465;0.5167999267578125;-11.90625;-0.2804718017578125
1445509826641;93.79400634765625;-98.5382080078125;10.106969833374023;0.5167999267578125;-11.90625;-0.2804718017578125
1445509826676;88.68243408203125;-98.99036407470703;7.333939552307129;-9.074111938476562;-4.9435272216796875;-1.18267822265625
1445509826708;82.93536376953125;-94.32127380371094;4.202186584472656;-9.074111938476562;-4.9435272216796875;-1.18267822265625
1445509826741;92.92538452148438;-91.45801544189453;4.930137634277344;-9.074111938476562;-4.9435272216796875;-1.18267822265625
1445509826774;98.92263793945312;-92.33194732666016;6.1868815422058105;6.0477447509765625;-11.474761962890625;-0.2608642578125
1445509826807;105.31822204589844;-89.20195770263672;4.183924674987793;6.0477447509765625;-11.474761962890625;-0.2608642578125
1445509826840;103.67514038085938;-86.96360778808594;2.282268762588501;6.0477447509765625;-11.474761962890625;-0.2608642578125
1445509826873;96.0767822265625;-86.3811264038086;-0.006323047447949648;6.0477447509765625;-11.474761962890625;-0.2608642578125
1445509826906;92.1480712890625;-85.32146453857422;1.0815461874008179;1.673980712890625;-11.376693725585938;-2.7125244140625
1445509826938;87.65460205078125;-86.42351531982422;4.296194076538086;1.673980712890625;-11.376693725585938;-2.7125244140625
1445509826972;86.43316650390625;-85.45836639404297;5.9291815757751465;1.673980712890625;-11.376693725585938;-2.7125244140625
1445509827005;87.03909301757812;-86.36931610107422;5.494924545288086;0.28143310546875;-11.847412109375;-0.82965087890625
1445509827038;88.35702514648438;-86.4017105102539;5.705876350402832;0.28143310546875;-11.847412109375;-0.82965087890625
1445509827071;95.65545654296875;-83.89315032958984;6.590778350830078;0.28143310546875;-11.847412109375;-0.82965087890625
1445509827104;102.568359375;-79.44305419921875;4.037182807922363;-1.6602783203125;-12.945755004882812;-1.5553436279296875
1445509827137;102.69744873046875;-79.09244537353516;2.113956928253174;-1.6602783203125;-12.945755004882812;-1.5553436279296875
1445509827169;102.51837158203125;-79.61854553222656;0.2742382884025574;-1.6602783203125;-12.945755004882812;-1.5553436279296875
1445509827203;102.7833251953125;-80.18207550048828;0.8173708915710449;2.55657958984375;-13.573379516601562;-2.1241302490234375
1445509827235;104.62387084960938;-81.7590560913086;3.225135326385498;2.55657958984375;-13.573379516601562;-2.1241302490234375
1445509827269;106.15322875976562;-83.62991333007812;7.9777302742004395;2.55657958984375;-13.573379516601562;-2.1241302490234375
1445509827302;107.20686340332031;-85.1079330444336;11.07140827178955;-1.5426025390625;-15.181671142578125;3.583343505859375
1445509827335;111.42730712890625;-88.340576171875;17.710344314575195;-1.5426025390625;-15.181671142578125;3.583343505859375
1445509827368;119.44668579101562;-91.30944061279297;23.578874588012695;-1.5426025390625;-15.181671142578125;3.583343505859375
1445509827401;123.13819885253906;-92.44638061523438;26.3277645111084;2.2623748779296875;-13.1026611328125;-2.7713623046875
1445509827435;126.29586791992188;-92.75088500976562;29.546409606933594;2.2623748779296875;-13.1026611328125;-2.7713623046875
1445509827467;128.6162567138672;-89.54996490478516;32.08168411254883;2.2623748779296875;-13.1026611328125;-2.7713623046875
1445509827500;133.6719207763672;-84.62495422363281;34.104244232177734;-5.9163665771484375;-4.610107421875;-0.4766082763671875
1445509827535;148.65379333496094;-73.76274108886719;37.675106048583984;-5.9163665771484375;-4.610107421875;-0.4766082763671875
1445509827568;163.0501708984375;-62.634857177734375;42.24294662475586;-5.9163665771484375;-4.610107421875;-0.4766082763671875
1445509827599;171.941162109375;-56.39927291870117;44.69093704223633;-12.094558715820312;-2.884124755859375;-0.9277191162109375
1445509827632;193.496337890625;-42.88254165649414;47.63845443725586;-12.094558715820312;-2.884124755859375;-0.9277191162109375
1445509827665;204.546142578125;-35.74015426635742;47.88972854614258;-12.094558715820312;-2.884124755859375;-0.9277191162109375
1445509827698;224.35302734375;-22.08550262451172;47.732322692871094;-7.0539398193359375;-3.668670654296875;4.720916748046875
1445509827730;242.21377563476562;-10.04923152923584;45.02906799316406;-7.0539398193359375;-3.668670654296875;4.720916748046875
1445509827764;249.55514526367188;-4.951950550079346;42.43375015258789;-7.0539398193359375;-3.668670654296875;4.720916748046875
1445509827797;259.868896484375;2.2141404151916504;36.61922073364258;-3.48431396484375;-2.4918670654296875;5.858489990234375
1445509827830;266.184814453125;6.860637664794922;32.03559494018555;-3.48431396484375;-2.4918670654296875;5.858489990234375
1445509827863;267.93145751953125;8.511841773986816;29.23493003845215;-3.48431396484375;-2.4918670654296875;5.858489990234375
1445509827895;269.7856140136719;9.931656837463379;23.484058380126953;-3.48431396484375;-2.4918670654296875;5.858489990234375
1445509827928;270.51654052734375;12.010157585144043;19.263164520263672;-6.4066925048828125;0.253997802734375;9.52618408203125
1445509827961;271.3327941894531;13.536635398864746;17.773422241210938;-6.4066925048828125;0.253997802734375;9.52618408203125
1445509827995;272.7349548339844;14.523499488830566;14.064299583435059;-6.4066925048828125;0.253997802734375;9.52618408203125
1445509828028;273.0831604003906;14.460277557373047;12.277358055114746;-3.48431396484375;0.5874176025390625;9.408493041992188
1445509828061;273.71429443359375;15.777203559875488;11.30374526977539;-3.48431396484375;0.5874176025390625;9.408493041992188
1445509828094;272.8642272949219;17.91858673095703;8.705652236938477;-3.48431396484375;0.5874176025390625;9.408493041992188
1445509828127;272.1698913574219;18.261577606201172;7.047735214233398;-2.17022705078125;0.822784423828125;8.074798583984375
1445509828160;272.352294921875;18.662132263183594;6.135279655456543;-2.17022705078125;0.822784423828125;8.074798583984375
1445509828192;274.63299560546875;20.842918395996094;6.972808837890625;-2.17022705078125;0.822784423828125;8.074798583984375
1445509828227;275.15826416015625;20.93409538269043;6.01945161819458;-1.6995086669921875;3.01947021484375;8.015945434570312
1445509828259;275.6033935546875;19.821636199951172;4.078212261199951;-1.6995086669921875;3.01947021484375;8.015945434570312
1445509828292;275.720458984375;18.13477325439453;4.918589115142822;-1.6995086669921875;3.01947021484375;8.015945434570312
1445509828325;275.5244140625;16.78411293029785;8.114052772521973;-1.6995086669921875;3.01947021484375;8.015945434570312
1445509828358;274.2101135253906;11.822906494140625;14.549324989318848;-2.8174591064453125;0.999298095703125;7.7021331787109375
1445509828390;273.21209716796875;8.871100425720215;16.673473358154297;-2.8174591064453125;0.999298095703125;7.7021331787109375
1445509828424;272.32049560546875;5.219166278839111;21.831844329833984;-2.8174591064453125;0.999298095703125;7.7021331787109375
1445509828458;269.7564392089844;5.564119815826416;30.01175308227539;-1.4445343017578125;-4.1982269287109375;1.9554443359375
1445509828489;266.90325927734375;4.307143211364746;35.14094543457031;-1.4445343017578125;-4.1982269287109375;1.9554443359375
1445509828523;257.19110107421875;-1.455535888671875;46.84233856201172;-1.4445343017578125;-4.1982269287109375;1.9554443359375
1445509828555;236.83078002929688;-14.70851993560791;56.56431579589844;-5.9163665771484375;-14.534439086914062;2.720367431640625
1445509828588;222.404541015625;-25.45403289794922;59.07407760620117;-5.9163665771484375;-14.534439086914062;2.720367431640625
1445509828622;193.854248046875;-46.62997055053711;58.283111572265625;-5.9163665771484375;-14.534439086914062;2.720367431640625
1445509828655;181.209716796875;-54.3156852722168;49.33638381958008;-21.528549194335938;-11.78857421875;10.604904174804688
1445509828698;180.029541015625;-52.93516159057617;38.90619659423828;-21.528549194335938;-11.78857421875;10.604904174804688
1445509828722;181.4696044921875;-51.02884292602539;35.07246017456055;-21.528549194335938;-11.78857421875;10.604904174804688
1445509828754;187.84552001953125;-45.196712493896484;29.20098876953125;-21.528549194335938;-11.78857421875;10.604904174804688
1445509828786;192.43499755859375;-42.081321716308594;27.232818603515625;-15.644561767578125;0.9208526611328125;2.75958251953125
1445509828820;202.17926025390625;-38.075843811035156;24.990739822387695;-15.644561767578125;0.9208526611328125;2.75958251953125
1445509828852;204.7003173828125;-38.667240142822266;25.109426498413086;-15.644561767578125;0.9208526611328125;2.75958251953125
1445509828886;206.15240478515625;-45.582088470458984;27.153554916381836;-5.5240936279296875;-5.7084503173828125;-0.005889892578125
1445509828920;208.95602416992188;-51.58241653442383;29.150827407836914;-5.5240936279296875;-5.7084503173828125;-0.005889892578125
1445509828952;210.55389404296875;-53.739601135253906;30.603796005249023;-5.5240936279296875;-5.7084503173828125;-0.005889892578125
1445509828985;216.1826171875;-56.698448181152344;33.078914642333984;-5.622161865234375;-9.925308227539062;2.4261627197265625
1445509829019;218.4154052734375;-60.57788848876953;35.513145446777344;-5.622161865234375;-9.925308227539062;2.4261627197265625
1445509829051;216.61654663085938;-62.70216751098633;36.732906341552734;-5.622161865234375;-9.925308227539062;2.4261627197265625
1445509829084;212.86505126953125;-66.88887023925781;38.3839225769043;-3.170501708984375;-9.729171752929688;0.111785888671875
1445509829117;211.70620727539062;-69.59817504882812;36.88218688964844;-3.170501708984375;-9.729171752929688;0.111785888671875
1445509829150;212.96124267578125;-70.20156860351562;35.35843276977539;-3.170501708984375;-9.729171752929688;0.111785888671875
1445509829184;217.4703369140625;-70.96110534667969;32.63182830810547;-7.8188629150390625;-7.86590576171875;0.680572509765625
1445509829218;219.53216552734375;-71.04267120361328;30.83991050720215;-7.8188629150390625;-7.86590576171875;0.680572509765625
1445509829249;225.003662109375;-70.93772888183594;25.624290466308594;-7.8188629150390625;-7.86590576171875;0.680572509765625
1445509829282;230.430419921875;-72.55500793457031;21.635494232177734;-7.8188629150390625;-7.86590576171875;0.680572509765625
1445509829315;232.9107666015625;-72.88154602050781;19.77631378173828;-10.15283203125;-7.1598358154296875;0.327545166015625
1445509829348;237.7904052734375;-73.72633361816406;16.02676773071289;-10.15283203125;-7.1598358154296875;0.327545166015625
1445509829380;241.20181274414062;-75.7148208618164;10.068926811218262;-10.15283203125;-7.1598358154296875;0.327545166015625
1445509829415;240.77932739257812;-77.09841918945312;7.434085845947266;-10.15283203125;-7.1598358154296875;0.327545166015625
1445509829453;239.84405517578125;-78.15476989746094;2.9462451934814453;-0.2481231689453125;-3.2371673583984375;1.1512908935546875
1445509829480;244.56195068359375;-77.1738052368164;-1.3962852954864502;-0.2481231689453125;-3.2371673583984375;1.1512908935546875
1445509829513;247.44546508789062;-76.46615600585938;-4.511159896850586;-0.2481231689453125;-3.2371673583984375;1.1512908935546875
1445509829545;247.57595825195312;-75.15947723388672;-12.334157943725586;-8.6033935546875;-21.124496459960938;-3.9677734375
1445509829579;247.151123046875;-75.16339111328125;-16.693687438964844;-8.6033935546875;-21.124496459960938;-3.9677734375
1445509829611;252.18161010742188;-81.47039794921875;-17.163307189941406;-8.6033935546875;-21.124496459960938;-3.9677734375
1445509829645;259.4540100097656;-88.41798400878906;-15.7048978805542;8.832839965820312;-10.964813232421875;-2.9871063232421875
1445509829678;262.29022216796875;-92.02883911132812;-15.583806991577148;8.832839965820312;-10.964813232421875;-2.9871063232421875
1445509829710;268.5046081542969;-100.21269226074219;-17.408435821533203;8.832839965820312;-10.964813232421875;-2.9871063232421875
1445509829744;274.2099914550781;-103.28392028808594;-17.740524291992188;2.2035369873046875;-6.7087249755859375;0.6021270751953125
1445509829777;276.70263671875;-103.5978775024414;-17.95730209350586;2.2035369873046875;-6.7087249755859375;0.6021270751953125
1445509829809;281.70904541015625;-104.34559631347656;-19.57068634033203;2.2035369873046875;-6.7087249755859375;0.6021270751953125
1445509829842;285.85162353515625;-104.60906219482422;-20.989620208740234;-0.85614013671875;-3.8059539794921875;0.2686920166015625
1445509829876;287.2665710449219;-103.96515655517578;-21.43330192565918;-0.85614013671875;-3.8059539794921875;0.2686920166015625
1445509829908;288.9468688964844;-102.08653259277344;-22.457571029663086;-0.85614013671875;-3.8059539794921875;0.2686920166015625
