sep=;
timestamp;gyro-alpha;gyro-beta;gyro-gamma;accel-x;accel-y;accel-z
1445509679372;127.22119140625;-79.134765625;-5.461287498474121;2.43890380859375;-12.828079223632812;-3.0067291259765625
1445509679397;126.45133972167969;-78.18650817871094;-6.055806636810303;2.49774169921875;-13.67144775390625;-2.8498077392578125
1445509679429;125.2095947265625;-77.2511978149414;-7.064009666442871;1.6543731689453125;-14.004867553710938;-3.026336669921875
1445509679464;124.15788269042969;-77.56597137451172;-7.1629767417907715;3.262664794921875;-13.808746337890625;-3.85009765625
1445509679496;121.82408142089844;-81.25013732910156;-6.7709641456604;3.0665283203125;-14.279464721679688;-4.2031402587890625
1445509679532;121.08187866210938;-88.9946517944336;-6.726273536682129;1.8897247314453125;-16.18194580078125;-0.692352294921875
1445509679564;122.57696533203125;-93.95478057861328;-6.431899070739746;0.242218017578125;-13.691055297851562;0.9747772216796875
1445509679594;125.26707458496094;-101.25735473632812;-4.411566734313965;0.8109893798828125;-12.141616821289062;1.818145751953125
1445509679629;125.90800476074219;-106.85157012939453;-2.2590692043304443;2.0074005126953125;-11.317855834960938;-0.6138916015625
1445509679661;123.22061157226562;-109.9469223022461;-1.6210218667984009;0.6737060546875;-11.631668090820312;-2.5556182861328125
1445509679693;114.27471923828125;-117.99336242675781;-1.9792957305908203;1.8701171875;-8.513153076171875;-0.6138916015625
1445509679726;110.18989562988281;-122.533203125;-2.9705796241760254;2.2819976806640625;-4.472808837890625;0.24908447265625
1445509679760;103.17727661132812;-130.5797576904297;-6.068120956420898;2.242767333984375;-2.9429779052734375;0.680572509765625
1445509679792;97.94039916992188;-135.73806762695312;-9.32972526550293;2.066253662109375;-1.4131317138671875;-0.0254974365234375
1445509679826;95.9114990234375;-136.68911743164062;-10.447603225708008;2.3996734619140625;-0.68743896484375;-3.57550048828125
1445509679859;93.2510986328125;-135.49610900878906;-10.756187438964844;3.0272979736328125;-1.7465667724609375;-4.59539794921875
1445509679892;92.5244140625;-130.78585815429688;-9.44753646850586;5.2239837646484375;-7.0029296875;-4.3011932373046875
1445509679925;93.32403564453125;-128.38803100585938;-8.135140419006348;4.7336578369140625;-14.534439086914062;-0.94732666015625
1445509679958;98.30816650390625;-122.84114837646484;-4.246938228607178;4.694427490234375;-11.298233032226562;-2.516387939453125
1445509679991;102.73452758789062;-116.49105834960938;-2.4586167335510254;2.4585113525390625;-9.042709350585938;-0.4962158203125
1445509680024;105.62823486328125;-113.30033874511719;-2.2986183166503906;1.5759124755859375;-13.1614990234375;-0.692352294921875
1445509680057;112.16386413574219;-106.53778839111328;-2.3391051292419434;1.7720489501953125;-13.965652465820312;-1.261138916015625
1445509680089;115.28363037109375;-100.1627197265625;-2.6376869678497314;0.1245269775390625;-12.71038818359375;-1.947601318359375
1445509680122;114.99383544921875;-97.70820617675781;-2.666616439819336;-1.7191162109375;-11.984695434570312;-2.26141357421875
1445509680156;116.2535400390625;-94.125;-2.317354917526245;-2.660552978515625;-11.39630126953125;-0.182403564453125
1445509680188;118.48777770996094;-92.21443939208984;-1.4455562829971313;1.8701171875;-9.356521606445312;-2.065277099609375
1445509680222;122.7369384765625;-88.34197998046875;0.09455888718366623;3.4195709228515625;-8.94464111328125;-1.810302734375
1445509680255;124.1981201171875;-84.93156433105469;-0.4164044260978699;0.1245269775390625;-9.258453369140625;-0.5354461669921875
1445509680287;124.42654418945312;-83.23072814941406;-0.9388173222541809;0.04608154296875;-10.552932739257812;-3.0067291259765625
1445509680320;123.90512084960938;-80.45305633544922;-2.3811941146850586;-0.777679443359375;-11.533599853515625;-4.026611328125
1445509680354;122.4764404296875;-78.01881408691406;-3.598526954650879;-1.0718841552734375;-12.337738037109375;-4.6346282958984375
1445509680386;121.85043334960938;-76.9229965209961;-4.138970851898193;-0.7580718994140625;-14.004867553710938;-4.77191162109375
1445509680419;119.71823120117188;-76.80207061767578;-4.12923002243042;1.24249267578125;-15.063995361328125;-6.2821502685546875
1445509680452;116.4737548828125;-82.84358215332031;-3.5918970108032227;0.8109893798828125;-17.358749389648438;-1.96722412109375
1445509680485;117.47018432617188;-88.07456970214844;-3.3285019397735596;2.67425537109375;-19.59466552734375;2.46539306640625
1445509680521;122.04071044921875;-99.0224380493164;-1.9474362134933472;1.8308868408203125;-14.102935791015625;5.6231231689453125
1445509680552;122.30712890625;-105.7198715209961;-0.20760577917099;-0.208892822265625;-12.690780639648438;-0.2608642578125
1445509680585;121.3724365234375;-108.50753021240234;1.0106916427612305;-1.5622100830078125;-15.04437255859375;-4.5561676025390625
1445509680618;113.28070068359375;-116.12565612792969;2.1718831062316895;0.6344757080078125;-10.729446411132812;-0.5550537109375
1445509680650;108.10476684570312;-120.8875732421875;1.2442543506622314;2.2035369873046875;-3.8844146728515625;1.56317138671875
1445509680684;99.1409912109375;-129.98805236816406;-2.0751869678497314;2.55657958984375;-1.6092681884765625;1.9358367919921875
1445509680716;93.21270751953125;-136.58480834960938;-5.702343940734863;2.4781341552734375;-0.0402069091796875;0.8571014404296875
1445509680751;91.39434814453125;-138.4569854736328;-7.277719497680664;1.4582366943359375;0.489349365234375;-1.6141815185546875
1445509680820;87.77001953125;-134.81027221679688;-8.991148948669434;5.086700439453125;-3.668670654296875;-0.3981475830078125
1445509680821;87.77001953125;-134.81027221679688;-8.991148948669434;5.086700439453125;-3.668670654296875;-0.3981475830078125
1445509680854;88.41482543945312;-131.80567932128906;-8.05762767791748;3.0272979736328125;-16.044662475585938;-3.39898681640625
1445509680892;93.037109375;-124.91263580322266;-4.529395580291748;3.69415283203125;-12.828079223632812;-3.6343536376953125
1445509680921;98.32147216796875;-117.54084014892578;-1.4142216444015503;2.4585113525390625;-9.474197387695312;-1.51611328125
1445509680958;104.74063110351562;-110.41902923583984;-0.506391704082489;1.0659637451171875;-10.101821899414062;0.19024658203125
1445509680992;108.59967041015625;-106.65165710449219;-0.6410796046257019;1.0659637451171875;-14.279464721679688;-1.771087646484375
1445509681018;113.38650512695312;-99.29460144042969;-1.3728116750717163;0.5560302734375;-13.887191772460938;-2.006439208984375
1445509681058;112.73936462402344;-95.4885482788086;-1.5924689769744873;-1.6798858642578125;-11.808181762695312;-0.7119598388671875
1445509681089;114.38287353515625;-93.95036315917969;-1.2869722843170166;-2.1898345947265625;-11.78857421875;-0.633514404296875
1445509681117;116.7413330078125;-92.06217956542969;-0.7529339790344238;-0.5030975341796875;-8.983871459960938;-1.75146484375
1445509681156;120.52496337890625;-88.3292465209961;0.6637334227561951;0.8306121826171875;-8.218948364257812;-2.1241302490234375
1445509681182;122.17019653320312;-85.23062896728516;1.0666383504867554;-0.1696624755859375;-7.86590576171875;-1.1630706787109375
1445509681225;123.929931640625;-82.6522216796875;0.830130934715271;-0.3069610595703125;-8.571990966796875;-0.2608642578125
1445509681257;124.39395141601562;-80.18112182617188;-0.10682592540979385;0.0068511962890625;-11.39630126953125;-1.2415313720703125
1445509681293;123.90982055664062;-78.72288513183594;-0.7122039198875427;1.41900634765625;-13.338027954101562;-2.908660888671875
1445509681315;123.41006469726562;-77.27391052246094;-1.4541289806365967;2.2035369873046875;-15.083602905273438;-3.1047821044921875
1445509681407;123.19786071777344;-78.65484619140625;-2.048372745513916;1.3993988037109375;-15.279739379882812;-4.41888427734375
1445509681411;123.19786071777344;-78.65484619140625;-2.048372745513916;1.3993988037109375;-15.279739379882812;-4.41888427734375
1445509681440;123.32073974609375;-87.32575988769531;-0.23143303394317627;1.556304931640625;-16.338851928710938;-0.9080963134765625
1445509681472;124.14035034179688;-92.01815795898438;0.3330214023590088;2.066253662109375;-17.064544677734375;0.955169677734375
1445509681506;126.50813293457031;-99.69917297363281;1.678094506263733;1.9485626220703125;-11.847412109375;2.3084869384765625
1445509681538;127.12539672851562;-106.89089965820312;3.091224431991577;1.6935882568359375;-11.90625;-0.4962158203125
1445509681573;124.15139770507812;-110.71121215820312;3.3624987602233887;0.16375732421875;-11.867019653320312;-0.8492584228515625
1445509681605;115.7159423828125;-119.8763198852539;2.591392755508423;0.8306121826171875;-8.120880126953125;-0.4962158203125
1445509681638;111.67385864257812;-125.36071014404297;1.452919840812683;2.066253662109375;-4.7081756591796875;0.9159393310546875
1445509681671;104.4991455078125;-134.60256958007812;-2.78374981880188;2.301605224609375;-3.2960052490234375;1.2885894775390625
1445509681704;99.86114501953125;-140.20358276367188;-6.661222457885742;2.2035369873046875;-0.2951812744140625;1.4847259521484375
1445509681737;98.65704345703125;-141.49440002441406;-8.401071548461914;2.7134857177734375;1.3523406982421875;-5.0661163330078125
1445509681771;98.51007080078125;-141.04736328125;-9.424678802490234;2.73309326171875;0.6462554931640625;-6.6548004150390625
1445509681803;98.51129150390625;-136.59432983398438;-9.13593864440918;3.57647705078125;-3.1783294677734375;-1.771087646484375
1445509681837;98.58868408203125;-133.08346557617188;-8.258331298828125;4.0864105224609375;-13.867584228515625;-3.9677734375
1445509681870;100.62490844726562;-126.34916687011719;-5.156121730804443;4.2825469970703125;-17.456817626953125;-2.7713623046875
1445509681902;105.4102783203125;-120.36016082763672;-1.6820834875106812;1.3405609130859375;-6.49298095703125;-1.712249755859375
1445509681936;108.22213745117188;-117.14511108398438;-0.37249383330345154;2.4781341552734375;-8.591598510742188;-1.084625244140625
1445509681969;114.79814147949219;-109.9376220703125;0.35820817947387695;1.3797760009765625;-15.632781982421875;-1.4180450439453125
1445509682001;120.01519775390625;-101.82426452636719;-0.39517736434936523;-0.954193115234375;-14.848251342773438;-0.6531219482421875
1445509682034;120.3140869140625;-98.32923889160156;-0.7047703266143799;-1.6602783203125;-12.9261474609375;-0.5942840576171875
1445509682068;118.77908325195312;-92.9239501953125;-0.6416516304016113;-1.3072357177734375;-9.533035278320312;-0.3981475830078125
1445509682100;118.261962890625;-90.62712097167969;-0.6735627055168152;2.1446990966796875;-8.218948364257812;-0.77081298828125
1445509682133;120.39198303222656;-86.2289047241211;-0.3509783148765564;3.262664794921875;-8.630828857421875;-1.2807464599609375
1445509682170;123.999755859375;-81.53155517578125;-1.0732886791229248;1.30133056640625;-8.866195678710938;-0.6531219482421875
1445509682200;125.57061767578125;-79.1306381225586;-1.756179928779602;-1.09149169921875;-7.2775115966796875;0.562896728515625
1445509682233;128.36900329589844;-75.05558776855469;-3.644296884536743;-2.425201416015625;-8.3758544921875;0.36676025390625
1445509682265;129.74627685546875;-71.35783386230469;-5.246248245239258;-2.993988037109375;-10.31756591796875;-0.88848876953125
1445509682299;130.26979064941406;-69.4808578491211;-5.578104019165039;-1.8760223388671875;-12.808456420898438;-4.08544921875
1445509682331;131.99801635742188;-67.54533386230469;-6.307455062866211;1.24249267578125;-13.651840209960938;-5.67413330078125
1445509682364;133.07571411132812;-69.14979553222656;-6.879361629486084;-2.40557861328125;-15.848526000976562;-6.1448516845703125
1445509682398;133.81556701660156;-71.2938232421875;-6.65814733505249;-2.7782440185546875;-16.907638549804688;-4.3208160400390625
1445509682431;132.1758270263672;-79.0058364868164;-4.34334659576416;0.536407470703125;-16.69189453125;0.504058837890625
1445509682463;130.17083740234375;-83.69573974609375;-3.234997034072876;3.0272979736328125;-19.045486450195312;3.3675994873046875
1445509682496;126.7479248046875;-94.05770111083984;-1.5348963737487793;6.577301025390625;-18.947418212890625;3.7990875244140625
1445509682533;125.41741943359375;-102.85964965820312;-0.85798579454422;1.3993988037109375;-15.240509033203125;-2.634063720703125
1445509682563;124.68545532226562;-106.82403564453125;-0.0032033591996878386;-0.5619354248046875;-16.868408203125;1.32781982421875
1445509682596;117.3287353515625;-117.25566101074219;1.7183661460876465;-1.405303955078125;-13.318405151367188;3.093017578125
1445509682630;106.21395874023438;-128.1705322265625;-1.0779699087142944;3.57647705078125;-3.5902099609375;3.073394775390625
1445509682664;102.44314575195312;-132.46337890625;-3.7409255504608154;3.1057586669921875;-0.5893707275390625;2.210418701171875
1445509682696;96.57199096679688;-139.76634216308594;-9.434097290039062;2.9096221923828125;-1.275848388671875;0.58251953125
1445509682730;94.58663940429688;-141.47842407226562;-10.85238265991211;5.12591552734375;-1.5504302978515625;-4.41888427734375
1445509682760;92.8280029296875;-141.12828063964844;-11.1923246383667;5.3024444580078125;-1.8446197509765625;-4.71307373046875
1445509682794;91.0418701171875;-136.6847686767578;-12.174273490905762;5.4201202392578125;-7.1402130126953125;-6.497894287109375
1445509682826;90.7669677734375;-134.30491638183594;-12.308030128479004;5.439727783203125;-8.395462036132812;-4.5757904052734375
1445509682860;90.41604614257812;-130.4889373779297;-10.683355331420898;0.8894500732421875;-12.200454711914062;0.01373291015625
1445509682892;93.9315185546875;-125.045166015625;-5.309018135070801;0.0656890869140625;-9.474197387695312;2.0535125732421875
1445509682926;96.93862915039062;-121.62383270263672;-2.5744354724884033;0.9090576171875;-10.670608520507812;1.6808624267578125
1445509682958;103.99105834960938;-114.29058074951172;0.17665289342403412;2.5761871337890625;-16.731124877929688;-2.7909698486328125
1445509682991;108.80908203125;-106.98343658447266;0.24949736893177032;0.869842529296875;-12.631942749023438;-0.4962158203125
1445509683025;107.77525329589844;-105.06126403808594;-0.10468124598264694;0.7521514892578125;-10.121444702148438;-0.0843353271484375
1445509683057;107.6171875;-101.74700164794922;0.18671894073486328;-1.7583465576171875;-11.21978759765625;-1.3395843505859375
1445509683091;112.06367492675781;-96.69114685058594;1.6201199293136597;-0.1892852783203125;-11.10211181640625;-2.0456695556640625
1445509683123;114.24555969238281;-94.29702758789062;2.396190881729126;1.8701171875;-10.572540283203125;-2.516387939453125
1445509683156;116.93826293945312;-89.93760681152344;2.7289581298828125;0.28143310546875;-10.6510009765625;-1.261138916015625
1445509683189;117.65184020996094;-87.90499114990234;2.5037145614624023;-0.4834747314453125;-11.082489013671875;-1.6337890625
1445509683222;119.27352905273438;-84.37796783447266;1.6435928344726562;-0.522705078125;-11.925857543945312;-2.4379425048828125
1445509683258;119.05744934082031;-82.1334228515625;0.37776342034339905;-1.228790283203125;-11.415924072265625;-3.5558929443359375
1445509683288;118.41011047363281;-81.31986236572266;-0.38167038559913635;-0.326568603515625;-10.415634155273438;-4.4973297119140625
1445509683321;116.907470703125;-80.50540161132812;-1.5648541450500488;-0.522705078125;-13.063430786132812;-6.4586639404296875
1445509683354;116.07821655273438;-82.5105972290039;-1.7694933414459229;2.2035369873046875;-16.280014038085938;-5.3210906982421875
1445509683388;116.1837158203125;-85.9546890258789;-1.5038849115371704;3.556854248046875;-16.142715454101562;-4.458099365234375
1445509683422;117.28984069824219;-95.66106414794922;-0.6601370573043823;4.71405029296875;-16.711502075195312;2.4850006103515625
1445509683457;120.65655517578125;-104.75969696044922;1.4751098155975342;3.2822723388671875;-12.59271240234375;2.386932373046875
1445509683486;122.02606201171875;-108.49858093261719;2.7997617721557617;2.2819976806640625;-11.78857421875;1.190521240234375
1445509683520;118.51170349121094;-115.6039047241211;4.059426784515381;-2.1898345947265625;-14.397140502929688;-4.9876708984375
1445509683553;111.15347290039062;-124.83778381347656;2.0569112300872803;0.8109893798828125;-8.003204345703125;-0.5550537109375
1445509683586;106.88713073730469;-130.34396362304688;-0.2933049499988556;1.3209381103515625;-4.8846893310546875;0.01373291015625
1445509683618;99.71502685546875;-138.8727569580078;-5.9206719398498535;3.1645965576171875;-1.3739013671875;0.81787109375
1445509683658;95.26153564453125;-143.2042999267578;-10.444258689880371;2.360443115234375;-0.177490234375;-0.1627960205078125
1445509683685;93.77786254882812;-143.7183837890625;-11.911188125610352;2.419281005859375;0.312835693359375;-1.202301025390625
1445509683717;92.79885864257812;-141.8004608154297;-11.54221248626709;4.2237091064453125;-1.7857818603515625;-4.53656005859375
1445509683756;91.69879150390625;-136.2898712158203;-9.897879600524902;6.14581298828125;-5.3946380615234375;0.876708984375
1445509683783;92.51312255859375;-132.11131286621094;-8.089083671569824;5.8712310791015625;-8.513153076171875;-2.4183197021484375
1445509683816;98.11688232421875;-123.98319244384766;-2.811448574066162;-0.777679443359375;-18.672836303710938;-1.319976806640625
1445509683857;105.4447021484375;-117.09201049804688;1.4726263284683228;-1.4249267578125;-7.23828125;-2.4183197021484375
1445509683882;108.08377075195312;-113.8646240234375;2.7791309356689453;-1.405303955078125;-5.9830322265625;-1.829925537109375
1445509683915;112.05523681640625;-108.05323791503906;3.749545097351074;0.595245361328125;-12.749618530273438;-3.771636962890625
1445509683948;113.96347045898438;-105.6740493774414;2.92634654045105;1.7132110595703125;-14.004867553710938;-3.9285430908203125
1445509683981;114.78559875488281;-103.57343292236328;1.2605926990509033;-0.4638671875;-11.27862548828125;-0.82965087890625
1445509684014;115.07957458496094;-102.45867919921875;1.3596630096435547;-2.739013671875;-12.141616821289062;-3.0067291259765625
1445509684047;118.45816040039062;-98.75324249267578;2.7074103355407715;0.242218017578125;-11.768951416015625;-2.6144561767578125
1445509684083;121.25283813476562;-95.1912841796875;4.153938293457031;0.6148681640625;-9.748779296875;-1.261138916015625
1445509684114;121.44378662109375;-93.40547180175781;4.268418312072754;-0.8169097900390625;-11.16094970703125;-1.51611328125
1445509684147;122.86235046386719;-89.69558715820312;3.8829970359802246;-0.7972869873046875;-11.298233032226562;-1.6337890625
1445509684179;122.90435791015625;-85.97523498535156;2.5985143184661865;-1.6798858642578125;-12.41619873046875;-4.5561676025390625
1445509684212;121.8533935546875;-84.3812484741211;1.8735899925231934;-1.0130462646484375;-12.573104858398438;-5.2622528076171875
1445509684246;119.75686645507812;-82.32677459716797;0.18839745223522186;1.791656494140625;-12.455429077148438;-5.4976043701171875
1445509684282;117.6199951171875;-82.60511779785156;-1.0091239213943481;-0.660003662109375;-15.10321044921875;-5.1053466796875
1445509684311;116.64633178710938;-84.646240234375;-0.9907119274139404;0.654083251953125;-14.416748046875;-4.3208160400390625
1445509684346;116.39346313476562;-92.53621673583984;0.1428826004266739;4.1060333251953125;-17.7706298828125;-1.6141815185546875
1445509684377;117.18992614746094;-96.80287170410156;0.9461165070533752;4.0864105224609375;-14.593276977539062;1.21014404296875
1445509684410;122.05191040039062;-105.23500061035156;3.478437662124634;1.811279296875;-9.807632446289062;3.916778564453125
1445509684443;123.03314208984375;-111.53475952148438;5.7532877922058105;-0.836517333984375;-12.396575927734375;-3.653961181640625
1445509684476;121.11199951171875;-114.97393798828125;5.958197116851807;-1.9544830322265625;-13.867584228515625;-5.085723876953125
1445509684509;113.97027587890625;-124.53715515136719;4.815577507019043;-0.601165771484375;-8.2581787109375;-0.82965087890625
1445509684542;105.89997863769531;-134.03807067871094;0.4139523506164551;1.9485626220703125;-2.8056793212890625;0.2294769287109375
1445509684575;102.9027099609375;-137.354248046875;-2.1858561038970947;2.1446990966796875;-1.4131317138671875;0.4256134033203125
1445509684609;98.1343994140625;-141.18539428710938;-7.164933204650879;3.1842041015625;-1.5308074951171875;-0.515838623046875
1445509684640;96.55224609375;-141.21835327148438;-8.677008628845215;3.2234344482421875;-1.2954559326171875;-3.57550048828125
1445509684674;95.36016845703125;-139.09263610839844;-8.594247817993164;3.1057586669921875;-2.589935302734375;-3.5558929443359375
1445509684707;95.34320068359375;-133.05099487304688;-6.778372287750244;3.890289306640625;-7.12060546875;-4.2423553466796875
1445509684741;96.02691650390625;-129.5192108154297;-6.024513244628906;3.81182861328125;-9.572265625;0.0921783447265625
1445509684774;99.79248046875;-122.66974639892578;-2.2540829181671143;0.0068511962890625;-11.886642456054688;0.30792236328125
1445509684806;106.94343566894531;-114.8196029663086;2.548114538192749;-0.8757476806640625;-11.51397705078125;-2.457550048828125
1445509684839;110.114013671875;-111.2466049194336;3.8170034885406494;-0.7384490966796875;-11.886642456054688;-2.4771575927734375
1445509684872;114.45040893554688;-105.09989166259766;4.107956886291504;0.34027099609375;-13.024200439453125;-3.0459442138671875
1445509684905;113.88365173339844;-102.10131072998047;2.802220106124878;1.6543731689453125;-10.396026611328125;-0.810028076171875
1445509684938;113.59262084960938;-101.6382827758789;2.3023505210876465;0.928680419921875;-10.297958374023438;-0.1627960205078125
1445509684971;114.72158813476562;-99.41362762451172;2.4575226306915283;-3.42547607421875;-10.984420776367188;-0.692352294921875
1445509685005;116.6539306640625;-97.4212875366211;3.069380521774292;-2.8174591064453125;-10.5921630859375;-1.692626953125
1445509685037;120.64865112304688;-93.96636962890625;4.52406644821167;1.6543731689453125;-9.827239990234375;-1.9083709716796875
1445509685071;121.90878295898438;-91.08245849609375;4.425930023193359;-0.0716094970703125;-10.552932739257812;-1.496490478515625
1445509685104;122.78994750976562;-89.73565673828125;4.081175327301025;-1.09149169921875;-10.749069213867188;-1.06500244140625
1445509685137;124.40287780761719;-86.87430572509766;3.0591888427734375;-2.032928466796875;-10.572540283203125;-1.3395843505859375
1445509685169;124.16677856445312;-83.85489654541016;1.4296047687530518;-0.326568603515625;-11.435531616210938;-1.0257720947265625
1445509685203;123.63897705078125;-82.4245834350586;0.4536112844944;1.615142822265625;-12.59271240234375;-1.3984375
1445509685236;122.20123291015625;-80.03528594970703;-1.3385759592056274;1.2621002197265625;-15.083602905273438;-2.692901611328125
1445509685269;121.92160034179688;-78.58659362792969;-2.2063944339752197;0.6737060546875;-14.12255859375;-4.340423583984375
1445509685302;121.6727294921875;-78.8714828491211;-1.98475980758667;0.3795013427734375;-14.004867553710938;-4.909210205078125
1445509685335;119.13511657714844;-83.45191192626953;-0.5728626251220703;-0.1108245849609375;-14.259841918945312;-6.105621337890625
1445509685367;119.00399780273438;-92.12155151367188;0.7281776070594788;-0.4442596435546875;-16.456527709960938;0.327545166015625
1445509685400;120.76805114746094;-96.02131652832031;1.6965290307998657;-0.3657989501953125;-14.632492065429688;2.720367431640625
1445509685432;122.75372314453125;-102.21369171142578;3.4519617557525635;0.1245269775390625;-11.298233032226562;2.8772735595703125
1445509685467;122.93222045898438;-105.75188446044922;4.175512313842773;0.418731689453125;-12.063156127929688;0.0333404541015625
1445509685498;116.33552551269531;-114.51136016845703;3.831928253173828;-0.1696624755859375;-13.259567260742188;-2.634063720703125
1445509685532;107.56512451171875;-125.36908721923828;1.3330316543579102;0.869842529296875;-9.278060913085938;0.81787109375
1445509685566;103.67202758789062;-130.4803466796875;-0.797795295715332;2.49774169921875;-4.2570648193359375;1.1512908935546875
1445509685599;98.25491333007812;-138.9325714111328;-5.740472793579102;2.3996734619140625;-2.256500244140625;1.6612396240234375
1445509685631;95.68386840820312;-143.04116821289062;-9.06363582611084;2.7134857177734375;-0.8443450927734375;0.36676025390625
1445509685665;95.0968017578125;-143.2454376220703;-9.562347412109375;2.5173492431640625;-0.62860107421875;-1.496490478515625
1445509685697;94.7568359375;-140.39578247070312;-8.661429405212402;3.1645965576171875;-1.8446197509765625;-3.9285430908203125
1445509685732;95.15081787109375;-134.1534881591797;-6.642325401306152;4.125640869140625;-4.3159027099609375;-1.12384033203125
1445509685763;96.29461669921875;-130.06082153320312;-4.739856243133545;3.262664794921875;-9.572265625;-4.0658416748046875
1445509685796;101.12066650390625;-121.71485900878906;-0.08852611482143402;-0.640380859375;-14.201004028320312;-4.71307373046875
1445509685829;102.64108276367188;-118.08261108398438;1.3549028635025024;0.1833648681640625;-5.6888275146484375;-0.8492584228515625
1445509685863;104.62588500976562;-111.62361145019531;2.8615102767944336;1.3797760009765625;-7.4540252685546875;0.621734619140625
1445509685895;109.30218505859375;-104.89985656738281;2.543820858001709;1.3993988037109375;-16.417312622070312;-2.8498077392578125
1445509685930;111.8311767578125;-101.23690032958984;2.153982162475586;-0.01275634765625;-12.435806274414062;-1.3984375
1445509685962;112.55241394042969;-96.82976531982422;3.8838961124420166;-0.287353515625;-11.082489013671875;-0.692352294921875
1445509685996;115.42526245117188;-93.20169830322266;4.761910915374756;-1.5818328857421875;-9.866470336914062;-0.6138916015625
1445509686030;118.16004943847656;-91.09827423095703;5.119324207305908;0.3991241455078125;-9.258453369140625;-1.3984375
1445509686059;122.70260620117188;-87.7908706665039;5.333059310913086;1.24249267578125;-7.5128631591796875;-1.202301025390625
1445509686093;124.0462646484375;-85.18492889404297;4.981704235076904;-0.85614013671875;-7.8462982177734375;-0.1431732177734375
1445509686126;125.0374755859375;-84.17953491210938;4.6660542488098145;-0.85614013671875;-8.3170166015625;0.2098541259765625
1445509686160;126.94537353515625;-82.28368377685547;3.614164352416992;-1.9544830322265625;-9.807632446289062;0.58251953125
1445509686193;127.10147094726562;-80.20575714111328;2.624652862548828;-0.7384490966796875;-12.53387451171875;-0.77081298828125
1445509686225;126.72634887695312;-79.21179962158203;2.0223419666290283;1.3209381103515625;-13.436080932617188;-1.8495330810546875
1445509686259;126.15953063964844;-77.9332275390625;0.5508888363838196;0.301055908203125;-16.750732421875;-2.3594818115234375
1445509686291;125.74008178710938;-77.90771484375;0.1282898485660553;-0.1696624755859375;-16.711502075195312;-2.8694305419921875
1445509686324;124.34040832519531;-80.30762481689453;0.00289087719283998;1.6543731689453125;-14.828628540039062;-3.1244049072265625
1445509686357;121.98631286621094;-86.08878326416016;0.6029084920883179;1.0071258544921875;-14.279464721679688;-4.4384918212890625
1445509686390;121.0126953125;-89.83600616455078;0.7648810148239136;-0.032379150390625;-15.711227416992188;-1.319976806640625
1445509686423;121.42120361328125;-98.11441040039062;1.2890287637710571;0.3991241455078125;-14.044097900390625;2.8184356689453125
1445509686456;121.68890380859375;-104.45198059082031;2.2616360187530518;2.0858612060546875;-11.062881469726562;2.3673248291015625
1445509686489;122.70054626464844;-107.26448822021484;2.920682430267334;2.2035369873046875;-11.16094970703125;-0.064727783203125
1445509686523;118.09136962890625;-114.58293151855469;1.644529104232788;1.7720489501953125;-10.31756591796875;-1.18267822265625
1445509686556;111.83740234375;-123.79398345947266;-1.7377691268920898;1.2032623291015625;-8.591598510742188;-0.3785400390625
1445509686589;109.9876708984375;-128.2902374267578;-4.033641338348389;2.9684600830078125;-7.23828125;0.3471527099609375
1445509686621;107.94100952148438;-135.77146911621094;-8.71646785736084;3.4195709228515625;-4.6885528564453125;0.1706390380859375
1445509686655;107.72628784179688;-138.7859649658203;-10.678282737731934;3.1645965576171875;-3.5509796142578125;0.327545166015625
1445509686688;108.63876342773438;-142.50494384765625;-13.088306427001953;2.7919464111328125;-1.70733642578125;-0.5942840576171875
1445509686720;111.43148803710938;-143.15940856933594;-12.579111099243164;2.3408355712890625;-2.138824462890625;-2.9282684326171875
1445509686755;113.08222961425781;-142.6768035888672;-11.632280349731445;1.9093475341796875;-2.78607177734375;-3.57550048828125
1445509686786;116.48992919921875;-139.9663848876953;-9.161901473999023;1.8701171875;-5.3750152587890625;-6.223297119140625
1445509686819;119.64706420898438;-134.80125427246094;-7.218981742858887;3.7333831787109375;-10.8863525390625;-10.616683959960938
1445509686852;120.96087646484375;-131.6707763671875;-5.902756690979004;4.812103271484375;-14.92669677734375;-7.2824249267578125
1445509686886;124.6029052734375;-125.76041412353516;-2.82289981842041;5.596649169921875;-8.94464111328125;-2.908660888671875
1445509686919;131.3632354736328;-119.51876831054688;-0.021373368799686432;3.69415283203125;-7.23828125;-0.2804718017578125
1445509686953;135.78262329101562;-116.49991607666016;1.1723130941390991;2.43890380859375;-8.94464111328125;0.327545166015625
1445509686983;147.68060302734375;-109.8445816040039;2.965500831604004;-2.91552734375;-11.357070922851562;-0.77081298828125
1445509687018;158.7416229248047;-102.5346450805664;5.415782928466797;-5.7202301025390625;-11.317855834960938;-3.1244049072265625
1445509687050;162.95269775390625;-99.31629943847656;6.847006320953369;-5.7398529052734375;-9.886077880859375;-2.8302001953125
1445509687084;169.5862274169922;-93.77879333496094;8.898462295532227;-3.503936767578125;-8.356246948242188;-1.319976806640625
1445509687116;172.83438110351562;-91.3443832397461;9.08879566192627;-2.032928466796875;-9.513427734375;-1.3984375
1445509687149;177.7965545654297;-87.5809326171875;7.747169494628906;-0.1304473876953125;-11.180557250976562;-1.12384033203125
1445509687182;180.7694091796875;-84.94012451171875;7.142241477966309;0.4383392333984375;-10.513702392578125;0.9159393310546875
1445509687215;182.9161376953125;-83.6238784790039;7.058464050292969;0.477569580078125;-10.31756591796875;1.0532379150390625
1445509687248;188.77593994140625;-81.4124755859375;6.343327045440674;0.7129364013671875;-9.827239990234375;1.0336151123046875
1445509687281;195.9234619140625;-79.64116668701172;4.789056301116943;-0.228515625;-9.297683715820312;1.014007568359375
1445509687315;198.56988525390625;-78.92332458496094;3.8446481227874756;-1.3856964111328125;-9.042709350585938;0.955169677734375
1445509687348;204.1236572265625;-77.68396759033203;2.472916603088379;-3.7000579833984375;-10.278350830078125;-1.12384033203125
1445509687381;207.40826416015625;-76.93516540527344;2.1855666637420654;-3.24896240234375;-10.415634155273438;-3.9285430908203125
1445509687413;213.1112060546875;-75.94957733154297;2.1070778369903564;-2.5036468505859375;-9.788009643554688;-4.673858642578125
1445509687447;219.33087158203125;-77.07333374023438;2.0782742500305176;-2.2486724853515625;-9.474197387695312;-4.5169525146484375
1445509687481;222.94873046875;-78.66449737548828;2.0757555961608887;1.0267486572265625;-13.84796142578125;-0.2216339111328125
1445509687512;231.3460693359375;-83.76017761230469;1.5963414907455444;2.929229736328125;-12.47503662109375;0.58251953125
1445509687546;239.63796997070312;-89.60196685791016;-0.7952524423599243;7.8717803955078125;-12.553482055664062;2.8576507568359375
1445509687579;243.46331787109375;-92.63848876953125;-3.106226682662964;10.441131591796875;-12.867294311523438;3.26953125
1445509687611;250.17987060546875;-97.71939849853516;-7.0783867835998535;5.5574188232421875;-9.297683715820312;2.720367431640625
1445509687643;257.68017578125;-98.32846069335938;-7.061652660369873;-2.1309967041015625;-10.14105224609375;0.327545166015625
1445509687677;261.480712890625;-97.83565521240234;-6.819970607757568;-3.36663818359375;-8.3170166015625;0.0921783447265625
1445509687712;266.5407409667969;-98.5936508178711;-9.369487762451172;-2.542877197265625;-4.0020904541015625;0.6021270751953125
1445509687746;271.36212158203125;-99.7364273071289;-12.405054092407227;-1.3660736083984375;-4.727783203125;0.6609649658203125
1445509687776;272.5938720703125;-99.65776824951172;-13.723864555358887;-0.9345855712890625;-6.9048614501953125;-0.77081298828125
1445509687810;276.4280700683594;-99.04102325439453;-14.66436767578125;-1.974090576171875;-10.160659790039062;-4.6934661865234375
1445509687843;280.3575439453125;-99.6220932006836;-14.100147247314453;-1.522979736328125;-8.591598510742188;-4.2423553466796875
1445509687876;285.90447998046875;-100.31085205078125;-12.842578887939453;0.2618255615234375;-8.94464111328125;-4.144287109375
1445509687908;286.7292175292969;-99.46163177490234;-12.765475273132324;1.046356201171875;-9.278060913085938;-2.967498779296875
1445509687944;286.6871643066406;-98.9990234375;-12.810514450073242;1.0071258544921875;-9.395751953125;-2.4771575927734375
1445509687974;287.19793701171875;-97.59697723388672;-12.19265079498291;2.4781341552734375;-10.042984008789062;-3.202850341796875
1445509688007;287.3582763671875;-96.3939208984375;-11.862968444824219;4.2237091064453125;-11.239395141601562;-3.889312744140625
1445509688040;287.2611083984375;-93.9849853515625;-12.030567169189453;8.146377563476562;-14.965927124023438;-5.5172271728515625
1445509688073;290.1575927734375;-94.3052749633789;-12.244938850402832;-0.326568603515625;-9.297683715820312;1.4258880615234375
1445509688106;294.3298034667969;-95.18168640136719;-11.608813285827637;-2.425201416015625;-13.769515991210938;0.01373291015625
1445509688140;300.41998291015625;-94.80254364013672;-9.55881404876709;-3.24896240234375;-16.495758056640625;0.4059906005859375
1445509688173;301.53131103515625;-95.66952514648438;-8.645902633666992;-1.9936981201171875;-10.670608520507812;2.7399749755859375
1445509688206;302.4520263671875;-96.33757019042969;-7.765593528747559;2.4585113525390625;-11.043258666992188;-1.319976806640625
1445509688238;303.6821594238281;-95.31604766845703;-6.882160186767578;0.536407470703125;-10.905975341796875;-1.6730194091796875
1445509688271;303.3192443847656;-93.60334014892578;-6.602948188781738;-1.1307220458984375;-9.06231689453125;-1.8495330810546875
1445509688305;303.882080078125;-92.56523132324219;-6.077101707458496;-2.150604248046875;-9.140777587890625;-3.536285400390625
1445509688338;302.0927734375;-90.60855102539062;-5.16549825668335;-2.150604248046875;-8.160110473632812;-2.8890380859375
1445509688371;300.8481140136719;-89.63258361816406;-4.787262439727783;0.28143310546875;-7.3951873779296875;-1.888763427734375
1445509688405;300.6988220214844;-89.23046112060547;-5.044100284576416;1.36016845703125;-7.7089996337890625;-1.437652587890625
1445509688436;301.08526611328125;-89.32040405273438;-6.313601970672607;2.242767333984375;-8.571990966796875;-1.96722412109375
1445509688469;302.7464904785156;-90.50782012939453;-7.778608322143555;0.026458740234375;-8.94464111328125;-3.1244049072265625
1445509688503;303.90081787109375;-91.39591217041016;-8.569938659667969;-1.03265380859375;-9.376129150390625;-5.654510498046875
1445509688536;306.7804870605469;-96.00437927246094;-10.569110870361328;0.6344757080078125;-11.670883178710938;-7.6550750732421875
1445509688569;306.45306396484375;-100.21308898925781;-12.184823036193848;2.693878173828125;-16.083877563476562;-0.574676513671875
1445509688602;306.1272277832031;-110.74880981445312;-15.63292121887207;4.2041015625;-19.26123046875;-1.143463134765625
1445509688634;307.07550048828125;-121.2090835571289;-15.786295890808105;0.1833648681640625;-19.202392578125;-2.1829681396484375
1445509688667;306.7698669433594;-125.26110076904297;-14.937771797180176;1.4582366943359375;-16.397689819335938;-1.2807464599609375
1445509688700;306.50628662109375;-131.60983276367188;-14.813562393188477;3.5372467041015625;-8.160110473632812;-0.182403564453125
1445509688733;306.699951171875;-134.68572998046875;-14.210021018981934;1.47784423828125;-1.060089111328125;0.052947998046875
1445509688771;306.3016052246094;-134.50294494628906;-14.085915565490723;0.8502197265625;-0.1578826904296875;0.4844512939453125
1445509688799;305.3881530761719;-131.74905395507812;-13.429693222045898;0.477569580078125;-1.4131317138671875;0.4256134033203125
1445509688832;305.2408447265625;-129.0704345703125;-12.901116371154785;0.6148681640625;-2.707611083984375;-0.300079345703125
1445509688866;306.6898498535156;-121.35456848144531;-11.884642601013184;1.2817230224609375;-4.4532012939453125;-0.241241455078125
1445509688898;308.990966796875;-112.33577728271484;-11.924079895019531;1.3405609130859375;-14.279464721679688;-4.3011932373046875
1445509688932;305.3631286621094;-107.66844940185547;-12.559142112731934;1.12481689453125;-12.769241333007812;-4.2619781494140625
1445509688972;302.8194274902344;-103.35820007324219;-11.202787399291992;0.8306121826171875;-10.121444702148438;-5.1445770263671875
1445509688998;302.7823486328125;-100.58147430419922;-9.754951477050781;1.3797760009765625;-10.454864501953125;-4.71307373046875
1445509689030;303.9534606933594;-98.06018829345703;-8.280732154846191;4.2237091064453125;-15.534713745117188;-0.7904205322265625
1445509689063;307.43316650390625;-95.29361724853516;-6.409210681915283;3.4784088134765625;-12.59271240234375;-0.064727783203125
1445509689096;307.4398498535156;-95.37448120117188;-5.815885066986084;-0.326568603515625;-17.299911499023438;-1.0453948974609375
1445509689130;307.90679931640625;-95.92743682861328;-6.237411975860596;-4.0727081298828125;-11.376693725585938;2.0142822265625
1445509689166;310.119140625;-99.36746215820312;-5.512279510498047;-5.386810302734375;-11.572830200195312;6.28997802734375
1445509689206;308.8050842285156;-98.2153091430664;-3.4263229370117188;-0.660003662109375;-13.691055297851562;-2.26141357421875
1445509689234;306.3287353515625;-95.32061767578125;-2.7483575344085693;1.24249267578125;-9.552658081054688;-0.77081298828125
1445509689262;303.16729736328125;-90.38289642333984;-1.881537914276123;2.0858612060546875;-8.964248657226562;-0.810028076171875
1445509689294;304.12738037109375;-88.09947204589844;-1.7687619924545288;1.8897247314453125;-7.375579833984375;-3.771636962890625
1445509689327;303.777587890625;-87.10355377197266;-2.115450382232666;1.0267486572265625;-6.5714263916015625;-3.0459442138671875
1445509689367;304.1854248046875;-86.73892211914062;-3.1384360790252686;-0.836517333984375;-6.5714263916015625;-2.2221832275390625
1445509689394;304.11883544921875;-87.1207275390625;-3.6550724506378174;-0.4834747314453125;-6.944091796875;-0.7904205322265625
1445509689426;303.0879821777344;-88.72518157958984;-5.142368316650391;-0.6207733154296875;-7.2186737060546875;-0.4766082763671875
1445509689459;302.5199890136719;-90.77308654785156;-6.7955241203308105;-2.032928466796875;-9.238845825195312;-1.829925537109375
1445509689492;303.6628723144531;-92.18946838378906;-7.238302707672119;-3.0135955810546875;-10.19989013671875;-5.8310394287109375
1445509689524;305.53167724609375;-96.05333709716797;-7.903078079223633;-1.228790283203125;-11.494369506835938;-7.3216400146484375
1445509689558;302.8029479980469;-103.09727478027344;-10.645105361938477;2.73309326171875;-18.359024047851562;-2.5359954833984375
1445509689591;302.0568542480469;-107.89051055908203;-11.94582748413086;3.57647705078125;-19.673110961914062;0.641357421875
1445509689625;302.10595703125;-116.50325012207031;-11.438472747802734;0.6933135986328125;-16.338851928710938;-2.065277099609375
1445509689657;300.73785400390625;-122.10267639160156;-9.3505220413208;2.811553955078125;-12.9261474609375;-0.1627960205078125
1445509689690;300.37213134765625;-124.17549896240234;-8.689825057983398;3.615692138671875;-8.94464111328125;0.445220947265625
1445509689723;300.9205627441406;-126.31851196289062;-7.670663833618164;1.928955078125;-3.7667236328125;0.8571014404296875
1445509689758;300.12164306640625;-124.47080993652344;-7.7471089363098145;0.595245361328125;-2.079986572265625;0.7001953125
1445509689791;299.5415954589844;-122.38291931152344;-7.825315475463867;0.22259521484375;-2.00152587890625;0.4256134033203125
1445509689822;299.2752380371094;-116.42182159423828;-7.6253275871276855;0.4579620361328125;-2.9233551025390625;0.7001953125
1445509689855;300.0328063964844;-112.70320892333984;-7.410534381866455;0.242218017578125;-13.298797607421875;-2.1633453369140625
1445509689888;296.2969055175781;-104.50176239013672;-7.910309791564941;1.497467041015625;-15.201278686523438;-6.5959625244140625
1445509689921;290.9642333984375;-100.97109985351562;-7.377017021179199;0.5756378173828125;-10.670608520507812;-3.7324066162109375
1445509689954;291.3706359863281;-98.6377182006836;-5.96569299697876;0.2618255615234375;-8.905410766601562;-2.281036376953125
1445509689988;295.580322265625;-94.1861572265625;-2.4596338272094727;2.5369720458984375;-9.493820190429688;1.523956298828125
1445509690020;299.330078125;-91.11229705810547;-2.7350456714630127;8.950515747070312;-19.104324340820312;-10.989334106445312
1445509690052;293.7978515625;-90.15617370605469;-4.838533401489258;-3.8177490234375;-13.377243041992188;1.44549560546875
1445509690086;298.4437255859375;-92.17664337158203;-5.531639099121094;-7.4854278564453125;-10.062606811523438;1.641632080078125
1445509690119;305.7748718261719;-94.71866607666016;-2.127570152282715;-2.7782440185546875;-14.181396484375;1.6612396240234375
1445509690151;304.062744140625;-95.21015167236328;-1.3765965700149536;-1.5622100830078125;-10.356796264648438;0.13140869140625
1445509690185;298.8667907714844;-93.5162124633789;-1.036957859992981;0.536407470703125;-8.454315185546875;-1.4768829345703125
1445509690218;298.887939453125;-93.03555297851562;-1.38401460647583;2.301605224609375;-6.944091796875;-3.202850341796875
1445509690252;298.7570495605469;-92.8125228881836;-1.7178690433502197;1.36016845703125;-5.551544189453125;-3.3205413818359375
1445509690284;299.86090087890625;-92.00086212158203;-2.068321466445923;-1.3856964111328125;-8.611221313476562;-3.908935546875
1445509690317;301.02679443359375;-91.87711334228516;-1.9463634490966797;-1.405303955078125;-10.435256958007812;-5.7722015380859375
1445509690350;302.66168212890625;-93.5833511352539;-2.3858187198638916;-0.718841552734375;-8.5523681640625;-6.7724761962890625
1445509690384;303.0274963378906;-98.73663330078125;-4.661007881164551;0.654083251953125;-10.5921630859375;-6.0860137939453125
1445509690416;302.95947265625;-102.97622680664062;-5.991708278656006;1.47784423828125;-13.691055297851562;-3.144012451171875
1445509690450;303.0564270019531;-113.76142120361328;-8.763372421264648;-0.032379150390625;-21.536376953125;-0.751190185546875
1445509690483;301.46746826171875;-121.93110656738281;-8.026243209838867;2.164306640625;-16.495758056640625;-1.9083709716796875
1445509690516;300.547607421875;-125.2395248413086;-7.566380977630615;5.5770263671875;-12.121994018554688;-1.202301025390625
1445509690548;301.183349609375;-130.93101501464844;-6.8529887199401855;2.5958099365234375;-5.47308349609375;-1.1042327880859375
1445509690581;301.9326171875;-132.0697784423828;-6.219173908233643;1.1444244384765625;-4.4532012939453125;-0.7904205322265625
1445509690614;301.52301025390625;-131.71717834472656;-5.6334052085876465;1.615142822265625;-3.5117645263671875;0.1510162353515625
1445509690647;300.80902099609375;-127.67424774169922;-4.900267124176025;1.1444244384765625;-2.4134063720703125;-0.692352294921875
1445509690681;301.342529296875;-124.69840240478516;-4.436516284942627;0.7129364013671875;-3.8647918701171875;-0.0843353271484375
1445509690713;303.7272033691406;-117.11774444580078;-4.088916778564453;0.7521514892578125;-5.3161773681640625;-0.0254974365234375
1445509690749;303.2331848144531;-107.46196746826172;-5.466254711151123;-1.5033721923828125;-14.789398193359375;-4.2423553466796875
1445509690781;298.8096008300781;-103.8302993774414;-5.895888805389404;-0.032379150390625;-15.220901489257812;-7.3412628173828125
1445509690817;292.860595703125;-99.05103302001953;-5.028014659881592;1.673980712890625;-9.650726318359375;-4.0658416748046875
1445509690847;297.6818542480469;-94.5230484008789;-2.5470223426818848;8.519027709960938;-18.849365234375;-2.4967803955078125
1445509690878;301.3513488769531;-93.6738052368164;-2.737230062484741;7.51873779296875;-14.632492065429688;2.6222991943359375
1445509690912;303.13458251953125;-94.82608795166016;-4.684506893157959;-3.111663818359375;-18.986648559570312;-4.8896026611328125
1445509690949;301.53955078125;-96.66433715820312;-5.5647172927856445;-9.28985595703125;-9.611495971679688;5.9565582275390625
1445509690982;302.19915771484375;-98.25027465820312;-4.137834548950195;-7.7404022216796875;-11.710113525390625;5.6427459716796875
1445509691010;303.6499328613281;-97.28558349609375;-1.9904613494873047;0.1441497802734375;-13.514541625976562;0.7786407470703125
1445509691044;303.4493103027344;-95.30652618408203;-1.2473832368850708;1.556304931640625;-10.690231323242188;-2.7321319580078125
1445509691076;300.09100341796875;-90.45845794677734;-0.7528178095817566;3.831451416015625;-7.944366455078125;-3.3793792724609375
1445509691110;299.81756591796875;-87.82681274414062;-1.4270116090774536;-0.405029296875;-7.74822998046875;-4.340423583984375
1445509691145;299.73895263671875;-86.98390197753906;-1.8956704139709473;-2.366363525390625;-6.9636993408203125;-3.7520294189453125
1445509691176;298.3278503417969;-86.66534423828125;-2.0373950004577637;-2.993988037109375;-6.72833251953125;-3.1832427978515625
1445509691208;297.3867492675781;-87.73589324951172;-2.337383985519409;0.6148681640625;-7.0029296875;-0.182403564453125
1445509691241;296.8853454589844;-88.42986297607422;-2.8979904651641846;1.1444244384765625;-8.003204345703125;-1.1042327880859375
1445509691275;297.60198974609375;-90.6816177368164;-4.231587886810303;-1.03265380859375;-9.591873168945312;-4.163909912109375
1445509691307;298.69378662109375;-94.8434829711914;-5.608632564544678;-0.5619354248046875;-9.729171752929688;-5.595672607421875
1445509691340;298.03985595703125;-98.0186996459961;-6.765385150909424;-0.2481231689453125;-10.160659790039062;-4.6934661865234375
1445509691373;294.6636657714844;-105.24650573730469;-10.200443267822266;0.1441497802734375;-21.693283081054688;0.07257080078125
1445509691406;293.0697021484375;-112.6700210571289;-10.654017448425293;0.6148681640625;-16.025039672851562;-3.0459442138671875
1445509691439;292.5400085449219;-115.3913345336914;-9.193543434143066;2.0858612060546875;-16.378082275390625;-3.51666259765625
1445509691472;288.358642578125;-118.42158508300781;-9.00479507446289;4.89056396484375;-7.1990509033203125;0.19024658203125
1445509691505;287.46624755859375;-119.48522186279297;-9.06938362121582;1.75244140625;-3.3548583984375;0.0333404541015625
1445509691538;287.25079345703125;-119.87692260742188;-8.255363464355469;0.5167999267578125;-4.1786041259765625;0.7786407470703125
1445509691571;286.99639892578125;-117.29364013671875;-7.355639457702637;1.791656494140625;-5.5711517333984375;0.3471527099609375
1445509691604;287.0057678222656;-115.34392547607422;-6.923141002655029;2.164306640625;-4.963134765625;0.24908447265625
1445509691637;287.3971862792969;-110.64413452148438;-6.045710563659668;2.3408355712890625;-4.472808837890625;-1.457275390625
1445509691670;286.87353515625;-105.57719421386719;-6.0500874519348145;-0.1696624755859375;-9.807632446289062;-4.41888427734375
1445509691703;286.8974304199219;-103.75060272216797;-5.798800945281982;0.0656890869140625;-12.455429077148438;-7.3216400146484375
1445509691736;287.87799072265625;-102.11307525634766;-4.455599308013916;-0.208892822265625;-11.10211181640625;-8.596511840820312
1445509691770;287.18646240234375;-99.08158111572266;-2.8164632320404053;1.6935882568359375;-8.611221313476562;-3.22247314453125
1445509691802;288.97210693359375;-97.54006958007812;-1.7794376611709595;3.63531494140625;-9.356521606445312;-3.3597564697265625
1445509691836;292.263427734375;-96.38906860351562;-1.174830436706543;6.518463134765625;-18.476699829101562;0.07257080078125
1445509691868;293.0062255859375;-96.25769805908203;-1.652410864830017;-0.287353515625;-12.65155029296875;6.4468841552734375
1445509691902;294.35137939453125;-95.23047637939453;-1.475142240524292;-1.915252685546875;-15.4954833984375;6.7803192138671875
1445509691936;294.6915283203125;-93.8167724609375;-1.3488513231277466;-3.7785186767578125;-14.4755859375;2.720367431640625
1445509691968;293.5960693359375;-93.92198944091797;-0.536507248878479;-5.4064178466796875;-11.945480346679688;3.2303009033203125
1445509692001;293.6416320800781;-92.23223114013672;1.756299614906311;-0.5619354248046875;-11.965087890625;4.779754638671875
1445509692033;302.3140563964844;-86.94926452636719;3.6977977752685547;3.3411102294921875;-9.944915771484375;-5.1249542236328125
1445509692066;306.15838623046875;-84.27435302734375;3.7551767826080322;3.7137603759765625;-9.376129150390625;-3.28131103515625
1445509692100;309.7044372558594;-81.70403289794922;2.113647699356079;-1.6014404296875;-8.4346923828125;-0.0254974365234375
1445509692132;312.02655029296875;-80.16342163085938;0.11848849058151245;-4.3276824951171875;-8.042434692382812;1.759307861328125
1445509692166;312.298583984375;-79.0837173461914;-0.699251115322113;-4.308074951171875;-7.80706787109375;1.50433349609375
1445509692199;312.296630859375;-75.93486785888672;-1.8311474323272705;-0.6796112060546875;-9.533035278320312;-0.574676513671875
1445509692231;312.5418701171875;-74.59109497070312;-2.3735837936401367;-1.7583465576171875;-13.141891479492188;-2.0456695556640625
1445509692265;312.9461364746094;-73.30594635009766;-3.873936653137207;-5.504486083984375;-13.141891479492188;-3.1047821044921875
1445509692298;311.7207336425781;-74.31181335449219;-4.055988788604736;-4.484588623046875;-17.535263061523438;-4.163909912109375
1445509692332;310.19158935546875;-75.70787048339844;-3.30348539352417;-1.8367919921875;-14.828628540039062;-6.046783447265625
1445509692364;306.21051025390625;-82.61705780029297;-2.0973775386810303;3.498016357421875;-11.690505981445312;1.6024017333984375
1445509692397;303.5979919433594;-92.87371826171875;-1.7166612148284912;3.046905517578125;-15.691619873046875;5.6427459716796875
1445509692429;303.84381103515625;-96.71640014648438;-1.1628751754760742;5.7535552978515625;-19.967315673828125;3.093017578125
1445509692463;305.96527099609375;-104.6317138671875;-0.3074231743812561;0.5167999267578125;-13.083053588867188;-0.8492584228515625
1445509692496;306.23016357421875;-110.00694274902344;0.29204821586608887;-0.91497802734375;-9.709564208984375;2.4850006103515625
1445509692530;305.6231994628906;-112.100341796875;0.7565218210220337;-1.797576904296875;-8.689666748046875;2.2300262451171875
1445509692562;302.0549011230469;-116.82569122314453;1.0869804620742798;-0.9934234619140625;-3.5706024169921875;2.0731201171875
1445509692595;299.91839599609375;-118.7361068725586;0.7120843529701233;2.3996734619140625;0.077484130859375;2.661529541015625
1445509692627;297.7576904296875;-121.13053894042969;0.1386888325214386;3.1449737548828125;0.2147674560546875;3.0537872314453125
1445509692661;299.2557373046875;-119.21871185302734;0.48427814245224;2.2819976806640625;-2.079986572265625;1.2297515869140625
1445509692695;300.26593017578125;-117.119384765625;0.17678777873516083;1.438629150390625;-4.021697998046875;-0.5942840576171875
1445509692726;301.6421813964844;-113.10456085205078;-1.0455567836761475;-0.34619140625;-12.063156127929688;-5.8310394287109375
1445509692760;301.958984375;-109.9747314453125;-1.6630635261535645;-0.836517333984375;-10.847137451171875;-3.2420806884765625
1445509692793;300.203369140625;-108.35467529296875;-2.09572696685791;-0.405029296875;-9.533035278320312;-2.4967803955078125
1445509692825;298.4211120605469;-106.00584411621094;-2.2254014015197754;1.438629150390625;-8.82696533203125;-1.378814697265625
1445509692858;299.0138244628906;-104.6817855834961;-1.6384304761886597;1.18365478515625;-9.356521606445312;-2.2221832275390625
1445509692891;297.10516357421875;-101.47628784179688;-0.5429057478904724;0.987518310546875;-11.239395141601562;-6.6940155029296875
1445509692924;294.5607604980469;-98.71017456054688;0.10794949531555176;4.459075927734375;-14.044097900390625;4.1325225830078125
1445509692957;298.38525390625;-97.02305603027344;0.8159704804420471;6.518463134765625;-18.829742431640625;4.3090362548828125
1445509692990;296.77490234375;-95.77262878417969;-0.2441595047712326;-4.249237060546875;-7.1009979248046875;4.720916748046875
1445509693023;297.87420654296875;-97.3027114868164;-0.3617275059223175;-8.09344482421875;-7.1009979248046875;11.742477416992188
1445509693058;299.3732604980469;-98.41271209716797;0.24236144125461578;-4.994537353515625;-15.573944091796875;7.9178924560546875
1445509693089;302.2408752441406;-96.53951263427734;2.0420525074005127;1.928955078125;-12.455429077148438;-3.16363525390625
1445509693122;302.3362121582031;-90.783447265625;2.8476877212524414;2.2231597900390625;-7.9835968017578125;-1.51611328125
1445509693156;303.478271484375;-89.55204010009766;2.4121639728546143;0.359893798828125;-7.1598358154296875;-1.96722412109375
1445509693189;302.2553405761719;-88.7437744140625;1.3740226030349731;-2.719390869140625;-8.101272583007812;-1.947601318359375
1445509693221;298.6864013671875;-88.72354888916016;0.9872485399246216;-4.425750732421875;-7.9051361083984375;-4.3011932373046875
1445509693253;297.6969909667969;-89.16141510009766;1.0924336910247803;-2.032928466796875;-7.3363494873046875;-2.5948486328125
1445509693287;297.76116943359375;-90.72865295410156;0.10158204287290573;1.5170745849609375;-6.238006591796875;0.111785888671875
1445509693325;296.8967590332031;-92.9508056640625;-1.9794564247131348;0.6344757080078125;-9.670333862304688;-2.9478759765625
1445509693352;297.0313720703125;-94.2130126953125;-2.991347551345825;0.6344757080078125;-9.670333862304688;-2.9478759765625
1445509693386;299.2077331542969;-97.92963409423828;-4.118964672088623;-1.03265380859375;-10.8863525390625;-6.2821502685546875
1445509693420;298.3684997558594;-101.09530639648438;-5.1114182472229;0.595245361328125;-13.887191772460938;-2.281036376953125
1445509693452;296.24676513671875;-109.83618927001953;-7.977095603942871;1.1444244384765625;-19.692733764648438;-1.829925537109375
1445509693485;294.1872253417969;-117.86314392089844;-8.718399047851562;1.556304931640625;-17.456817626953125;0.1706390380859375
1445509693518;293.73089599609375;-121.19113159179688;-8.127033233642578;6.4203948974609375;-13.318405151367188;-1.5357208251953125
1445509693552;294.273193359375;-125.69155883789062;-7.470179557800293;3.6549224853515625;-8.650436401367188;-0.3589324951171875
1445509693585;295.1241455078125;-126.35865783691406;-5.92869234085083;0.7717742919921875;-4.845458984375;0.562896728515625
1445509693617;294.94989013671875;-124.97620391845703;-5.193728923797607;1.3405609130859375;-3.394073486328125;1.38665771484375
1445509693650;295.5827331542969;-120.29243469238281;-3.775090456008911;1.2621002197265625;-3.2960052490234375;0.0921783447265625
1445509693683;296.6950378417969;-117.24507141113281;-3.2402985095977783;0.928680419921875;-5.6888275146484375;-0.7119598388671875
1445509693717;298.5269775390625;-110.07572174072266;-3.471421003341675;1.046356201171875;-8.081649780273438;-1.4180450439453125
1445509693749;296.26080322265625;-103.68548583984375;-4.381803512573242;0.7325439453125;-12.35736083984375;-7.243194580078125
1445509693782;294.1074523925781;-102.75599670410156;-4.803385257720947;-0.4638671875;-10.08221435546875;-5.73297119140625
1445509693815;294.3977966308594;-101.18669891357422;-3.4302778244018555;-0.091217041015625;-9.984146118164062;-3.6931915283203125
1445509693848;298.7004089355469;-96.53267669677734;-0.3844127655029297;3.2038116455078125;-11.043258666992188;-2.2418060302734375
1445509693882;300.3680725097656;-94.94254302978516;0.3361462652683258;3.831451416015625;-13.592987060546875;-1.771087646484375
1445509693915;297.7164611816406;-93.26130676269531;-0.30370065569877625;3.57647705078125;-14.338302612304688;0.8571014404296875
1445509693947;296.451416015625;-92.4383316040039;-1.2529784440994263;0.3206634521484375;-29.22479248046875;-4.340423583984375
1445509693981;298.1290283203125;-91.46790313720703;-1.6407451629638672;-7.524658203125;-13.55377197265625;-0.6531219482421875
1445509694014;300.0240478515625;-92.25629425048828;-1.08774733543396;-6.4851531982421875;-6.6498870849609375;9.918441772460938
1445509694046;302.6652526855469;-92.00408172607422;1.2036532163619995;-1.0718841552734375;-11.39630126953125;6.3880462646484375
1445509694080;303.67193603515625;-90.15544891357422;2.203815460205078;2.43890380859375;-12.41619873046875;-0.633514404296875
1445509694115;299.7195739746094;-85.45435333251953;3.304386854171753;5.1847686767578125;-9.238845825195312;-4.399261474609375
1445509694146;297.40582275390625;-83.31002807617188;2.7353122234344482;1.41900634765625;-9.00347900390625;-3.791259765625
1445509694179;297.3045349121094;-82.67210388183594;0.7947965264320374;-4.249237060546875;-9.846847534179688;-3.3793792724609375
1445509694215;296.79583740234375;-83.71099853515625;0.5430064797401428;-3.9746551513671875;-11.023651123046875;-7.3216400146484375
1445509694244;296.28192138671875;-85.45960235595703;0.6813769340515137;-1.346466064453125;-11.847412109375;-8.929931640625
1445509694277;295.44793701171875;-93.35157012939453;-1.0447626113891602;3.0861358642578125;-9.45458984375;0.8374786376953125
1445509694310;297.1522216796875;-103.59304809570312;-5.124843597412109;1.9485626220703125;-6.61065673828125;5.8977203369140625
1445509694342;298.82952880859375;-108.4652099609375;-6.077847003936768;0.6737060546875;-6.3360748291015625;4.0736846923828125
1445509694376;295.88140869140625;-117.63575744628906;-5.81754207611084;-2.719390869140625;-0.765899658203125;4.1128997802734375
1445509694409;294.3681945800781;-120.6640853881836;-5.2721757888793945;-0.4442596435546875;-0.942413330078125;3.014556884765625
1445509694443;292.1936340332031;-125.10259246826172;-5.233086109161377;0.359893798828125;-4.1197662353515625;2.6222991943359375
1445509694474;294.32257080078125;-124.64995574951172;-5.360350131988525;0.6737060546875;-10.239120483398438;-0.77081298828125
1445509694509;296.68994140625;-122.40921020507812;-5.360025882720947;2.7723236083984375;-19.810409545898438;-10.283248901367188
1445509694542;298.45294189453125;-115.88450622558594;-5.730006217956543;3.0076904296875;-23.556549072265625;-10.0675048828125
1445509694574;293.92816162109375;-106.86299133300781;-4.342706680297852;0.301055908203125;-11.21978759765625;-3.7324066162109375
1445509694608;291.5890808105469;-103.3708724975586;-3.459726572036743;-0.3069610595703125;-10.925582885742188;-3.57550048828125
1445509694641;287.49945068359375;-98.2627182006836;-0.9766004681587219;5.3416748046875;-16.24078369140625;-0.751190185546875
1445509694673;292.032470703125;-93.91046142578125;0.5023361444473267;11.539474487304688;-24.144943237304688;2.896881103515625
1445509694706;295.3134765625;-92.18794250488281;0.5298919081687927;5.9889068603515625;-22.203231811523438;-14.147079467773438
1445509694739;290.6968994140625;-90.94800567626953;-1.3680956363677979;-7.5442657470703125;-7.3363494873046875;6.7410888671875
1445509694772;292.0702819824219;-91.81120300292969;-2.0056848526000977;-11.604217529296875;-5.41424560546875;9.545791625976562
1445509694805;297.6982727050781;-92.39746856689453;1.1723301410675049;-3.4450836181640625;-8.179718017578125;2.975341796875
1445509694837;297.7686462402344;-89.56198120117188;2.5308871269226074;1.9485626220703125;-11.259017944335938;-0.1431732177734375
1445509694873;296.20849609375;-88.11860656738281;2.730792284011841;4.243316650390625;-10.180282592773438;-6.6548004150390625
1445509694905;288.271728515625;-85.68661499023438;2.1608104705810547;3.831451416015625;-8.1993408203125;-3.1244049072265625
1445509694937;289.3101806640625;-84.93272399902344;0.7365589141845703;-0.8169097900390625;-8.513153076171875;-0.9865570068359375
1445509694969;289.66998291015625;-84.49650573730469;0.3546820282936096;-3.3862457275390625;-9.846847534179688;0.0921783447265625
1445509695005;289.0209655761719;-85.08108520507812;0.8514382839202881;-6.014434814453125;-12.886917114257812;-5.4583892822265625
1445509695037;291.0177307128906;-88.05574035644531;1.5873852968215942;0.242218017578125;-11.415924072265625;-7.694305419921875
1445509695071;290.75616455078125;-92.098388671875;0.7078099846839905;2.870391845703125;-11.90625;-6.3017578125
1445509695102;291.810791015625;-103.1113052368164;-2.4017093181610107;3.0076904296875;-10.415634155273438;1.21014404296875
1445509695136;290.86212158203125;-112.88917541503906;-4.899571418762207;-4.3473052978515625;-1.6681060791015625;6.7803192138671875
1445509695169;288.35003662109375;-117.18790435791016;-5.467258453369141;-2.366363525390625;1.99957275390625;5.2112579345703125
1445509695201;285.54248046875;-124.23567962646484;-6.711477756500244;1.3993988037109375;-2.256500244140625;3.524505615234375
1445509695233;288.20831298828125;-125.86510467529297;-5.606983661651611;1.791656494140625;-13.867584228515625;0.9747772216796875
1445509695267;291.46954345703125;-124.19609832763672;-4.641518592834473;0.9678955078125;-13.84796142578125;0.1510162353515625
1445509695300;294.82037353515625;-117.66089630126953;-3.7849748134613037;1.98779296875;-11.10211181640625;-4.9876708984375
1445509695336;293.2809143066406;-109.99942779541016;-4.0518717765808105;2.988067626953125;-19.731948852539062;-9.420272827148438
1445509695367;290.69488525390625;-106.68849182128906;-4.401670932769775;2.066253662109375;-15.593551635742188;-6.105621337890625
1445509695399;289.2202453613281;-101.89599609375;-3.274238109588623;1.0855865478515625;-11.141326904296875;-7.125518798828125
1445509695432;289.02386474609375;-99.42919921875;-2.1340787410736084;1.811279296875;-10.101821899414062;-5.7133636474609375
1445509695466;291.14373779296875;-95.82709503173828;0.36024191975593567;3.92950439453125;-15.122833251953125;-0.88848876953125
1445509695498;294.69805908203125;-93.77395629882812;1.0860769748687744;2.49774169921875;-12.749618530273438;-0.300079345703125
1445509695532;293.3575744628906;-93.76683044433594;0.3164049983024597;1.3405609130859375;-18.104049682617188;-1.829925537109375
1445509695564;292.701904296875;-93.30827331542969;0.6877397298812866;-7.07354736328125;-11.435531616210938;1.32781982421875
1445509695597;293.4267578125;-93.20353698730469;2.5212182998657227;-1.3660736083984375;-9.12115478515625;5.99578857421875
1445509695631;293.4538879394531;-92.28817749023438;3.123677968978882;0.9482879638671875;-10.5921630859375;2.975341796875
1445509695664;292.204833984375;-88.99844360351562;3.7691078186035156;1.791656494140625;-10.278350830078125;-1.3984375
1445509695696;289.96527099609375;-86.98633575439453;4.0051798820495605;2.2035369873046875;-9.00347900390625;-2.7909698486328125
1445509695734;288.2783508300781;-83.63774108886719;3.3741114139556885;0.1245269775390625;-8.2581787109375;-1.947601318359375
1445509695764;288.2327880859375;-82.77505493164062;2.366583824157715;-2.3271331787109375;-7.885528564453125;-0.7904205322265625
1445509695795;287.0179443359375;-82.63904571533203;2.206756353378296;-3.111663818359375;-10.31756591796875;-2.7713623046875
1445509695828;285.7261962890625;-83.39568328857422;2.2053568363189697;-0.032379150390625;-13.357635498046875;-5.2622528076171875
1445509695863;286.5390319824219;-87.36886596679688;1.241263747215271;2.1446990966796875;-11.023651123046875;-3.57550048828125
1445509695894;287.6331787109375;-90.4592514038086;0.2441612184047699;0.536407470703125;-9.827239990234375;-4.105072021484375
1445509695927;289.9613342285156;-99.95746612548828;-0.9833120107650757;-0.228515625;-9.493820190429688;1.21014404296875
1445509695960;291.07196044921875;-109.26432037353516;-2.3580286502838135;-2.8762969970703125;-5.0023651123046875;6.6234130859375
1445509695993;289.3824768066406;-112.40345001220703;-2.271672248840332;-1.6014404296875;-0.5305328369140625;2.7399749755859375
1445509696028;286.5145568847656;-116.79133605957031;-1.723074197769165;2.6546478271484375;1.960357666015625;2.0535125732421875
1445509696059;286.4510803222656;-117.7083511352539;-1.8416028022766113;1.673980712890625;-8.454315185546875;2.6811370849609375
1445509696092;289.55438232421875;-116.73475646972656;-1.750812292098999;-1.346466064453125;-16.338851928710938;0.327545166015625
1445509696125;292.3533935546875;-112.46388244628906;-3.383418321609497;1.53668212890625;-18.947418212890625;-7.0274505615234375
1445509696160;292.0179748535156;-110.17647552490234;-3.36940598487854;2.752716064453125;-17.574493408203125;-9.49871826171875
1445509696191;288.9405822753906;-106.17176818847656;-1.8069154024124146;1.673980712890625;-10.376419067382812;-3.771636962890625
1445509696224;289.0775451660156;-100.9135513305664;0.17176073789596558;0.8306121826171875;-11.90625;-3.28131103515625
1445509696258;289.7975769042969;-98.0613784790039;1.2390433549880981;2.419281005859375;-12.71038818359375;-1.947601318359375
1445509696291;290.2716979980469;-93.5621566772461;2.6978132724761963;4.7924957275390625;-15.966201782226562;-3.6931915283203125
1445509696323;289.5843505859375;-90.83866119384766;3.1210954189300537;3.3607330322265625;-12.631942749023438;-1.771087646484375
1445509696356;291.64739990234375;-90.61862182617188;2.8443777561187744;1.046356201171875;-9.886077880859375;-0.4962158203125
1445509696389;294.0982666015625;-90.85307312011719;1.245012640953064;-5.1318359375;-17.633331298828125;4.485565185546875
1445509696423;293.91632080078125;-91.16934204101562;0.9797512888908386;-8.9564208984375;-13.063430786132812;3.289154052734375
1445509696456;294.4626770019531;-90.65161895751953;3.2376749515533447;-2.3271331787109375;-9.591873168945312;4.5836181640625
1445509696488;294.85614013671875;-88.30840301513672;4.793643474578857;1.5170745849609375;-10.631378173828125;0.935546875
1445509696525;294.5146484375;-84.93680572509766;4.889036178588867;5.3416748046875;-10.042984008789062;-4.08544921875
1445509696555;294.136474609375;-83.49008178710938;4.337283134460449;3.949127197265625;-9.395751953125;-1.457275390625
1445509696587;295.4781188964844;-82.26028442382812;2.6415038108825684;-3.8177490234375;-10.396026611328125;-1.3984375
1445509696621;295.6712646484375;-82.33438110351562;2.3057940006256104;-4.44537353515625;-11.376693725585938;-1.51611328125
1445509696656;296.5922546386719;-83.64911651611328;2.453662157058716;-3.111663818359375;-14.083328247070312;-6.98822021484375
1445509696692;299.61297607421875;-90.71647644042969;2.3142688274383545;2.0270233154296875;-15.04437255859375;-11.067794799804688
1445509696720;300.3804016113281;-96.06377410888672;1.52786386013031;2.0270233154296875;-15.04437255859375;-11.067794799804688
1445509696752;301.3406066894531;-105.66220092773438;-0.8558818697929382;-0.836517333984375;-3.5509796142578125;14.017623901367188
1445509696785;301.33428955078125;-109.38523864746094;-1.315371036529541;3.81182861328125;3.3136749267578125;1.9162139892578125
1445509696818;302.953857421875;-111.22836303710938;0.5104353427886963;5.5181884765625;2.705657958984375;-0.064727783203125
1445509696851;308.540283203125;-108.7491226196289;2.150834798812866;2.2819976806640625;-3.4725341796875;1.6220245361328125
1445509696885;312.069091796875;-106.78589630126953;2.7029740810394287;0.3991241455078125;-3.4136962890625;3.3087615966796875
1445509696917;314.6355285644531;-102.68968963623047;2.3561604022979736;-4.5238189697265625;-3.452911376953125;1.6808624267578125
1445509696951;321.7449951171875;-100.85110473632812;4.830665588378906;-6.583221435546875;-29.067886352539062;-15.30426025390625
1445509696984;323.9718933105469;-100.98162841796875;4.995894908905029;-6.6028289794921875;-21.065658569335938;-14.009780883789062
1445509697016;319.9194030761719;-99.4434585571289;5.437424182891846;-1.111114501953125;-10.788284301757812;-1.2415313720703125
1445509697049;320.0030212402344;-97.84619903564453;6.415839672088623;-0.6992340087890625;-12.788848876953125;-3.57550048828125
1445509697082;320.77923583984375;-96.18474578857422;7.2985520362854;0.4971771240234375;-11.965087890625;-1.5357208251953125
1445509697116;322.05694580078125;-92.97451782226562;8.744094848632812;5.5377960205078125;-13.90679931640625;-3.144012451171875
1445509697150;323.4729309082031;-89.35784149169922;8.24334716796875;5.263214111328125;-15.397415161132812;-0.82965087890625
1445509697182;324.55535888671875;-87.98357391357422;7.86767053604126;1.53668212890625;-16.907638549804688;1.641632080078125
1445509697214;329.51324462890625;-86.16851806640625;7.8538031578063965;-0.34619140625;-18.437484741210938;7.54522705078125
1445509697248;334.7013854980469;-84.71772003173828;8.519108772277832;-2.0133209228515625;-10.7686767578125;9.52618408203125
1445509697281;339.8593444824219;-83.17729949951172;8.704277038574219;0.0068511962890625;-9.278060913085938;10.447998046875
1445509697313;352.2635498046875;-79.93988800048828;8.375177383422852;3.949127197265625;-9.650726318359375;4.6424713134765625
1445509697347;358.30181884765625;-78.53944396972656;7.503965377807617;-0.3657989501953125;-7.7286224365234375;5.3877716064453125
1445509697381;5.501220703125;-77.79067993164062;5.050068378448486;-4.9749298095703125;-7.3363494873046875;8.780868530273438
1445509697413;10.952423095703125;-77.26490783691406;3.9784388542175293;-12.702560424804688;-7.86590576171875;4.269805908203125
1445509697448;16.247802734375;-76.58580017089844;3.738675355911255;-8.8387451171875;-7.0029296875;-2.20257568359375
1445509697479;26.4970703125;-75.61294555664062;3.0455844402313232;-5.8575286865234375;-7.6501617431640625;0.327545166015625
1445509697514;36.4761962890625;-75.21183776855469;2.4125893115997314;-2.1309967041015625;-11.827789306640625;-1.947601318359375
1445509697544;41.082977294921875;-74.83943939208984;1.910882830619812;-1.6210479736328125;-12.063156127929688;-6.3409881591796875
1445509697581;48.81390380859375;-75.39546203613281;0.7348306775093079;-3.1901092529296875;-14.299072265625;-6.6940155029296875
1445509697612;53.40087890625;-81.43293762207031;1.018180251121521;2.8507843017578125;-17.123382568359375;-5.55645751953125
1445509697647;55.461395263671875;-85.91268920898438;0.6319983005523682;5.322052001953125;-16.29962158203125;-3.7324066162109375
1445509697677;59.720733642578125;-96.4189682006836;-1.7291080951690674;5.145538330078125;-16.319244384765625;0.896331787109375
1445509697710;62.280120849609375;-100.85523223876953;-2.0870895385742188;-1.287628173828125;-13.985260009765625;2.3084869384765625
1445509697742;62.100677490234375;-106.7624740600586;-2.523691415786743;-4.1707763671875;-14.35791015625;1.1709136962890625
1445509697775;59.094207763671875;-113.02432250976562;-3.7367916107177734;1.5955352783203125;-10.866744995117188;-4.71307373046875
1445509697809;58.191925048828125;-117.03829193115234;-5.920827865600586;3.6745452880859375;-10.572540283203125;-2.2418060302734375
1445509697842;54.73309326171875;-123.81787109375;-11.219837188720703;3.949127197265625;-9.552658081054688;-1.75146484375
1445509697875;52.794219970703125;-130.1115264892578;-14.310848236083984;0.0853118896484375;-3.786346435546875;-2.5359954833984375
1445509697907;52.89605712890625;-132.8245391845703;-15.581439018249512;1.0267486572265625;-0.9031829833984375;-2.1633453369140625
1445509697940;52.95465087890625;-136.34190368652344;-18.475383758544922;1.6935882568359375;-1.9819183349609375;-1.6337890625
1445509697974;53.146942138671875;-137.81427001953125;-19.47600746154785;3.321502685546875;-2.4134063720703125;-2.5556182861328125
1445509698005;53.391510009765625;-137.7460479736328;-19.238054275512695;3.3411102294921875;-2.079986572265625;-3.0655670166015625
1445509698040;54.046875;-136.44964599609375;-18.201160430908203;3.7137603759765625;-2.393798828125;-3.771636962890625
1445509698073;54.76202392578125;-135.3723907470703;-17.324575424194336;5.5181884765625;-3.9432525634765625;-6.046783447265625
1445509698106;57.397613525390625;-131.9237823486328;-15.167440414428711;7.9502410888671875;-17.927536010742188;-10.145965576171875
1445509698138;58.584503173828125;-130.1962890625;-14.826241493225098;1.673980712890625;-8.728897094726562;-3.3009185791015625
1445509698171;60.22576904296875;-126.66217803955078;-12.721579551696777;1.98779296875;-2.6291656494140625;-1.4768829345703125
1445509698204;66.62115478515625;-121.8470458984375;-7.577114105224609;3.3999481201171875;-7.5128631591796875;-3.653961181640625
1445509698237;70.7529296875;-119.55921936035156;-5.654611587524414;0.9678955078125;-16.260406494140625;-3.22247314453125
1445509698271;79.91522216796875;-115.4682388305664;-3.4277613162994385;-0.4246368408203125;-14.318679809570312;-2.457550048828125
1445509698303;88.18966674804688;-111.04195404052734;-1.9057164192199707;-0.777679443359375;-9.984146118164062;0.24908447265625
1445509698337;91.89788818359375;-108.61494445800781;-1.2295198440551758;-4.2296142578125;-13.024200439453125;-2.32025146484375
1445509698369;98.97332763671875;-103.2835693359375;-0.4715496003627777;-6.249786376953125;-14.612884521484375;-3.51666259765625
1445509698402;103.76849365234375;-98.7743148803711;0.22901687026023865;-4.4061431884765625;-9.493820190429688;-1.1042327880859375
1445509698436;105.50119018554688;-97.30252075195312;0.7411012649536133;-3.60198974609375;-8.94464111328125;-0.868865966796875
1445509698468;111.5728759765625;-94.15580749511719;2.4236433506011963;0.9678955078125;-7.9639739990234375;-1.7906951904296875
1445509698502;117.3687744140625;-90.44974517822266;2.702929735183716;-2.0133209228515625;-7.9835968017578125;-0.2020263671875
1445509698534;118.51141357421875;-88.89855194091797;2.5600638389587402;-2.1309967041015625;-8.238555908203125;-0.77081298828125
1445509698568;121.14399719238281;-86.01214599609375;1.8057740926742554;-1.6014404296875;-9.944915771484375;-0.9865570068359375
1445509698601;122.69038391113281;-82.74429321289062;0.5575076341629028;-3.0724334716796875;-10.984420776367188;-3.6931915283203125
1445509698633;122.60746765136719;-80.79078674316406;0.12323035299777985;-2.935150146484375;-11.90625;-4.53656005859375
1445509698667;122.03483581542969;-77.2262954711914;-0.6845344305038452;-0.326568603515625;-17.751007080078125;-5.55645751953125
1445509698700;120.81759643554688;-75.02592468261719;-1.8256051540374756;-4.1511688232421875;-16.476150512695312;-3.889312744140625
1445509698733;120.25544738769531;-76.08895111083984;-1.3771942853927612;-1.5818328857421875;-16.417312622070312;-3.2420806884765625
1445509698765;116.96322631835938;-82.75438690185547;0.45108914375305176;2.3408355712890625;-19.006271362304688;1.32781982421875
1445509698799;115.55502319335938;-88.0595932006836;0.5639846324920654;4.576751708984375;-20.947982788085938;3.9363861083984375
1445509698831;116.75349426269531;-97.27579498291016;-0.5185533165931702;2.9096221923828125;-13.985260009765625;2.64190673828125
1445509698865;117.78184509277344;-104.4050521850586;0.64652019739151;-1.974090576171875;-13.122268676757812;2.269256591796875
1445509698898;113.58494567871094;-108.30046844482422;0.2961515188217163;-5.9752044677734375;-13.200729370117188;0.1510162353515625
1445509698931;105.21015930175781;-118.9870834350586;-1.2356188297271729;-2.11138916015625;-7.434417724609375;2.151580810546875
1445509698964;95.82427978515625;-127.9301528930664;-7.67506217956543;1.75244140625;-0.62860107421875;3.1910858154296875
1445509698996;91.86431884765625;-131.51268005371094;-11.264464378356934;2.301605224609375;0.39129638671875;3.60296630859375
1445509699029;87.5953369140625;-135.54412841796875;-15.540325164794922;2.2623748779296875;1.901519775390625;1.9946746826171875
1445509699063;86.82254028320312;-135.78346252441406;-15.926209449768066;3.831451416015625;-0.079437255859375;-4.0070037841796875
1445509699102;87.10256958007812;-132.6211700439453;-14.142565727233887;3.87066650390625;-0.56976318359375;-1.6337890625
1445509699129;89.77017211914062;-125.2303695678711;-9.645231246948242;3.7333831787109375;-11.631668090820312;-1.319976806640625
1445509699162;93.35418701171875;-120.95865631103516;-6.54759407043457;0.359893798828125;-26.322021484375;-6.5175018310546875
1445509699194;101.99642944335938;-112.95640563964844;-2.7032783031463623;-1.0130462646484375;-13.965652465820312;-2.398712158203125
1445509699228;106.96591186523438;-107.09614562988281;-0.2099844068288803;0.2618255615234375;-5.0023651123046875;0.30792236328125
1445509699260;109.28436279296875;-104.34049224853516;-0.00785813294351101;1.36016845703125;-9.258453369140625;1.3670501708984375
1445509699294;114.60772705078125;-98.52523040771484;-1.3490562438964844;-1.4445343017578125;-20.438034057617188;-1.96722412109375
1445509699326;114.67022705078125;-94.15679931640625;-1.5190907716751099;-4.7787933349609375;-11.768951416015625;-1.888763427734375
1445509699359;114.16395568847656;-93.25445556640625;-1.3531248569488525;-3.915802001953125;-10.297958374023438;0.5432891845703125
1445509699392;117.68048095703125;-90.1987075805664;-0.01936529576778412;-0.3069610595703125;-8.866195678710938;-2.1829681396484375
1445509699425;120.07122802734375;-88.77523040771484;0.4152381122112274;3.63531494140625;-7.042144775390625;-0.751190185546875
1445509699457;123.00247192382812;-86.30143737792969;0.3846057057380676;-0.3657989501953125;-7.5128631591796875;0.6609649658203125
1445509699492;123.28150939941406;-83.76617431640625;-0.26925554871559143;-2.17022705078125;-8.689666748046875;-0.123565673828125
1445509699524;124.02932739257812;-82.36644744873047;-0.8416701555252075;-1.2483978271484375;-12.180831909179688;-2.398712158203125
1445509699557;123.94461059570312;-79.82227325439453;-2.0760347843170166;-2.4448089599609375;-12.514266967773438;-2.8694305419921875
1445509699591;122.80047607421875;-77.34613037109375;-3.3479323387145996;-1.287628173828125;-13.867584228515625;-2.9282684326171875
1445509699626;122.65824890136719;-76.25955963134766;-4.142362594604492;-1.522979736328125;-15.4954833984375;-4.1835174560546875
1445509699657;121.03964233398438;-76.09752655029297;-4.329061985015869;1.3993988037109375;-15.3189697265625;-4.3796539306640625
1445509699690;116.70175170898438;-80.18169403076172;-2.821990489959717;0.242218017578125;-14.318679809570312;-4.0658416748046875
1445509699723;114.440185546875;-83.7999267578125;-2.1341300010681152;-0.1892852783203125;-15.730850219726562;-1.319976806640625
1445509699755;111.33050537109375;-92.9452133178711;-1.4562712907791138;0.5560302734375;-16.888031005859375;1.5435638427734375
1445509699789;110.85433959960938;-100.43899536132812;-0.7540370225906372;0.359893798828125;-11.749343872070312;1.6024017333984375
1445509699821;110.36309814453125;-103.67723846435547;-0.1723310500383377;0.1245269775390625;-10.984420776367188;2.661529541015625
1445509699855;104.04205322265625;-109.8206558227539;-0.585517942905426;-0.150054931640625;-11.808181762695312;-0.868865966796875
1445509699888;100.01104736328125;-113.60565948486328;-1.3387569189071655;2.10546875;-8.591598510742188;0.58251953125
1445509699921;91.7447509765625;-124.23600769042969;-4.3214192390441895;3.4195709228515625;-6.2772369384765625;1.1709136962890625
1445509699954;85.37353515625;-131.58860778808594;-8.496662139892578;2.0270233154296875;-2.45263671875;1.700469970703125
1445509699987;83.22250366210938;-133.6744842529297;-10.266508102416992;2.125091552734375;-1.4327545166015625;1.56317138671875
1445509700020;80.67019653320312;-135.25486755371094;-12.16319751739502;4.4002227783203125;0.763946533203125;-2.32025146484375
1445509700052;81.76409912109375;-132.36715698242188;-10.592803001403809;4.7336578369140625;0.430511474609375;-4.222747802734375
1445509700086;82.8934326171875;-129.80935668945312;-9.486384391784668;0.5756378173828125;-11.082489013671875;-3.536285400390625
1445509700117;87.06121826171875;-123.42703247070312;-5.4115705490112305;-0.5619354248046875;-17.025314331054688;0.327545166015625
1445509700151;93.85589599609375;-116.6725082397461;-1.2437111139297485;1.2817230224609375;-11.45513916015625;-2.457550048828125
1445509700184;96.18258666992188;-113.73050689697266;0.09022682905197144;0.9678955078125;-9.00347900390625;-1.4768829345703125
1445509700219;103.01025390625;-107.65884399414062;1.7446436882019043;0.34027099609375;-11.690505981445312;-0.241241455078125
1445509700251;110.79158020019531;-101.1005630493164;1.4326003789901733;-1.287628173828125;-16.06427001953125;-1.96722412109375
1445509700284;112.163818359375;-97.9050064086914;1.832884669303894;-1.6210479736328125;-14.083328247070312;-1.6337890625
1445509700320;111.26715087890625;-94.67613983154297;2.0087621212005615;-3.856964111328125;-11.631668090820312;-1.810302734375
1445509700349;110.164794921875;-93.60713958740234;1.938022494316101;-3.54315185546875;-9.729171752929688;-0.3589324951171875
1445509700383;112.86436462402344;-90.65320587158203;2.8616912364959717;0.5560302734375;-9.12115478515625;-1.084625244140625
1445509700416;116.8489990234375;-87.61113739013672;3.451519012451172;2.0270233154296875;-8.179718017578125;-0.5550537109375
1445509700449;117.18284606933594;-86.3103256225586;3.303328275680542;-0.5619354248046875;-8.297409057617188;-0.4962158203125
1445509700481;118.44430541992188;-83.62589263916016;2.944843292236328;-1.2483978271484375;-9.00347900390625;-0.3197021484375
1445509700515;120.72651672363281;-81.14299011230469;1.8439195156097412;-2.0721588134765625;-10.435256958007812;-0.6727447509765625
1445509700549;120.90335083007812;-80.04608917236328;1.2297332286834717;-2.3271331787109375;-11.16094970703125;-1.4180450439453125
1445509700581;119.66519165039062;-77.86601257324219;0.128464013338089;0.1245269775390625;-12.631942749023438;-2.7713623046875
1445509700613;119.95713806152344;-76.10081481933594;-1.3762702941894531;-1.1895599365234375;-15.534713745117188;-3.261688232421875
1445509700646;119.247314453125;-76.1449966430664;-1.38015615940094;-0.4246368408203125;-15.5543212890625;-2.967498779296875
1445509700680;115.34854125976562;-79.5339126586914;-0.34344446659088135;1.1444244384765625;-15.181671142578125;-4.4384918212890625
1445509700712;112.56103515625;-82.36701202392578;0.1823219507932663;0.8502197265625;-15.3189697265625;-5.2034149169921875
1445509700750;108.25537109375;-91.0307388305664;-0.1575709581375122;0.1833648681640625;-17.515655517578125;0.759033203125
1445509700780;111.0760498046875;-99.21055603027344;1.097591519355774;-0.1892852783203125;-14.318679809570312;2.269256591796875
1445509700811;111.89422607421875;-101.7157974243164;2.150892972946167;0.5560302734375;-12.02392578125;2.3673248291015625
1445509700846;108.10150146484375;-107.58086395263672;2.0022010803222656;-0.150054931640625;-11.239395141601562;0.6609649658203125
1445509700880;99.01214599609375;-116.9097900390625;-0.19561359286308289;-0.287353515625;-8.925033569335938;-0.633514404296875
1445509700911;95.25241088867188;-121.88580322265625;-1.9230952262878418;0.8894500732421875;-6.8264007568359375;0.2686920166015625
1445509700943;88.913818359375;-129.57858276367188;-6.303548812866211;1.3209381103515625;-3.4136962890625;1.2297515869140625
1445509700976;84.85552978515625;-134.15200805664062;-10.037139892578125;2.0270233154296875;-0.707061767578125;0.1510162353515625
1445509701009;83.53677368164062;-135.46070861816406;-11.011780738830566;2.55657958984375;-0.4128570556640625;-2.14373779296875
1445509701042;83.17611694335938;-135.29942321777344;-10.23027515411377;3.498016357421875;-3.08026123046875;-4.4384918212890625
1445509701075;82.697998046875;-133.62716674804688;-9.622529029846191;4.1648712158203125;-10.337188720703125;-5.0072784423828125
1445509701108;82.87185668945312;-128.00405883789062;-6.2712249755859375;1.046356201171875;-14.318679809570312;-3.536285400390625
1445509701141;86.95162963867188;-121.94407653808594;-0.8816072940826416;3.0861358642578125;-12.161224365234375;-2.4183197021484375
1445509701174;89.5445556640625;-118.27336120605469;1.2804784774780273;2.5761871337890625;-9.356521606445312;-1.2219085693359375
1445509701207;95.748046875;-111.46248626708984;3.7620368003845215;1.30133056640625;-10.19989013671875;0.641357421875
1445509701240;104.76657104492188;-103.7023696899414;4.58880090713501;-0.287353515625;-14.495208740234375;-1.5553436279296875
1445509701273;108.35044860839844;-99.75273132324219;4.842961311340332;-0.8169097900390625;-14.181396484375;-1.6533966064453125
1445509701307;111.00065612792969;-93.82965087890625;5.251197338104248;-2.719390869140625;-11.572830200195312;-2.20257568359375
1445509701339;111.2392578125;-91.55398559570312;4.866633892059326;-3.5235443115234375;-10.396026611328125;-0.7904205322265625
1445509701373;113.15530395507812;-90.06126403808594;4.926486492156982;-3.2685699462890625;-9.493820190429688;-1.06500244140625
1445509701406;119.36520385742188;-86.8250961303711;5.408955097198486;1.673980712890625;-8.748504638671875;-2.37908935546875
1445509701438;122.25254821777344;-84.18252563476562;4.822207450866699;-1.464141845703125;-7.7678375244140625;-0.4373779296875
1445509701471;123.25196838378906;-82.9366683959961;4.492260932922363;-2.1309967041015625;-8.395462036132812;-0.182403564453125
1445509701505;125.04168701171875;-80.27265930175781;3.3429789543151855;-2.1309967041015625;-10.003753662109375;-0.6138916015625
1445509701537;124.78451538085938;-78.90451049804688;2.7179269790649414;-1.4445343017578125;-12.41619873046875;-2.1241302490234375
1445509701570;123.95016479492188;-76.09962463378906;1.4493364095687866;-0.326568603515625;-14.92669677734375;-2.2418060302734375
1445509701603;124.001953125;-73.92835998535156;0.25886332988739014;-0.5619354248046875;-17.103775024414062;-3.9873809814453125
1445509701638;123.44618225097656;-73.80176544189453;0.2595224976539612;0.536407470703125;-16.221176147460938;-3.7324066162109375
1445509701669;120.63270568847656;-77.16744995117188;1.2499862909317017;1.8308868408203125;-15.770065307617188;-5.477996826171875
1445509701702;115.66644287109375;-85.04501342773438;1.495631217956543;-0.326568603515625;-17.417587280273438;-3.4970550537109375
1445509701735;113.75245666503906;-90.16449737548828;1.1095294952392578;-1.169952392578125;-17.613723754882812;0.1706390380859375
1445509701769;115.07723999023438;-98.79155731201172;1.983259677886963;-1.8956451416015625;-13.063430786132812;2.8772735595703125
1445509701802;114.157470703125;-104.9408950805664;3.449277639389038;0.026458740234375;-11.572830200195312;1.641632080078125
1445509701834;110.1790771484375;-108.68470764160156;3.276169538497925;-0.1304473876953125;-12.180831909179688;-0.6138916015625
1445509701867;100.04803466796875;-119.20248413085938;0.9119900465011597;-0.660003662109375;-9.06231689453125;1.1709136962890625
1445509701901;95.66082763671875;-124.3722915649414;-1.1784733533859253;1.7132110595703125;-3.8059539794921875;1.759307861328125
1445509701935;89.10906982421875;-132.6476287841797;-6.692312717437744;1.5955352783203125;-2.1584320068359375;2.1319580078125
1445509701967;85.69546508789062;-136.93675231933594;-10.38068962097168;1.8897247314453125;-0.6678314208984375;1.6024017333984375
1445509702000;85.03134155273438;-137.50094604492188;-10.68207836151123;3.0665283203125;-0.39324951171875;-2.9871063232421875
1445509702032;84.42312622070312;-134.9956817626953;-8.96723747253418;3.5372467041015625;-2.00152587890625;-3.9677734375
1445509702065;83.65936279296875;-129.7477569580078;-5.559394359588623;2.49774169921875;-13.573379516601562;-1.8495330810546875
1445509702098;84.87173461914062;-126.78462982177734;-3.025557518005371;3.3999481201171875;-15.04437255859375;0.30792236328125
1445509702131;90.97003173828125;-119.71465301513672;1.3769466876983643;2.55657958984375;-10.278350830078125;-0.5354461669921875
1445509702164;98.06719970703125;-112.53834533691406;3.3018417358398438;0.6933135986328125;-11.33746337890625;0.9747772216796875
1445509702197;102.83810424804688;-108.64518737792969;3.6437013149261475;-0.522705078125;-13.632217407226562;-0.123565673828125
1445509702231;111.90219116210938;-100.34498596191406;3.829061985015869;-2.1898345947265625;-14.80902099609375;-2.0456695556640625
1445509702263;114.05230712890625;-96.66534423828125;4.001153469085693;-3.033203125;-13.200729370117188;-2.339874267578125
1445509702296;115.00230407714844;-92.73329162597656;4.243743419647217;-4.0334930419921875;-10.807907104492188;-0.751190185546875
1445509702330;117.40481567382812;-89.51742553710938;4.6717939376831055;-2.2094573974609375;-9.395751953125;-1.9083709716796875
1445509702363;120.36015319824219;-87.6917724609375;5.2377471923828125;1.5759124755859375;-9.160385131835938;-2.4771575927734375
1445509702397;124.94537353515625;-84.16690826416016;5.33320951461792;1.046356201171875;-8.062042236328125;-1.3003692626953125
1445509702431;126.30523681640625;-81.30101776123047;4.542264461517334;-2.3271331787109375;-9.611495971679688;-0.77081298828125
1445509702464;127.47024536132812;-79.87935638427734;4.08040189743042;-3.36663818359375;-10.866744995117188;-1.829925537109375
1445509702496;127.23797607421875;-76.95851135253906;2.921677350997925;-1.8956451416015625;-12.082763671875;-2.2418060302734375
1445509702530;126.74043273925781;-74.42420959472656;1.0790953636169434;0.5560302734375;-16.672286987304688;-3.4382171630859375
1445509702560;126.69955444335938;-73.36013793945312;0.31078195571899414;0.301055908203125;-16.476150512695312;-4.8896026611328125
1445509702594;126.32958984375;-74.17324829101562;0.5620481967926025;0.654083251953125;-16.633056640625;-5.1053466796875
1445509702626;125.31942749023438;-77.2880859375;1.4205583333969116;0.16375732421875;-16.613449096679688;-7.0274505615234375
1445509702660;119.62380981445312;-87.28731536865234;2.7460923194885254;-1.1895599365234375;-19.084716796875;-2.2418060302734375
1445509702692;121.27444458007812;-97.53294372558594;3.8933703899383545;-1.3072357177734375;-16.534988403320312;3.916778564453125
1445509702726;122.0477294921875;-101.029541015625;4.788967132568359;-0.8757476806640625;-12.376968383789062;6.0742340087890625
1445509702759;115.29185485839844;-108.10095977783203;3.8728175163269043;-0.6796112060546875;-12.043548583984375;0.81787109375
1445509702791;106.99984741210938;-118.19964599609375;1.7002050876617432;0.9482879638671875;-9.101547241210938;0.5432891845703125
1445509702824;103.162109375;-123.77253723144531;-0.07545995712280273;2.0270233154296875;-6.7675628662109375;1.0336151123046875
1445509702857;95.41815185546875;-133.013427734375;-5.938162326812744;0.7717742919921875;-2.4134063720703125;2.720367431640625
1445509702890;91.3106689453125;-138.1480712890625;-10.290902137756348;2.2819976806640625;0.50897216796875;3.0537872314453125
1445509702923;90.84201049804688;-139.10079956054688;-10.739052772521973;3.6549224853515625;1.0973663330078125;1.072845458984375
1445509702956;90.3338623046875;-137.32342529296875;-10.784015655517578;3.2234344482421875;-0.138275146484375;-3.202850341796875
1445509702989;89.82577514648438;-132.07070922851562;-9.247171401977539;2.9684600830078125;-5.845733642578125;-7.94927978515625
1445509703022;90.08648681640625;-128.953369140625;-7.279862880706787;1.9681854248046875;-11.78857421875;-5.8898773193359375
1445509703055;92.1123046875;-122.15865325927734;-2.6067802906036377;4.459075927734375;-15.220901489257812;-5.085723876953125
1445509703089;93.6243896484375;-119.14067840576172;-0.8313639760017395;2.988067626953125;-8.846572875976562;-1.947601318359375
1445509703122;99.21795654296875;-112.7817153930664;1.8076056241989136;3.57647705078125;-10.003753662109375;-0.123565673828125
1445509703155;108.25845336914062;-105.83702087402344;2.216416358947754;0.477569580078125;-12.828079223632812;-0.2216339111328125
1445509703187;113.51904296875;-101.84042358398438;2.9116547107696533;-0.660003662109375;-15.024765014648438;-2.6144561767578125
1445509703223;118.81301879882812;-93.7295150756836;5.283081531524658;-2.091766357421875;-11.435531616210938;-0.4962158203125
1445509703259;119.57254028320312;-89.74809265136719;6.641669273376465;-3.1508941650390625;-7.826690673828125;0.2098541259765625
1445509703286;119.08753967285156;-88.56549835205078;6.573474407196045;-2.719390869140625;-8.395462036132812;1.2885894775390625
1445509703319;121.06900024414062;-84.8454818725586;6.108356475830078;-1.9936981201171875;-9.670333862304688;-0.82965087890625
1445509703352;125.85942077636719;-79.79151916503906;6.278934001922607;0.0656890869140625;-8.042434692382812;-1.202301025390625
1445509703385;127.54570007324219;-77.6131591796875;6.04854154586792;1.164031982421875;-7.9051361083984375;-1.2807464599609375
1445509703425;130.11767578125;-73.51608276367188;4.517953395843506;-0.97381591796875;-8.728897094726562;-2.0456695556640625
1445509703451;131.2184295654297;-71.72489929199219;3.3606138229370117;-3.0920562744140625;-9.572265625;-2.457550048828125
1445509703483;133.95211791992188;-69.07670593261719;1.978216290473938;-5.2887420654296875;-14.181396484375;-4.77191162109375
1445509703518;135.71200561523438;-68.40796661376953;1.7834486961364746;-1.6014404296875;-14.220611572265625;-8.204238891601562
1445509703551;135.3909912109375;-69.80290222167969;1.8093156814575195;-2.7586212158203125;-15.691619873046875;-8.6357421875
1445509703584;132.8714599609375;-77.45499420166016;2.714719772338867;-2.542877197265625;-17.6529541015625;-2.281036376953125
1445509703617;128.623046875;-88.02335357666016;5.071210861206055;0.16375732421875;-20.771453857421875;3.66180419921875
1445509703649;126.31753540039062;-93.17964935302734;6.001778602600098;2.0074005126953125;-20.712615966796875;4.3482666015625
1445509703682;125.00700378417969;-102.90042877197266;7.248065948486328;0.654083251953125;-17.182220458984375;-2.516387939453125
1445509703715;118.70195007324219;-111.99488067626953;8.18520450592041;-3.30780029296875;-18.908203125;0.58251953125
1445509703748;111.87257385253906;-117.83174896240234;7.639000415802002;-4.62188720703125;-14.201004028320312;4.4071044921875
1445509703781;99.63916015625;-129.77540588378906;2.278225898742676;1.8701171875;-4.845458984375;5.9565582275390625
1445509703815;95.504150390625;-134.88143920898438;-2.1435229778289795;2.8899993896484375;0.2147674560546875;4.210968017578125
1445509703849;90.78643798828125;-141.86534118652344;-8.840657234191895;2.301605224609375;-0.4128570556640625;1.50433349609375
1445509703882;88.39096069335938;-143.75839233398438;-10.012585639953613;4.3610076904296875;-3.19793701171875;-1.496490478515625
1445509703913;87.03729248046875;-143.49424743652344;-9.740835189819336;4.380615234375;-4.413970947265625;-2.692901611328125
1445509703946;84.93145751953125;-141.0671844482422;-8.512031555175781;5.8123931884765625;-6.2183990478515625;-7.2039642333984375
1445509703980;85.765625;-136.81036376953125;-5.729719161987305;6.969573974609375;-9.68994140625;-2.8302001953125
1445509704014;87.471435546875;-134.4680633544922;-3.1539466381073;6.224273681640625;-9.827239990234375;-3.3205413818359375
1445509704045;92.02825927734375;-128.247802734375;3.270703077316284;-1.15032958984375;-7.35595703125;0.5236663818359375
1445509704079;95.99032592773438;-124.3060073852539;6.914910316467285;-0.2481231689453125;-8.591598510742188;-0.9669342041015625
1445509704112;106.45620727539062;-116.17467498779297;10.423470497131348;0.4383392333984375;-13.573379516601562;-2.9282684326171875
1445509704146;112.72117614746094;-109.16356658935547;9.514910697937012;0.04608154296875;-13.357635498046875;-1.574951171875
1445509704178;113.15274047851562;-104.62303924560547;8.232812881469727;-5.87713623046875;-16.789962768554688;3.0341796875
1445509704210;112.71762084960938;-102.48054504394531;7.606131076812744;-9.485992431640625;-19.516204833984375;1.9358367919921875
1445509704243;116.54508972167969;-93.76981353759766;10.39034366607666;-0.8757476806640625;-17.809860229492188;-1.2807464599609375
1445509704278;118.32568359375;-88.24092102050781;11.735483169555664;3.7137603759765625;-20.1634521484375;-4.2619781494140625
1445509704309;118.64022827148438;-79.69236755371094;10.458657264709473;3.321502685546875;-16.378082275390625;-9.126068115234375
1445509704341;119.2335205078125;-74.9884033203125;8.155287742614746;-6.0340423583984375;-8.120880126953125;-13.578292846679688
1445509704375;119.41421508789062;-74.39754486083984;7.555916786193848;-7.6227264404296875;-6.414520263671875;-12.79376220703125
1445509704408;117.90592956542969;-79.13141632080078;8.093870162963867;-6.89703369140625;-4.15899658203125;-2.457550048828125
1445509704441;119.033447265625;-86.00544738769531;10.256192207336426;-0.522705078125;-7.8462982177734375;3.916778564453125
1445509704474;117.84561157226562;-90.44361114501953;11.561899185180664;1.9681854248046875;-14.240234375;4.210968017578125
1445509704508;110.84994506835938;-100.66211700439453;12.582436561584473;8.577865600585938;-19.182785034179688;0.9159393310546875
1445509704540;107.91958618164062;-104.46148681640625;10.321914672851562;0.7717742919921875;-18.143280029296875;-0.4373779296875
1445509704574;111.15048217773438;-110.6292495727539;10.47470474243164;-1.974090576171875;-18.143280029296875;-3.9677734375
1445509704607;103.4071044921875;-118.94966125488281;13.071733474731445;-6.7401275634765625;-12.043548583984375;0.0333404541015625
1445509704640;97.23190307617188;-123.7013168334961;11.245930671691895;-2.8959197998046875;-8.513153076171875;2.504608154296875
1445509704672;87.02349853515625;-132.2353057861328;4.403352737426758;3.57647705078125;-1.334686279296875;2.6222991943359375
1445509704705;81.722900390625;-137.8319854736328;-3.1041901111602783;4.3610076904296875;-0.079437255859375;2.0535125732421875
1445509704739;80.47210693359375;-138.93174743652344;-5.246843338012695;3.0076904296875;-0.2363433837890625;1.523956298828125
1445509704772;83.14126586914062;-138.1607208251953;-2.2545647621154785;5.0474700927734375;-2.9429779052734375;-5.73297119140625
1445509704804;83.220947265625;-134.5238800048828;-1.029822587966919;2.301605224609375;-5.29656982421875;-2.14373779296875
1445509704836;83.52886962890625;-131.2111053466797;0.29797857999801636;2.38006591796875;-10.474472045898438;-2.3594818115234375
1445509704870;90.94308471679688;-123.54833984375;6.351857662200928;1.3209381103515625;-16.280014038085938;-4.1246795654296875
1445509704902;94.60214233398438;-119.83300018310547;8.720446586608887;0.026458740234375;-8.3170166015625;-2.7125244140625
1445509704936;100.128662109375;-113.31961822509766;11.78164291381836;0.3206634521484375;-7.0225372314453125;-1.06500244140625
1445509704969;107.00997924804688;-105.70565795898438;12.498433113098145;-0.5030975341796875;-13.61260986328125;0.3471527099609375
1445509705002;110.77456665039062;-101.21176147460938;12.429689407348633;-1.856414794921875;-15.338577270507812;-0.9865570068359375
1445509705036;112.7381591796875;-95.53318786621094;13.150076866149902;-2.7978515625;-13.318405151367188;-1.202301025390625
1445509705068;114.05783081054688;-92.54615783691406;13.417861938476562;-3.8961944580078125;-10.847137451171875;0.111785888671875
1445509705105;116.14865112304688;-90.27395629882812;13.722808837890625;-3.288177490234375;-9.533035278320312;-0.4962158203125
1445509705135;121.91995239257812;-86.13816833496094;13.689724922180176;2.0858612060546875;-8.866195678710938;-2.26141357421875
1445509705167;124.34037780761719;-83.4298095703125;12.667109489440918;-1.464141845703125;-8.101272583007812;-0.2216339111328125
1445509705201;125.49093627929688;-82.06314849853516;12.219624519348145;-2.1898345947265625;-7.552093505859375;-0.3589324951171875
1445509705234;127.78741455078125;-79.12639617919922;10.956159591674805;-3.7000579833984375;-9.238845825195312;-0.6138916015625
1445509705266;126.86567687988281;-76.94713592529297;9.814703941345215;-1.15032958984375;-12.631942749023438;-3.34014892578125
1445509705299;125.81210327148438;-75.9883041381836;9.21740436553955;0.3206634521484375;-14.730560302734375;-3.6147308349609375
1445509705333;124.78192138671875;-74.55585479736328;7.7925496101379395;-1.974090576171875;-16.495758056640625;-4.2031402587890625
1445509705368;123.16212463378906;-75.81462860107422;7.748072624206543;0.6737060546875;-15.142440795898438;-4.105072021484375
1445509705398;121.527587890625;-78.29763793945312;8.310205459594727;0.654083251953125;-14.612884521484375;-5.301483154296875
1445509705431;116.18348693847656;-85.35157012939453;9.163162231445312;-0.895355224609375;-15.475875854492188;0.1510162353515625
1445509705465;114.13388061523438;-89.94226837158203;9.015691757202148;-2.366363525390625;-15.88775634765625;3.1322479248046875
1445509705498;114.17616271972656;-97.94471740722656;9.328166007995605;-1.797576904296875;-14.004867553710938;1.4062652587890625
1445509705529;115.4263916015625;-103.82520294189453;11.018054008483887;-0.718841552734375;-12.435806274414062;0.1706390380859375
1445509705563;112.91009521484375;-107.10757446289062;11.203229904174805;-1.6995086669921875;-12.59271240234375;-0.4766082763671875
1445509705596;102.54803466796875;-116.65764617919922;8.871953010559082;-0.777679443359375;-9.297683715820312;0.5236663818359375
1445509705630;94.11502075195312;-127.75103759765625;3.8863468170166016;1.9681854248046875;-4.6689453125;1.4847259521484375
1445509705662;91.0867919921875;-132.25836181640625;0.8888976573944092;1.811279296875;-3.19793701171875;1.8573760986328125
1445509705697;87.4825439453125;-138.33248901367188;-3.816938638687134;2.8311614990234375;-1.2366180419921875;1.308197021484375
1445509705728;86.52142333984375;-140.14268493652344;-5.217925071716309;2.125091552734375;-0.177490234375;-2.3006439208984375
1445509705763;85.77947998046875;-140.91943359375;-5.430588722229004;2.419281005859375;-0.9816436767578125;-3.261688232421875
1445509705794;85.39068603515625;-138.06590270996094;-3.7845139503479004;3.7137603759765625;-4.845458984375;-7.360870361328125
1445509705827;85.43032836914062;-135.12054443359375;-2.3304851055145264;2.9096221923828125;-8.964248657226562;-6.2625274658203125
1445509705860;88.052978515625;-129.03369140625;2.5794522762298584;2.988067626953125;-15.652389526367188;-2.1045074462890625
1445509705894;92.9326171875;-122.46623992919922;7.223494529724121;2.046630859375;-8.807342529296875;-3.0459442138671875
1445509705926;95.2127685546875;-119.44170379638672;8.636261940002441;1.9681854248046875;-7.23828125;-2.065277099609375
1445509705959;103.040283203125;-112.90071105957031;9.830784797668457;1.5170745849609375;-11.21978759765625;-0.5354461669921875
1445509705992;111.85308837890625;-105.10163879394531;10.86904525756836;-1.3268585205078125;-13.0438232421875;-1.712249755859375
1445509706026;115.33181762695312;-101.26412963867188;11.484352111816406;-1.8956451416015625;-11.474761962890625;-1.18267822265625
1445509706058;119.7628173828125;-95.52762603759766;11.998587608337402;-4.700347900390625;-11.141326904296875;-1.6337890625
1445509706092;119.793701171875;-92.66190338134766;11.856283187866211;-5.0337677001953125;-9.552658081054688;-0.0254974365234375
1445509706124;122.83653259277344;-90.45972442626953;12.66806697845459;-2.5232696533203125;-9.415359497070312;-1.75146484375
1445509706157;127.68612670898438;-86.13936614990234;13.124021530151367;2.10546875;-9.12115478515625;-2.908660888671875
1445509706190;128.01193237304688;-84.87553405761719;12.837376594543457;-0.4442596435546875;-9.238845825195312;-2.1241302490234375
1445509706223;129.66773986816406;-83.18118286132812;11.637863159179688;-1.0718841552734375;-8.905410766601562;-1.084625244140625
1445509706257;130.50637817382812;-81.24944305419922;10.047273635864258;-2.856689453125;-9.297683715820312;0.6021270751953125
1445509706291;130.24244689941406;-79.86084747314453;9.208438873291016;-3.54315185546875;-10.02337646484375;0.111785888671875
1445509706323;129.30662536621094;-76.77281951904297;7.400916576385498;-0.4246368408203125;-16.69189453125;-1.5357208251953125
1445509706355;128.5055389404297;-74.4298095703125;5.375881671905518;0.359893798828125;-16.044662475585938;-3.22247314453125
1445509706388;127.79916381835938;-73.95176696777344;4.862303256988525;1.3209381103515625;-14.318679809570312;-3.9677734375
1445509706421;124.76614379882812;-76.60150146484375;5.245845317840576;0.6148681640625;-13.181106567382812;-6.2036895751953125
1445509706454;122.40972900390625;-79.5816879272461;5.721052169799805;-2.11138916015625;-15.848526000976562;-4.7523040771484375
1445509706487;115.67752075195312;-88.04605102539062;6.0471391677856445;-3.4058685302734375;-17.182220458984375;0.445220947265625
1445509706521;117.04379272460938;-97.14447021484375;7.4871826171875;0.8109893798828125;-13.90679931640625;4.4071044921875
1445509706555;118.84988403320312;-100.56932830810547;9.295106887817383;3.2822723388671875;-12.671173095703125;4.269805908203125
1445509706587;118.44046020507812;-106.59286499023438;11.531576156616211;1.164031982421875;-12.435806274414062;-2.08489990234375
1445509706619;107.65696716308594;-115.22627258300781;10.68073558807373;-1.7779541015625;-10.180282592773438;-2.4379425048828125
1445509706652;103.03286743164062;-120.51889038085938;9.457233428955078;-1.5426025390625;-8.846572875976562;0.13140869140625
1445509706686;96.07281494140625;-130.4870147705078;4.652299404144287;1.164031982421875;-4.8062286376953125;0.24908447265625
1445509706718;91.3994140625;-138.1128692626953;-1.5496788024902344;2.0858612060546875;-2.5507049560546875;0.896331787109375
1445509706751;90.09759521484375;-140.60336303710938;-3.9641354084014893;2.2623748779296875;-2.531097412109375;0.7786407470703125
1445509706785;89.09500122070312;-143.31430053710938;-6.56606912612915;2.870391845703125;-1.58966064453125;-1.496490478515625
1445509706817;89.98703002929688;-144.231201171875;-5.2675886154174805;2.0270233154296875;-0.9228057861328125;-4.65423583984375
1445509706850;90.251953125;-143.7726593017578;-4.432866096496582;2.5761871337890625;-1.4131317138671875;-6.164459228515625
1445509706884;90.25701904296875;-139.82037353515625;-4.015794277191162;4.0864105224609375;-9.984146118164062;-9.184906005859375
1445509706917;89.7554931640625;-137.27301025390625;-3.814896821975708;1.6935882568359375;-14.416748046875;-6.223297119140625
1445509706949;88.283447265625;-133.11485290527344;-1.777438759803772;2.125091552734375;-9.140777587890625;-3.85009765625
1445509706982;89.57879638671875;-128.10638427734375;2.382443428039551;3.92950439453125;-7.042144775390625;-2.8890380859375
1445509707016;91.58795166015625;-125.42362976074219;4.39301872253418;4.2825469970703125;-9.395751953125;-2.1829681396484375
1445509707048;100.0408935546875;-119.3413314819336;8.37739372253418;3.2234344482421875;-9.572265625;-0.82965087890625
1445509707082;110.76986694335938;-111.29878997802734;11.433070182800293;-1.287628173828125;-9.729171752929688;-0.574676513671875
1445509707115;115.684326171875;-106.79082489013672;12.794461250305176;-3.798126220703125;-10.905975341796875;-2.1829681396484375
1445509707148;121.30230712890625;-98.94092559814453;14.480191230773926;-3.5823822021484375;-10.572540283203125;-1.3592071533203125
1445509707180;125.20843505859375;-93.86970520019531;14.000774383544922;-2.6997833251953125;-10.552932739257812;-1.2807464599609375
1445509707213;125.96087646484375;-92.09426879882812;13.62794303894043;-1.5818328857421875;-11.259017944335938;-1.3003692626953125
1445509707247;128.4548797607422;-89.40187072753906;13.000487327575684;-1.6014404296875;-9.96453857421875;0.1510162353515625
1445509707280;135.59432983398438;-85.31037902832031;12.867067337036133;0.301055908203125;-9.807632446289062;-1.00616455078125
1445509707313;137.7393035888672;-83.37728118896484;12.626258850097656;-0.3657989501953125;-9.278060913085938;-0.633514404296875
1445509707347;140.85452270507812;-80.53684997558594;11.89197826385498;-2.4644317626953125;-9.317291259765625;-1.084625244140625
1445509707381;142.8105010986328;-79.42202758789062;11.090447425842285;-2.484039306640625;-9.081939697265625;-0.2804718017578125
1445509707410;143.0633544921875;-79.29200744628906;10.575810432434082;-0.777679443359375;-10.396026611328125;0.2686920166015625
1445509707447;144.3031463623047;-78.50977325439453;8.823441505432129;0.987518310546875;-11.808181762695312;1.8966064453125
1445509707479;145.28921508789062;-77.6546401977539;7.543001651763916;1.928955078125;-13.298797607421875;2.3673248291015625
1445509707509;148.67945861816406;-75.50735473632812;4.87546443939209;0.026458740234375;-16.57421875;2.5438385009765625
1445509707543;152.58453369140625;-74.1653823852539;2.460428476333618;1.18365478515625;-12.945755004882812;-1.8495330810546875
1445509707576;153.91392517089844;-74.03229522705078;1.7184855937957764;0.04608154296875;-11.474761962890625;-2.9282684326171875
1445509707609;155.26058959960938;-76.1208267211914;1.9810190200805664;-1.5426025390625;-11.474761962890625;-3.830474853515625
1445509707642;154.8131866455078;-78.32217407226562;2.709592342376709;0.7913818359375;-14.495208740234375;-1.06500244140625
1445509707676;156.60205078125;-84.12305450439453;2.8349945545196533;2.752716064453125;-13.710678100585938;-0.3393096923828125
1445509707708;163.6402130126953;-90.02977752685547;2.179337739944458;6.8715057373046875;-9.886077880859375;-0.9865570068359375
1445509707741;166.4137420654297;-92.91261291503906;1.9446284770965576;6.4400177001953125;-7.80706787109375;2.720367431640625
1445509707775;168.6149139404297;-97.4380874633789;0.9386444687843323;3.7137603759765625;-6.55181884765625;4.7405242919921875
1445509707807;168.1588592529297;-101.5246353149414;-1.9889253377914429;-1.7191162109375;-7.4540252685546875;-0.5550537109375
1445509707840;167.80130004882812;-102.82263946533203;-3.246340274810791;-0.660003662109375;-7.7874603271484375;-1.319976806640625
1445509707874;169.9846954345703;-104.5756607055664;-4.4074788093566895;0.8306121826171875;-6.355682373046875;1.0532379150390625
1445509707907;172.7945556640625;-105.10552978515625;-5.377532005310059;1.6347503662109375;-4.8062286376953125;0.7982635498046875
1445509707940;175.13754272460938;-104.57855987548828;-5.522921562194824;1.9093475341796875;-5.0219879150390625;0.6609649658203125
1445509707972;181.84368896484375;-101.56461334228516;-5.4959564208984375;1.811279296875;-6.2183990478515625;-0.4373779296875
1445509708006;185.57415771484375;-99.35909271240234;-5.632428169250488;1.36016845703125;-8.964248657226562;-3.3597564697265625
1445509708038;195.802978515625;-95.70452117919922;-4.914153099060059;-0.542327880859375;-11.612045288085938;-3.34014892578125
1445509708071;202.77691650390625;-91.13066864013672;-2.284036874771118;-1.405303955078125;-17.476425170898438;-3.16363525390625
1445509708105;206.40826416015625;-87.44086456298828;-0.2902587056159973;0.3991241455078125;-11.10211181640625;-0.5942840576171875
1445509708137;215.93743896484375;-85.71533203125;1.0602236986160278;0.6344757080078125;-6.8852386474609375;-0.3785400390625
1445509708170;220.5118408203125;-85.45684814453125;0.6453691720962524;0.9678955078125;-10.572540283203125;0.81787109375
1445509708205;222.4259033203125;-84.63911437988281;0.47571617364883423;0.359893798828125;-12.9261474609375;1.072845458984375
1445509708237;231.26275634765625;-82.5269546508789;0.6253504753112793;-2.366363525390625;-11.239395141601562;-0.300079345703125
1445509708269;238.81781005859375;-81.67401123046875;-0.19359013438224792;-2.366363525390625;-7.9835968017578125;0.4256134033203125
1445509708303;241.7784423828125;-81.33103942871094;-0.9337897300720215;-1.8956451416015625;-7.9835968017578125;1.465118408203125
1445509708336;246.56692504882812;-80.48274230957031;-2.2767527103424072;-3.1312713623046875;-10.376419067382812;-0.4569854736328125
1445509708369;248.86813354492188;-79.91128540039062;-2.6321263313293457;-3.4647064208984375;-10.611770629882812;-4.2423553466796875
1445509708401;253.84878540039062;-79.54281616210938;-2.8101718425750732;-3.1312713623046875;-10.31756591796875;-5.2622528076171875
1445509708434;258.4001770019531;-82.62895965576172;-2.323456048965454;-2.28790283203125;-9.670333862304688;-5.96832275390625
1445509708467;261.23583984375;-85.78736114501953;-2.0373077392578125;4.517913818359375;-17.044937133789062;-2.7321319580078125
1445509708501;268.3706359863281;-94.95816040039062;-3.108595132827759;6.714599609375;-17.49603271484375;-1.0257720947265625
1445509708534;273.92266845703125;-105.91224670410156;-5.452945709228516;4.145263671875;-11.474761962890625;4.5051727294921875
1445509708566;275.85205078125;-109.32233428955078;-6.043811321258545;-0.9934234619140625;-10.670608520507812;3.1322479248046875
1445509708599;281.5096435546875;-114.10364532470703;-3.9793314933776855;-1.3660736083984375;-8.003204345703125;-0.3197021484375
1445509708632;284.93359375;-116.91109466552734;-4.837710380554199;-0.34619140625;-4.2570648193359375;-0.0254974365234375
1445509708665;286.5447692871094;-117.1985092163086;-5.582223892211914;-0.777679443359375;-2.9429779052734375;-0.3393096923828125
1445509708698;290.6387023925781;-115.73345184326172;-6.612412929534912;-2.091766357421875;-2.96258544921875;-0.3393096923828125
1445509708732;294.77337646484375;-113.83441925048828;-7.011988162994385;-1.5033721923828125;-4.296295166015625;-1.378814697265625
1445509708765;296.76690673828125;-112.85323333740234;-7.136349678039551;-1.1307220458984375;-6.2183990478515625;-3.22247314453125
1445509708797;299.397705078125;-110.20548248291016;-7.608547687530518;-1.20916748046875;-9.317291259765625;-4.5757904052734375
1445509708831;300.3600769042969;-107.60336303710938;-7.8234663009643555;-1.6014404296875;-8.022811889648438;-2.9871063232421875
1445509708863;300.9852294921875;-106.03743743896484;-7.449127674102783;-0.5030975341796875;-8.042434692382812;-2.2418060302734375
1445509708896;301.25177001953125;-102.4249038696289;-6.833996772766113;2.5761871337890625;-10.19989013671875;-2.5948486328125
1445509708932;298.2642822265625;-98.24176788330078;-7.088976860046387;2.693878173828125;-14.965927124023438;-6.478271484375
1445509708964;295.21905517578125;-96.05154418945312;-7.238188743591309;3.3018798828125;-18.28057861328125;-8.223861694335938
1445509708997;297.1802062988281;-95.36199951171875;-6.554250717163086;4.6748199462890625;-20.418426513671875;-6.360595703125
1445509709029;299.7373046875;-95.9767837524414;-6.282944202423096;1.222869873046875;-16.378082275390625;-2.7713623046875
1445509709067;303.4726867675781;-99.57249450683594;-7.478523254394531;-5.24951171875;-7.434417724609375;7.623687744140625
1445509709096;308.8152160644531;-103.08792877197266;-5.020016193389893;-3.42547607421875;-10.866744995117188;2.64190673828125
1445509709127;306.49188232421875;-101.9379653930664;-4.861448287963867;-2.6409454345703125;-12.730010986328125;-3.1832427978515625
1445509709160;299.2740783691406;-97.81816101074219;-5.121457576751709;-1.2483978271484375;-9.866470336914062;-2.3006439208984375
1445509709194;298.7679443359375;-97.23667907714844;-5.084343910217285;0.026458740234375;-8.4935302734375;-2.692901611328125
1445509709227;297.7372741699219;-96.6218490600586;-5.581923484802246;0.8109893798828125;-7.1402130126953125;-3.8697052001953125
1445509709260;297.822509765625;-96.9288330078125;-6.000612735748291;0.6933135986328125;-6.5714263916015625;-2.20257568359375
1445509709293;299.4871520996094;-97.2699203491211;-5.944582939147949;0.10491943359375;-7.669769287109375;-1.496490478515625
1445509709326;302.436279296875;-98.90203857421875;-5.802853107452393;-0.228515625;-7.68939208984375;-2.5359954833984375
1445509709358;304.71771240234375;-102.08570098876953;-6.349837303161621;-0.5619354248046875;-9.023101806640625;-7.302032470703125
1445509709391;305.8017578125;-104.6800537109375;-7.005538463592529;-0.640380859375;-10.121444702148438;-8.106185913085938
1445509709424;304.47998046875;-112.2341537475586;-10.147551536560059;-2.4448089599609375;-14.848251342773438;-5.6349029541015625
1445509709457;298.1870422363281;-121.06734466552734;-13.906529426574707;-4.5238189697265625;-24.341079711914062;0.5432891845703125
1445509709490;297.1500244140625;-125.43830871582031;-14.558173179626465;4.517913818359375;-17.49603271484375;-2.065277099609375
1445509709523;296.5162658691406;-131.99151611328125;-15.43062686920166;3.51763916015625;-8.728897094726562;-1.947601318359375
1445509709557;296.52374267578125;-135.68341064453125;-15.084443092346191;3.046905517578125;-5.218109130859375;-0.6727447509765625
1445509709589;296.0762939453125;-136.11463928222656;-14.519962310791016;2.5761871337890625;-4.021697998046875;-0.4373779296875
1445509709623;294.2635498046875;-133.8624267578125;-12.874762535095215;1.18365478515625;-1.6092681884765625;0.1510162353515625
1445509709656;294.3948059082031;-131.82875061035156;-11.737119674682617;0.359893798828125;-1.7269439697265625;-0.3981475830078125
1445509709688;296.0163879394531;-126.5191421508789;-9.191046714782715;0.34027099609375;-2.648773193359375;-1.143463134765625
1445509709722;298.6531982421875;-119.78470611572266;-8.062891960144043;-1.0718841552734375;-7.4736480712890625;-3.908935546875
1445509709755;299.0421447753906;-116.3139877319336;-8.708809852600098;-2.17022705078125;-14.632492065429688;-5.2230224609375
1445509709788;295.4586181640625;-110.93098449707031;-8.927533149719238;1.105194091796875;-13.90679931640625;-5.2622528076171875
1445509709820;292.7504577636719;-105.94938659667969;-6.956324100494385;2.046630859375;-10.219512939453125;-4.2031402587890625
1445509709858;293.43804931640625;-103.04834747314453;-5.531164169311523;3.5960845947265625;-14.86785888671875;-5.55645751953125
1445509709886;296.9367980957031;-98.35310363769531;-3.2915163040161133;4.3413848876953125;-14.377532958984375;-1.810302734375
1445509709920;294.848876953125;-96.80455017089844;-4.559986591339111;2.419281005859375;-22.517044067382812;-8.047332763671875
1445509709957;293.40386962890625;-97.28653717041016;-6.076589584350586;-2.91552734375;-11.376693725585938;2.1711883544921875
1445509709991;300.432861328125;-101.96131896972656;-6.522463321685791;-7.6619415283203125;-7.3951873779296875;7.9571075439453125
1445509710019;304.3853759765625;-104.10585021972656;-4.3213300704956055;-3.7588958740234375;-15.063995361328125;2.52423095703125
1445509710051;302.8389892578125;-102.33838653564453;-2.1073338985443115;-1.8171844482421875;-13.181106567382812;-2.339874267578125
1445509710085;297.42529296875;-96.77181243896484;-1.9926414489746094;1.8701171875;-9.258453369140625;-1.5945587158203125
1445509710117;298.0601806640625;-95.901611328125;-2.1307382583618164;2.2819976806640625;-8.395462036132812;-2.4183197021484375
1445509710155;298.11004638671875;-94.64476776123047;-2.799811363220215;0.5756378173828125;-7.5128631591796875;-3.791259765625
1445509710184;296.295166015625;-93.3597640991211;-3.689244031906128;-2.2682952880859375;-7.74822998046875;-2.9282684326171875
1445509710217;296.1833801269531;-93.24458312988281;-3.751124382019043;-2.150604248046875;-7.1009979248046875;-1.96722412109375
1445509710250;295.7152099609375;-93.91796112060547;-4.214460849761963;-0.0716094970703125;-7.74822998046875;-1.888763427734375
1445509710283;296.53240966796875;-94.724365234375;-5.374921798706055;0.4971771240234375;-7.9051361083984375;-1.06500244140625
1445509710314;298.0599060058594;-95.4684066772461;-5.758124828338623;-0.2481231689453125;-8.513153076171875;-2.9871063232421875
1445509710348;300.6400451660156;-98.89120483398438;-6.511573791503906;-2.974365234375;-10.396026611328125;-5.3995513916015625
