sep=;
timestamp;gyro-alpha;gyro-beta;gyro-gamma;accel-x;accel-y;accel-z
1445423660719;141.25498962402344;-106.49828338623047;-27.707042694091797;3.2038116455078125;-6.55181884765625;-1.888763427734375
1445423660752;137.71925354003906;-104.48890686035156;-28.654102325439453;3.2038116455078125;-4.5708770751953125;-0.94732666015625
1445423660785;137.37062072753906;-104.17741394042969;-28.88997459411621;2.6546478271484375;-3.5706024169921875;-1.202301025390625
1445423660818;138.33734130859375;-104.20405578613281;-28.200042724609375;3.321502685546875;-4.080535888671875;-1.2219085693359375
1445423660851;137.75120544433594;-102.74166870117188;-26.866701126098633;6.3615570068359375;-9.650726318359375;-0.9865570068359375
1445423660884;136.53990173339844;-101.49961853027344;-26.31233787536621;7.087249755859375;-12.41619873046875;0.9159393310546875
1445423660916;135.46347045898438;-99.40296173095703;-25.543872833251953;6.6361541748046875;-14.377532958984375;0.36676025390625
1445423660949;137.42202758789062;-97.40397644042969;-24.85123634338379;5.0474700927734375;-14.612884521484375;-0.182403564453125
1445423660985;138.8223114013672;-96.39169311523438;-24.064651489257812;3.949127197265625;-13.416473388671875;-0.182403564453125
1445423661015;140.49156188964844;-93.94037628173828;-22.12648582458496;1.8308868408203125;-10.02337646484375;0.562896728515625
1445423661049;142.8300323486328;-91.56148529052734;-19.61249542236328;1.105194091796875;-7.434417724609375;0.504058837890625
1445423661082;144.21324157714844;-90.61607360839844;-18.31187629699707;1.0659637451171875;-6.747955322265625;0.5432891845703125
1445423661114;145.10147094726562;-89.27812957763672;-16.194988250732422;1.3993988037109375;-5.8849639892578125;0.7198028564453125
1445423661148;144.92889404296875;-88.6484146118164;-15.504465103149414;0.2029876708984375;-2.84490966796875;1.6220245361328125
1445423661180;145.81871032714844;-87.80812072753906;-14.400674819946289;0.8306121826171875;-5.8065185546875;2.1123504638671875
1445423661213;146.20159912109375;-86.555419921875;-13.922895431518555;2.4585113525390625;-13.632217407226562;2.3084869384765625
1445423661247;146.94375610351562;-85.89527130126953;-13.748335838317871;2.2623748779296875;-14.86785888671875;1.3670501708984375
1445423661279;151.5449981689453;-85.15135192871094;-13.224465370178223;1.4582366943359375;-16.162338256835938;-1.084625244140625
1445423661312;155.46783447265625;-85.38275146484375;-12.666686058044434;-0.58154296875;-13.965652465820312;2.40655517578125
1445423661346;157.0807342529297;-85.5009765625;-12.275629043579102;-0.6992340087890625;-13.828353881835938;2.838043212890625
1445423661379;159.4810791015625;-84.62682342529297;-11.361663818359375;1.1444244384765625;-10.6510009765625;1.6612396240234375
1445423661412;161.57786560058594;-82.83395385742188;-11.340047836303711;3.4587860107421875;-7.1402130126953125;0.8571014404296875
1445423661445;161.95753479003906;-82.07414245605469;-11.783835411071777;3.7922210693359375;-6.2576141357421875;0.6021270751953125
1445423661479;162.30393981933594;-80.67709350585938;-12.776723861694336;1.9485626220703125;-5.7476806640625;0.7786407470703125
1445423661511;163.11688232421875;-80.00975036621094;-13.233445167541504;1.2032623291015625;-6.8264007568359375;1.582794189453125
1445423661543;165.6139678955078;-78.35536193847656;-14.180871963500977;1.47784423828125;-8.218948364257812;1.9162139892578125
1445423661577;168.75390625;-76.27095794677734;-15.324804306030273;0.8306121826171875;-10.180282592773438;1.4258880615234375
1445423661612;171.06785583496094;-75.59093475341797;-15.746848106384277;1.0267486572265625;-13.024200439453125;0.7394256591796875
1445423661643;175.41592407226562;-75.26041412353516;-16.216726303100586;1.41900634765625;-13.357635498046875;1.9750518798828125
1445423661676;179.54212951660156;-75.8255615234375;-17.006990432739258;1.615142822265625;-14.083328247070312;0.759033203125
1445423661708;180.890380859375;-76.53648376464844;-17.398731231689453;2.5761871337890625;-14.299072265625;-0.633514404296875
1445423661741;182.81878662109375;-79.7415542602539;-18.79238510131836;4.576751708984375;-13.357635498046875;-1.7906951904296875
1445423661776;186.57012939453125;-85.40359497070312;-20.47083854675293;5.8516082763671875;-15.5543212890625;0.504058837890625
1445423661807;188.60302734375;-88.46366882324219;-21.33723258972168;7.773712158203125;-17.20184326171875;1.6024017333984375
1445423661844;190.6556396484375;-94.46635437011719;-23.767292022705078;11.853286743164062;-16.907638549804688;2.2300262451171875
1445423661875;192.2027587890625;-97.63294219970703;-24.49052619934082;10.225387573242188;-10.5333251953125;2.386932373046875
1445423661908;197.70166015625;-102.97199249267578;-24.130170822143555;5.380889892578125;-6.1987762451171875;4.3678741455078125
1445423661941;200.2943115234375;-104.75394439697266;-24.787647247314453;-4.7787933349609375;-1.6681060791015625;4.85821533203125
1445423661976;207.2318115234375;-108.44707489013672;-22.78032112121582;-3.9354248046875;1.7446136474609375;2.720367431640625
1445423662006;210.8477783203125;-110.10237884521484;-21.27889060974121;-2.4448089599609375;1.509246826171875;1.3474273681640625
1445423662041;213.36050415039062;-110.07259368896484;-18.75726318359375;-0.58154296875;0.0186309814453125;-0.2216339111328125
1445423662074;211.71173095703125;-108.46076202392578;-18.44957160949707;-0.58154296875;-0.3540191650390625;-0.4373779296875
1445423662104;207.511962890625;-105.15731811523438;-18.36134147644043;0.1833648681640625;-0.255950927734375;-1.00616455078125
1445423662141;207.7537841796875;-103.53619384765625;-17.372020721435547;-0.267730712890625;-3.98248291015625;-4.9484405517578125
1445423662174;210.82223510742188;-104.05619812011719;-16.613506317138672;5.7339324951171875;-14.671722412109375;-3.1244049072265625
1445423662204;206.55816650390625;-105.39212799072266;-21.92745590209961;15.579818725585938;-21.92864990234375;-0.1627960205078125
1445423662236;201.5526123046875;-105.80982208251953;-24.288204193115234;15.638656616210938;-13.083053588867188;3.2499237060546875
1445423662269;201.0997314453125;-106.93594360351562;-24.34221649169922;14.991409301757812;-16.8095703125;1.3670501708984375
1445423662302;204.29095458984375;-101.85577392578125;-25.831886291503906;7.28338623046875;-16.29962158203125;-1.6533966064453125
1445423662335;208.896728515625;-100.81539916992188;-26.086572647094727;3.9098968505859375;-12.35736083984375;0.327545166015625
1445423662369;219.68353271484375;-100.90946960449219;-25.507686614990234;2.2035369873046875;-9.395751953125;-1.06500244140625
1445423662402;229.91033935546875;-103.64454650878906;-23.467679977416992;1.791656494140625;-4.04132080078125;-2.1241302490234375
1445423662435;234.58096313476562;-105.34269714355469;-23.62137794494629;0.4971771240234375;-0.9620208740234375;0.6609649658203125
1445423662468;242.2613525390625;-108.67188262939453;-24.304039001464844;-0.326568603515625;1.0973663330078125;1.582794189453125
1445423662501;250.93710327148438;-111.72665405273438;-22.956459045410156;-0.4834747314453125;-2.079986572265625;0.2883148193359375
1445423662534;254.351806640625;-112.49546813964844;-22.32518196105957;-0.660003662109375;-2.2957305908203125;-0.2216339111328125
1445423662566;260.2192687988281;-114.49647521972656;-21.97450828552246;-0.4442596435546875;-6.3949127197265625;-2.7125244140625
1445423662600;264.75750732421875;-115.78845977783203;-20.83940887451172;7.1264801025390625;-15.338577270507812;-6.5959625244140625
1445423662634;274.923095703125;-116.77412414550781;-18.679311752319336;9.911575317382812;-18.731674194335938;-6.850921630859375
1445423662665;280.8727722167969;-117.16806030273438;-17.07932472229004;7.6756439208984375;-15.475875854492188;-7.7923736572265625
1445423662699;284.10186767578125;-117.59255981445312;-16.1754150390625;0.0853118896484375;-14.593276977539062;-5.1249542236328125
1445423662731;289.2979736328125;-116.52770233154297;-15.924596786499023;0.3206634521484375;-13.475311279296875;-4.5561676025390625
1445423662764;290.9371337890625;-115.62236785888672;-16.015417098999023;3.1645965576171875;-8.238555908203125;-3.0067291259765625
1445423662798;291.4366455078125;-115.57108306884766;-16.26474380493164;2.8899993896484375;-2.589935302734375;-0.94732666015625
1445423662830;292.8081359863281;-116.56732940673828;-16.827245712280273;1.6935882568359375;-1.1777801513671875;-1.0257720947265625
1445423662864;297.4672546386719;-118.41484832763672;-16.020689010620117;1.222869873046875;-1.452362060546875;-0.4766082763671875
1445423662897;299.48822021484375;-119.368408203125;-15.468353271484375;1.6935882568359375;-2.2368927001953125;-0.6138916015625
1445423662929;302.79327392578125;-121.00675964355469;-14.85341739654541;3.0665283203125;-5.1985015869140625;-1.75146484375
1445423662963;304.8645324707031;-121.9681396484375;-14.195369720458984;4.066802978515625;-7.2186737060546875;-6.3998260498046875
1445423662996;310.6192626953125;-123.64312744140625;-12.763495445251465;6.4792327880859375;-9.846847534179688;-6.733245849609375
1445423663028;320.78204345703125;-123.1961669921875;-11.325149536132812;5.832000732421875;-12.553482055664062;-6.0271759033203125
1445423663061;325.30029296875;-122.2410888671875;-10.795324325561523;4.83172607421875;-9.68994140625;-6.2036895751953125
1445423663095;332.25531005859375;-119.67977142333984;-11.492589950561523;3.949127197265625;-10.297958374023438;-5.1053466796875
1445423663128;332.9087219238281;-115.92111206054688;-14.238042831420898;1.1444244384765625;-12.631942749023438;-4.8699798583984375
1445423663160;332.64666748046875;-113.97472381591797;-15.41513729095459;3.1842041015625;-9.807632446289062;-4.2423553466796875
1445423663194;335.6564636230469;-110.45153045654297;-16.404111862182617;3.2822723388671875;-8.650436401367188;-3.9481658935546875
1445423663226;340.843994140625;-108.63016510009766;-16.089067459106445;2.2035369873046875;-5.551544189453125;-2.37908935546875
1445423663260;343.8998107910156;-108.34315490722656;-15.43668270111084;2.0270233154296875;-4.5708770751953125;-2.692901611328125
1445423663294;349.1473388671875;-108.16899108886719;-14.049513816833496;1.438629150390625;-2.9821929931640625;-4.281585693359375
1445423663326;351.167724609375;-108.74921417236328;-12.94029426574707;-0.9345855712890625;-6.0222625732421875;-4.0462188720703125
1445423663361;352.66748046875;-109.19558715820312;-12.522833824157715;1.53668212890625;-11.16094970703125;-5.2034149169921875
1445423663392;356.4106750488281;-110.50193786621094;-12.67027759552002;1.5955352783203125;-12.200454711914062;-0.2020263671875
1445423663427;2.5634765625;-108.5918960571289;-11.948077201843262;2.5958099365234375;-18.260955810546875;1.3670501708984375
1445423663459;4.39404296875;-105.97935485839844;-11.283720970153809;1.791656494140625;-21.752120971679688;-0.3981475830078125
1445423663493;2.847137451171875;-99.3582763671875;-8.48442268371582;0.242218017578125;-15.083602905273438;-0.182403564453125
1445423663525;1.689910888671875;-96.74414825439453;-7.102691650390625;0.04608154296875;-14.024490356445312;-1.75146484375
1445423663558;0.273895263671875;-93.35041809082031;-6.287454128265381;3.2234344482421875;-10.02337646484375;-5.3210906982421875
1445423663593;0.500701904296875;-92.14336395263672;-6.654896259307861;2.183929443359375;-3.8255767822265625;-4.4384918212890625
1445423663623;0.649627685546875;-91.77600860595703;-6.811291694641113;-0.3854217529296875;-1.903472900390625;-4.5561676025390625
1445423663656;356.6279296875;-91.30133056640625;-6.390433311462402;-3.3274078369140625;-2.3545684814453125;-1.75146484375
1445423663689;354.5118103027344;-91.08953857421875;-6.160396099090576;0.7717742919921875;-6.4537506103515625;4.3678741455078125
1445423663726;357.69012451171875;-90.05745697021484;-6.889263153076172;3.1449737548828125;-11.317855834960938;6.4468841552734375
1445423663758;2.7373046875;-87.11093139648438;-7.018938064575195;6.3027191162109375;-18.45709228515625;3.89715576171875
1445423663791;1.984619140625;-85.48297119140625;-7.545767307281494;1.30133056640625;-16.613449096679688;1.8377685546875
1445423663824;356.4605712890625;-83.02212524414062;-7.544943809509277;0.4579620361328125;-15.926971435546875;2.6222991943359375
1445423663854;0.84375;-81.79232025146484;-6.706704616546631;1.5170745849609375;-12.259292602539062;1.818145751953125
1445423663887;4.35406494140625;-81.3138656616211;-6.228362083435059;2.164306640625;-6.9636993408203125;1.32781982421875
1445423663921;9.5245361328125;-80.11372375488281;-5.719210147857666;1.47784423828125;-5.2573394775390625;1.26898193359375
1445423663952;12.4163818359375;-79.72669982910156;-5.6475677490234375;0.242218017578125;-3.276397705078125;0.4256134033203125
1445423663985;13.742431640625;-79.44355773925781;-5.677103519439697;0.1833648681640625;-2.7468414306640625;0.5432891845703125
1445423664018;17.142242431640625;-78.25563049316406;-6.260443687438965;0.7521514892578125;-4.296295166015625;0.9159393310546875
1445423664052;18.340087890625;-77.42000579833984;-6.677074909210205;0.928680419921875;-11.925857543945312;1.308197021484375
1445423664085;19.61981201171875;-75.72294616699219;-7.4116950035095215;0.5167999267578125;-14.220611572265625;1.641632080078125
1445423664118;22.808990478515625;-74.2939453125;-8.069621086120605;1.438629150390625;-17.044937133789062;2.2888641357421875
1445423664151;24.07928466796875;-73.47272491455078;-8.414816856384277;2.125091552734375;-17.123382568359375;0.680572509765625
1445423664184;26.874908447265625;-72.69355010986328;-9.463811874389648;2.125091552734375;-15.593551635742188;-0.5354461669921875
1445423664217;29.24462890625;-73.54954528808594;-10.35428524017334;1.47784423828125;-11.847412109375;-1.771087646484375
1445423664249;30.298553466796875;-74.54349517822266;-10.802458763122559;0.5756378173828125;-9.356521606445312;-1.3395843505859375
1445423664282;32.46038818359375;-77.22140502929688;-11.645112991333008;-0.601165771484375;-4.33551025390625;0.896331787109375
1445423664316;33.20941162109375;-78.68989562988281;-12.235501289367676;-1.0718841552734375;-1.9819183349609375;1.641632080078125
1445423664349;33.244232177734375;-78.8271713256836;-12.539026260375977;-0.9345855712890625;-2.0407562255859375;1.50433349609375
1445423664382;33.93890380859375;-78.81771850585938;-13.159079551696777;1.47784423828125;-6.296844482421875;2.269256591796875
1445423664414;37.552490234375;-79.57430267333984;-13.18136215209961;9.342788696289062;-18.888580322265625;0.955169677734375
1445423664447;39.83978271484375;-80.3970947265625;-13.464184761047363;8.146377563476562;-16.358474731445312;-1.18267822265625
1445423664481;42.744537353515625;-82.75221252441406;-14.286368370056152;7.204925537109375;-18.535537719726562;-1.8691558837890625
1445423664513;43.362701416015625;-84.84522247314453;-14.646133422851562;5.596649169921875;-17.358749389648438;-1.6730194091796875
1445423664546;43.868194580078125;-90.49019622802734;-14.666643142700195;4.6551971435546875;-15.926971435546875;-0.2020263671875
1445423664579;41.140655517578125;-94.53219604492188;-13.17214584350586;-1.169952392578125;-9.160385131835938;3.210693359375
1445423664613;35.91607666015625;-94.79566192626953;-11.861571311950684;-5.190673828125;-2.079986572265625;6.3292083740234375
1445423664646;28.656097412109375;-97.01222229003906;-8.527338027954102;-3.288177490234375;0.50897216796875;4.8189849853515625
1445423664679;21.378997802734375;-98.3440170288086;-8.339957237243652;1.3405609130859375;0.3520660400390625;1.7789306640625
1445423664712;18.9393310546875;-98.60562133789062;-8.861953735351562;3.556854248046875;-2.6880035400390625;0.7982635498046875
1445423664745;17.3277587890625;-98.14022064208984;-10.055623054504395;4.6159820556640625;-5.492706298828125;0.6609649658203125
1445423664777;17.14569091796875;-98.11237335205078;-11.162294387817383;5.322052001953125;-14.4755859375;-1.06500244140625
1445423664811;16.159393310546875;-99.50994110107422;-11.306543350219727;4.89056396484375;-18.45709228515625;-3.45782470703125
1445423664844;15.49481201171875;-101.72892761230469;-11.1776762008667;6.08697509765625;-21.614837646484375;-3.1244049072265625
1445423664876;14.510986328125;-103.21060943603516;-11.42041015625;6.0477447509765625;-15.5543212890625;-2.457550048828125
1445423664910;14.5462646484375;-106.33634948730469;-11.470386505126953;6.26348876953125;-12.573104858398438;-1.378814697265625
1445423664942;15.48834228515625;-106.70889282226562;-11.534879684448242;4.32177734375;-4.3159027099609375;0.5236663818359375
1445423664975;14.02093505859375;-106.05919647216797;-12.021397590637207;1.850494384765625;-1.334686279296875;2.092742919921875
1445423665008;10.7257080078125;-104.93643188476562;-13.874731063842773;1.850494384765625;-0.5893707275390625;2.0535125732421875
1445423665041;11.286895751953125;-103.27283477783203;-15.07851505279541;2.0074005126953125;-0.314788818359375;1.1512908935546875
1445423665075;12.0111083984375;-102.11424255371094;-15.44355583190918;1.30133056640625;-2.3349609375;0.01373291015625
1445423665107;11.645233154296875;-99.14745330810547;-16.206621170043945;1.4582366943359375;-5.8261260986328125;-0.94732666015625
1445423665141;5.65966796875;-95.6858901977539;-17.030881881713867;4.007965087890625;-19.869247436523438;-14.774703979492188
1445423665175;3.047515869140625;-95.56006622314453;-18.251062393188477;10.499969482421875;-21.02642822265625;-7.066680908203125
1445423665207;2.392730712890625;-99.08513641357422;-21.01131248474121;9.85272216796875;-15.397415161132812;-4.163909912109375
1445423665239;0.632232666015625;-101.19828033447266;-22.029939651489258;2.8507843017578125;-10.337188720703125;-2.4771575927734375
1445423665276;356.5505065917969;-103.31629943847656;-23.464458465576172;2.988067626953125;-9.611495971679688;1.131683349609375
1445423665306;349.6123352050781;-101.27461242675781;-23.80211067199707;3.9098968505859375;-7.3951873779296875;1.014007568359375
1445423665340;345.03948974609375;-99.09556579589844;-23.362268447875977;2.9096221923828125;-4.1197662353515625;2.4261627197265625
1445423665373;344.86572265625;-98.76261901855469;-22.695234298706055;2.4585113525390625;-2.884124755859375;3.0341796875
1445423665406;344.79339599609375;-96.5036392211914;-21.112220764160156;2.7723236083984375;-1.001251220703125;3.3675994873046875
1445423665437;343.9554748535156;-94.59590911865234;-20.36897850036621;2.6546478271484375;-1.275848388671875;2.9164886474609375
1445423665470;340.84002685546875;-90.14320373535156;-19.120820999145508;5.890838623046875;-9.96453857421875;-1.3395843505859375
1445423665503;338.7223815917969;-88.08631896972656;-19.055587768554688;3.2822723388671875;-14.80902099609375;1.8377685546875
1445423665536;337.75537109375;-87.33467102050781;-18.196874618530273;0.34027099609375;-13.926422119140625;2.8576507568359375
1445423665569;333.9306335449219;-85.19669342041016;-16.785099029541016;0.7521514892578125;-20.634170532226562;-0.0451202392578125
1445423665602;330.662353515625;-83.94718933105469;-16.143938064575195;-2.2094573974609375;-13.181106567382812;3.5441131591796875
1445423665635;327.530517578125;-82.2574234008789;-13.816750526428223;-0.4442596435546875;-13.651840209960938;2.896881103515625
1445423665669;323.4593200683594;-79.02049255371094;-11.359681129455566;1.7132110595703125;-10.749069213867188;0.562896728515625
1445423665702;321.77142333984375;-77.77912902832031;-10.673937797546387;3.81182861328125;-7.1402130126953125;-1.6533966064453125
1445423665735;318.38629150390625;-77.38201904296875;-10.382818222045898;3.3607330322265625;-5.7672882080078125;-2.02606201171875
1445423665768;314.5879821777344;-78.52589416503906;-10.05774974822998;-0.01275634765625;-5.1985015869140625;-0.574676513671875
1445423665802;315.1399841308594;-78.95909118652344;-10.137313842773438;-0.4246368408203125;-2.825286865234375;3.60296630859375
1445423665834;315.72412109375;-79.75843811035156;-10.3870849609375;0.5756378173828125;-2.648773193359375;4.0148468017578125
1445423665866;314.24053955078125;-79.84595489501953;-10.636600494384766;2.164306640625;-12.161224365234375;2.8772735595703125
1445423665899;310.5173645019531;-80.26724243164062;-11.159393310546875;1.98779296875;-17.7117919921875;4.093292236328125
1445423665933;307.5854797363281;-80.52935791015625;-11.56432056427002;-1.5033721923828125;-18.908203125;2.2888641357421875
1445423665966;305.3587646484375;-80.4427719116211;-11.459831237792969;0.34027099609375;-14.240234375;5.054351806640625
1445423665998;308.2552795410156;-80.89141082763672;-9.915312767028809;5.7927703857421875;-13.338027954101562;1.4847259521484375
1445423666031;303.68646240234375;-78.15556335449219;-9.509474754333496;0.8109893798828125;-10.003753662109375;-3.0067291259765625
1445423666066;300.81915283203125;-77.89442443847656;-9.42487907409668;-0.208892822265625;-4.6689453125;-1.7318572998046875
1445423666098;299.1440734863281;-78.73503875732422;-8.949647903442383;-0.1892852783203125;-3.3156280517578125;0.876708984375
1445423666130;300.8921813964844;-79.0032730102539;-8.412755966186523;1.1444244384765625;-2.1584320068359375;4.5247802734375
1445423666165;301.1676025390625;-77.97142028808594;-8.326309204101562;3.0076904296875;-6.983306884765625;2.151580810546875
1445423666196;300.2064514160156;-75.35047149658203;-8.504859924316406;4.77288818359375;-9.513427734375;1.9358367919921875
1445423666230;301.7174987792969;-73.5225601196289;-9.707633972167969;-1.738739013671875;-12.063156127929688;1.876983642578125
1445423666263;302.2518615722656;-73.06190490722656;-10.010970115661621;-1.7191162109375;-14.299072265625;2.0142822265625
1445423666296;302.21875;-72.81488037109375;-9.965652465820312;0.8502197265625;-20.418426513671875;1.21014404296875
1445423666329;302.73052978515625;-75.2540054321289;-10.55683708190918;6.7538299560546875;-16.907638549804688;-0.6138916015625
1445423666361;304.3877868652344;-77.70333862304688;-11.288878440856934;8.813217163085938;-13.632217407226562;-1.75146484375
1445423666394;309.9266357421875;-85.97250366210938;-13.180116653442383;6.20465087890625;-10.572540283203125;-0.2216339111328125
1445423666428;314.36224365234375;-91.43123626708984;-13.664095878601074;1.4582366943359375;-9.140777587890625;2.4850006103515625
1445423666461;320.3174133300781;-99.7601547241211;-14.399616241455078;0.5167999267578125;-7.4540252685546875;3.6225738525390625
1445423666494;321.25750732421875;-105.55107116699219;-15.077068328857422;1.497467041015625;-7.297119140625;4.1128997802734375
1445423666527;322.9210510253906;-108.48975372314453;-14.059226036071777;1.9485626220703125;-5.3161773681640625;0.2294769287109375
1445423666560;328.6661376953125;-114.26483154296875;-10.857173919677734;2.49774169921875;-5.492706298828125;-1.378814697265625
1445423666593;332.0751953125;-118.25695037841797;-7.389231204986572;1.928955078125;-9.06231689453125;-3.908935546875
1445423666626;332.7284240722656;-119.17738342285156;-5.882213115692139;0.16375732421875;-14.436370849609375;-5.0465087890625
1445423666659;331.3504943847656;-120.43711853027344;-4.4473137855529785;0.654083251953125;-13.867584228515625;-5.4583892822265625
1445423666692;329.4729919433594;-120.94762420654297;-4.756617546081543;2.3996734619140625;-10.219512939453125;-4.6150054931640625
1445423666725;326.06011962890625;-120.72575378417969;-5.716398239135742;3.1057586669921875;-8.1405029296875;-3.477447509765625
1445423666758;326.27862548828125;-119.30755615234375;-5.881545066833496;4.0275726318359375;-3.962860107421875;-1.5357208251953125
1445423666790;327.5102233886719;-116.7311019897461;-5.815279006958008;2.301605224609375;-3.727508544921875;-1.319976806640625
1445423666829;327.91021728515625;-115.48275756835938;-5.613884449005127;0.9090576171875;-4.3159027099609375;-2.967498779296875
1445423666856;329.0062255859375;-114.09342956542969;-4.800992012023926;0.477569580078125;-5.276947021484375;-4.732696533203125
1445423666890;329.0560607910156;-114.1080551147461;-4.652000904083252;0.0656890869140625;-9.317291259765625;-8.400375366210938
1445423666924;328.3457946777344;-115.75440216064453;-5.983391761779785;3.615692138671875;-13.651840209960938;-7.7139129638671875
1445423666960;326.8179626464844;-116.78912353515625;-8.3135986328125;1.3993988037109375;-12.376968383789062;-8.086563110351562
1445423666989;324.7918701171875;-116.45429992675781;-9.483306884765625;0.5167999267578125;-9.317291259765625;-5.3210906982421875
1445423667021;317.9517517089844;-114.62159729003906;-12.466419219970703;0.7521514892578125;-7.92474365234375;-3.791259765625
1445423667054;310.90338134765625;-111.45146179199219;-15.503301620483398;2.635040283203125;-6.983306884765625;-1.6533966064453125
1445423667088;308.50958251953125;-109.48936462402344;-16.703712463378906;2.49774169921875;-7.3363494873046875;-1.9279937744140625
1445423667121;305.1578674316406;-106.0915756225586;-18.764148712158203;2.49774169921875;-6.630279541015625;-1.712249755859375
1445423667154;303.9085998535156;-104.75940704345703;-19.399377822875977;2.0074005126953125;-4.4335784912109375;-1.202301025390625
1445423667187;302.0650329589844;-102.22856903076172;-19.648639678955078;2.0270233154296875;-4.727783203125;-0.574676513671875
1445423667221;300.67828369140625;-99.84205627441406;-20.476367950439453;5.322052001953125;-13.84796142578125;0.58251953125
1445423667253;298.7305908203125;-99.03831481933594;-21.17180061340332;4.439453125;-16.829193115234375;0.5432891845703125
1445423667286;295.65118408203125;-96.74512481689453;-20.42411231994629;1.850494384765625;-12.65155029296875;5.466217041015625
1445423667318;302.8559265136719;-96.0223159790039;-18.09259033203125;3.615692138671875;-11.298233032226562;3.9363861083984375
1445423667351;304.6987609863281;-94.80058288574219;-17.542787551879883;0.477569580078125;-11.729736328125;1.582794189453125
1445423667385;306.0638427734375;-91.5361099243164;-15.672080993652344;0.7129364013671875;-11.239395141601562;1.1709136962890625
1445423667418;307.3699035644531;-88.47965240478516;-13.198988914489746;1.36016845703125;-9.650726318359375;0.052947998046875
1445423667450;308.130126953125;-87.32424926757812;-12.301698684692383;2.419281005859375;-8.611221313476562;-1.143463134765625
1445423667483;310.07061767578125;-86.89591979980469;-11.546908378601074;3.63531494140625;-7.552093505859375;-2.7909698486328125
1445423667517;316.5504455566406;-89.11978912353516;-11.340473175048828;2.38006591796875;-5.276947021484375;-0.751190185546875
1445423667549;320.8186340332031;-90.35871124267578;-10.849453926086426;-0.1696624755859375;-4.6297149658203125;1.3474273681640625
1445423667583;326.87249755859375;-90.39647674560547;-8.402332305908203;-0.3069610595703125;-13.1614990234375;4.0148468017578125
1445423667617;325.9435119628906;-88.17369079589844;-8.082056045532227;-0.34619140625;-16.162338256835938;-2.9282684326171875
1445423667649;326.6442565917969;-88.73998260498047;-8.148053169250488;0.4383392333984375;-12.788848876953125;0.935546875
1445423667681;333.198974609375;-89.72239685058594;-6.745893955230713;-0.777679443359375;-11.317855834960938;5.466217041015625
1445423667714;335.6953430175781;-88.52299499511719;-6.009640693664551;0.0068511962890625;-11.808181762695312;0.4256134033203125
1445423667748;334.03936767578125;-84.48343658447266;-4.878427505493164;0.0656890869140625;-10.7098388671875;-1.8691558837890625
1445423667781;335.2752685546875;-82.3324203491211;-4.923856258392334;1.5955352783203125;-9.90570068359375;-3.28131103515625
1445423667815;335.38446044921875;-82.20860290527344;-5.06876277923584;0.2618255615234375;-7.86590576171875;-2.8105926513671875
1445423667846;334.9817199707031;-82.99781799316406;-4.9530792236328125;-0.228515625;-6.5714263916015625;-2.20257568359375
1445423667880;337.864990234375;-84.35497283935547;-4.8364458084106445;-0.228515625;-6.7871856689453125;3.5441131591796875
1445423667913;340.515869140625;-84.44217681884766;-4.77625846862793;1.3993988037109375;-8.5523681640625;5.15240478515625
1445423667945;341.1346435546875;-82.95426940917969;-4.6125946044921875;1.3405609130859375;-11.847412109375;2.269256591796875
1445423667978;341.1882019042969;-81.78900146484375;-4.685798168182373;-0.0716094970703125;-14.240234375;1.4258880615234375
1445423668012;342.1636047363281;-79.95750427246094;-5.380271911621094;0.026458740234375;-13.828353881835938;0.680572509765625
1445423668045;341.3140869140625;-78.67858123779297;-5.989607810974121;0.2618255615234375;-11.670883178710938;-1.2219085693359375
1445423668078;341.36871337890625;-78.31919860839844;-6.279539585113525;0.1245269775390625;-7.2186737060546875;0.5236663818359375
1445423668111;342.24407958984375;-78.24717712402344;-6.565971374511719;0.7325439453125;-5.3946380615234375;1.8573760986328125
1445423668144;346.7477722167969;-78.16134643554688;-7.50300407409668;1.791656494140625;-5.551544189453125;1.759307861328125
1445423668177;347.76666259765625;-77.74137115478516;-7.985258102416992;1.8897247314453125;-9.160385131835938;0.7786407470703125
1445423668210;350.0238037109375;-77.00724792480469;-9.310133934020996;2.0074005126953125;-12.239669799804688;1.3670501708984375
1445423668243;351.0978698730469;-77.30875396728516;-10.585195541381836;1.6935882568359375;-16.672286987304688;0.2883148193359375
1445423668276;350.8831481933594;-78.32166290283203;-11.045754432678223;2.1446990966796875;-15.907363891601562;-0.2216339111328125
1445423668308;351.6969909667969;-82.86064910888672;-12.04335880279541;4.5963592529296875;-15.005157470703125;-0.3393096923828125
1445423668341;353.85546875;-90.4558334350586;-13.72249698638916;3.57647705078125;-12.318130493164062;-0.0254974365234375
1445423668375;355.7060852050781;-94.61922454833984;-14.014873504638672;1.811279296875;-10.6510009765625;0.445220947265625
1445423668409;358.1587829589844;-99.52275085449219;-13.074419021606445;0.654083251953125;-7.23828125;1.818145751953125
1445423668441;358.4336242675781;-100.53133392333984;-12.498469352722168;1.47784423828125;-5.0023651123046875;0.58251953125
1445423668474;358.06201171875;-102.1934814453125;-11.13725471496582;0.7717742919921875;-4.3159027099609375;-0.4373779296875
1445423668507;356.2024841308594;-103.83556365966797;-9.158228874206543;-0.01275634765625;-3.845184326171875;-0.5354461669921875
1445423668540;355.05401611328125;-104.56729125976562;-8.263508796691895;1.6935882568359375;-6.1399383544921875;-1.06500244140625
1445423668574;352.8648986816406;-106.13088989257812;-7.698052406311035;2.8507843017578125;-9.493820190429688;-1.4180450439453125
1445423668607;349.5361633300781;-106.91590881347656;-8.77650260925293;2.046630859375;-16.8095703125;-2.8890380859375
1445423668639;347.9927062988281;-106.94198608398438;-9.156627655029297;3.3411102294921875;-15.142440795898438;-3.28131103515625
1445423668674;345.2356262207031;-107.17906951904297;-9.116727828979492;2.360443115234375;-13.749893188476562;-3.51666259765625
1445423668705;342.72833251953125;-107.13626098632812;-9.151841163635254;1.5759124755859375;-10.749069213867188;-3.5558929443359375
1445423668737;337.1875;-106.408447265625;-9.829090118408203;1.47784423828125;-9.258453369140625;-2.8694305419921875
1445423668771;331.6650390625;-106.07063293457031;-11.177275657653809;0.4971771240234375;-7.061767578125;-2.4183197021484375
1445423668805;323.2806396484375;-106.40385437011719;-13.901782989501953;-0.6207733154296875;-5.1200408935546875;-1.2807464599609375
1445423668837;318.2236022949219;-106.64507293701172;-15.500530242919922;-0.777679443359375;-4.8846893310546875;-0.810028076171875
1445423668870;310.4128723144531;-106.26956176757812;-17.49111557006836;1.164031982421875;-5.0219879150390625;-0.9080963134765625
1445423668903;308.4266357421875;-105.8449478149414;-17.947330474853516;3.4587860107421875;-7.3951873779296875;-1.496490478515625
1445423668936;305.5923767089844;-104.44385528564453;-18.54364585876465;4.6159820556640625;-9.572265625;-1.75146484375
1445423668970;301.7245178222656;-102.03684997558594;-19.717592239379883;7.2441558837890625;-13.55377197265625;-0.574676513671875
1445423669006;300.7860107421875;-101.20024871826172;-20.37685203552246;8.460189819335938;-16.00543212890625;-0.241241455078125
1445423669035;300.734375;-101.02417755126953;-20.883453369140625;5.322052001953125;-11.670883178710938;-1.3003692626953125
1445423669067;299.2152404785156;-100.1668701171875;-20.38210678100586;0.9482879638671875;-7.74822998046875;-1.00616455078125
1445423669100;298.45623779296875;-99.49961853027344;-20.07451057434082;-0.032379150390625;-6.5125885009765625;-0.82965087890625
1445423669133;297.4447021484375;-97.58929443359375;-19.793941497802734;-0.777679443359375;-4.8258514404296875;-0.182403564453125
1445423669167;297.082763671875;-96.73316955566406;-19.591726303100586;1.5955352783203125;-3.845184326171875;0.36676025390625
1445423669200;296.6436767578125;-95.3630142211914;-18.39105796813965;3.6549224853515625;-5.8261260986328125;-0.2020263671875
1445423669233;293.5540771484375;-92.78443145751953;-18.089887619018555;4.0275726318359375;-15.691619873046875;-1.1630706787109375
1445423669265;290.3146667480469;-91.19506072998047;-18.397075653076172;2.5958099365234375;-16.260406494140625;-1.9279937744140625
1445423669298;288.94378662109375;-91.0273208618164;-19.115751266479492;0.5560302734375;-12.161224365234375;2.3084869384765625
1445423669332;293.751708984375;-93.80635833740234;-17.74289321899414;3.2822723388671875;-12.02392578125;2.3477020263671875
1445423669365;294.29681396484375;-93.54804229736328;-17.22681999206543;2.7919464111328125;-11.043258666992188;1.072845458984375
1445423669398;291.90032958984375;-92.14221954345703;-16.914220809936523;0.1833648681640625;-9.356521606445312;-0.064727783203125
1445423669430;290.84600830078125;-91.16744232177734;-15.876506805419922;1.5955352783203125;-8.081649780273438;-0.574676513671875
1445423669463;290.3798828125;-90.51283264160156;-15.401081085205078;2.55657958984375;-7.74822998046875;-0.9080963134765625
1445423669496;287.5599670410156;-88.82836151123047;-14.576353073120117;3.0861358642578125;-6.6498870849609375;-1.0453948974609375
1445423669529;286.157958984375;-88.07584381103516;-14.130303382873535;2.301605224609375;-7.885528564453125;-1.51611328125
1445423669562;283.3592834472656;-86.69686126708984;-13.191152572631836;2.164306640625;-10.239120483398438;-1.2219085693359375
1445423669596;284.4130859375;-85.32406616210938;-12.4577054977417;-0.1696624755859375;-10.807907104492188;1.4258880615234375
1445423669629;286.5227966308594;-85.16943359375;-11.98641586303711;1.105194091796875;-13.239959716796875;3.093017578125
1445423669662;287.5719299316406;-84.61084747314453;-11.315523147583008;1.928955078125;-13.2203369140625;2.955718994140625
1445423669695;284.7609558105469;-82.45353698730469;-10.449390411376953;1.2817230224609375;-12.102386474609375;2.46539306640625
1445423669728;284.1207580566406;-81.44244384765625;-10.003807067871094;1.0659637451171875;-10.631378173828125;2.1711883544921875
1445423669761;285.52398681640625;-79.96302032470703;-9.284281730651855;1.8897247314453125;-9.513427734375;2.1319580078125
1445423669793;285.35113525390625;-78.78218078613281;-8.984101295471191;2.6546478271484375;-8.1405029296875;0.6609649658203125
1445423669832;283.57208251953125;-78.38873291015625;-9.040006637573242;-0.7384490966796875;-7.92474365234375;0.36676025390625
1445423669860;281.5732421875;-78.272216796875;-8.99329662322998;-0.9934234619140625;-7.375579833984375;0.7786407470703125
1445423669892;282.10809326171875;-78.28227996826172;-8.805669784545898;1.5759124755859375;-8.179718017578125;1.0336151123046875
1445423669930;281.8094177246094;-78.31019592285156;-8.530014991760254;0.3991241455078125;-10.474472045898438;1.465118408203125
1445423669958;283.116455078125;-78.58149719238281;-8.553812026977539;0.3991241455078125;-11.27862548828125;2.1711883544921875
1445423669991;283.50384521484375;-78.66714477539062;-8.609842300415039;2.2231597900390625;-13.84796142578125;1.6220245361328125
1445423670025;281.5648193359375;-79.12667083740234;-9.201775550842285;0.5756378173828125;-13.298797607421875;1.641632080078125
1445423670058;281.91339111328125;-79.88648223876953;-9.85998249053955;-0.2481231689453125;-12.671173095703125;2.975341796875
1445423670091;281.9975280761719;-80.05883026123047;-10.051587104797363;-0.4442596435546875;-9.748779296875;1.523956298828125
1445423670124;280.60333251953125;-80.17965698242188;-10.584700584411621;-0.777679443359375;-8.709274291992188;1.4062652587890625
1445423670157;280.870361328125;-80.31599426269531;-11.252714157104492;-0.640380859375;-6.8264007568359375;2.2888641357421875
1445423670195;279.75823974609375;-80.13916778564453;-12.428045272827148;-0.522705078125;-7.1990509033203125;0.955169677734375
1445423670223;278.2821044921875;-79.9455337524414;-13.237150192260742;-0.5030975341796875;-8.081649780273438;0.896331787109375
1445423670256;274.92169189453125;-79.82087707519531;-14.808059692382812;-0.4442596435546875;-9.219223022460938;0.621734619140625
1445423670288;272.99884033203125;-79.88092803955078;-15.426865577697754;-0.0519866943359375;-9.944915771484375;0.5432891845703125
1445423670323;268.2027282714844;-80.3121566772461;-16.6467342376709;2.242767333984375;-12.59271240234375;-0.2804718017578125
1445423670359;260.3526916503906;-81.47608184814453;-18.476682662963867;4.243316650390625;-15.4366455078125;-2.02606201171875
1445423670387;256.1243896484375;-82.60193634033203;-19.232160568237305;3.7333831787109375;-14.181396484375;-2.2418060302734375
1445423670420;250.48526000976562;-85.89241027832031;-19.272451400756836;2.693878173828125;-14.220611572265625;-1.7318572998046875
1445423670455;248.9984130859375;-87.80612182617188;-18.835140228271484;-1.3072357177734375;-11.51397705078125;1.4258880615234375
1445423670488;249.13800048828125;-90.50010681152344;-17.470191955566406;-4.0334930419921875;-9.513427734375;5.113189697265625
1445423670520;250.572998046875;-91.29795837402344;-14.049552917480469;-2.425201416015625;-5.5711517333984375;5.5839080810546875
1445423670552;251.33209228515625;-92.03611755371094;-12.320413589477539;1.438629150390625;-5.3358001708984375;1.5435638427734375
1445423670585;248.62640380859375;-93.77967071533203;-10.841193199157715;2.2623748779296875;-6.238006591796875;0.07257080078125
1445423670618;245.25430297851562;-95.38969421386719;-10.511640548706055;4.066802978515625;-9.258453369140625;0.327545166015625
1445423670652;239.39996337890625;-99.44657897949219;-9.581894874572754;5.1063079833984375;-12.435806274414062;-0.1039581298828125
1445423670686;235.84292602539062;-103.21710205078125;-8.117517471313477;1.36016845703125;-18.496322631835938;-0.4766082763671875
1445423670718;232.9962158203125;-109.745849609375;-6.881463050842285;1.18365478515625;-19.516204833984375;-3.5558929443359375
1445423670750;230.6783447265625;-113.39973449707031;-6.752890586853027;3.2234344482421875;-16.319244384765625;-2.8498077392578125
1445423670783;224.0078125;-119.7762222290039;-7.888676166534424;3.1842041015625;-9.434967041015625;-1.0257720947265625
1445423670816;220.98287963867188;-121.95267486572266;-8.869140625;1.53668212890625;-6.179168701171875;-0.123565673828125
1445423670850;214.75360107421875;-124.52217102050781;-11.6522855758667;1.41900634765625;-4.8258514404296875;0.01373291015625
1445423670882;206.60302734375;-124.78855895996094;-14.27790355682373;1.6935882568359375;-2.2957305908203125;-0.751190185546875
1445423670915;202.73876953125;-124.2139663696289;-15.357024192810059;0.16375732421875;-1.64849853515625;-0.4962158203125
1445423670950;197.73394775390625;-122.19155883789062;-17.449512481689453;-0.601165771484375;-2.5507049560546875;-0.3393096923828125
1445423670981;193.90386962890625;-119.11274719238281;-20.006052017211914;0.04608154296875;-5.5907745361328125;-1.319976806640625
1445423671015;190.93670654296875;-117.31244659423828;-21.2556095123291;4.3610076904296875;-10.5921630859375;-2.37908935546875
1445423671048;181.28466796875;-112.0910873413086;-23.24971580505371;6.6753692626953125;-12.396575927734375;-2.20257568359375
1445423671081;165.95968627929688;-106.81834411621094;-22.84109878540039;11.500244140625;-12.945755004882812;-3.830474853515625
1445423671113;158.71051025390625;-105.2623519897461;-22.383045196533203;12.775115966796875;-15.4366455078125;-2.8302001953125
1445423671147;148.37081909179688;-103.96873474121094;-22.54706382751465;9.401626586914062;-14.044097900390625;-1.2807464599609375
1445423671180;147.22618103027344;-102.98225402832031;-21.957477569580078;3.3411102294921875;-8.3758544921875;-1.3395843505859375
1445423671213;146.84869384765625;-102.49858093261719;-21.38604164123535;2.164306640625;-6.8264007568359375;-1.2219085693359375
1445423671246;145.66549682617188;-100.92449951171875;-20.68743324279785;-0.58154296875;-4.021697998046875;0.4648284912109375
1445423671279;144.96585083007812;-100.1347427368164;-20.344881057739258;-0.97381591796875;-1.9819183349609375;2.1123504638671875
1445423671311;142.17654418945312;-97.89075469970703;-18.66126251220703;0.869842529296875;-3.276397705078125;2.2888641357421875
1445423671345;138.17233276367188;-94.46703338623047;-16.64033317565918;5.2436065673828125;-13.808746337890625;1.50433349609375
1445423671378;138.15745544433594;-92.09283447265625;-16.0567626953125;-0.091217041015625;-13.90679931640625;3.60296630859375
1445423671411;141.65985107421875;-87.9860610961914;-13.487964630126953;-0.1892852783203125;-17.397979736328125;3.7402496337890625
1445423671443;150.13270568847656;-85.39029693603516;-11.35731315612793;-1.346466064453125;-16.221176147460938;1.4847259521484375
1445423671477;152.8114013671875;-84.63662719726562;-10.615781784057617;-0.522705078125;-15.10321044921875;3.1714630126953125
1445423671510;156.5457000732422;-83.24028778076172;-9.04186725616455;1.497467041015625;-11.670883178710938;1.4258880615234375
1445423671542;157.35594177246094;-81.61068725585938;-8.079912185668945;3.2038116455078125;-8.336624145507812;-0.5550537109375
1445423671576;157.09823608398438;-81.07135009765625;-7.9755754470825195;2.8899993896484375;-6.8460235595703125;-0.6727447509765625
1445423671608;158.88682556152344;-80.64311218261719;-8.138264656066895;0.242218017578125;-4.845458984375;1.014007568359375
1445423671641;160.33074951171875;-80.06414031982422;-8.213459968566895;0.7325439453125;-5.0808258056640625;2.6811370849609375
1445423671677;160.51048278808594;-77.65705871582031;-8.354215621948242;1.732818603515625;-6.983306884765625;2.092742919921875
1445423671708;160.72093200683594;-76.05341339111328;-8.731087684631348;2.2035369873046875;-10.435256958007812;0.07257080078125
1445423671741;165.87777709960938;-72.93944549560547;-10.912114143371582;-3.30780029296875;-11.474761962890625;-0.5550537109375
1445423671774;178.17713928222656;-71.14934539794922;-12.32090950012207;-4.2100067138671875;-14.259841918945312;0.5432891845703125
1445423671807;183.2069091796875;-70.52912139892578;-11.393329620361328;1.30133056640625;-18.770904541015625;1.308197021484375
1445423671840;181.79052734375;-70.79782104492188;-10.920879364013672;4.2041015625;-18.672836303710938;0.955169677734375
1445423671874;176.8614959716797;-73.38400268554688;-11.191852569580078;5.380889892578125;-13.1614990234375;0.052947998046875
1445423671907;173.15757751464844;-79.89771270751953;-13.08748722076416;3.75299072265625;-11.357070922851562;1.641632080078125
1445423671941;173.61917114257812;-83.86569213867188;-13.922685623168945;1.41900634765625;-10.454864501953125;1.8966064453125
1445423671974;175.03721618652344;-90.0887451171875;-14.822328567504883;-1.5622100830078125;-7.7678375244140625;3.289154052734375
1445423672006;175.32257080078125;-92.69559478759766;-15.171355247497559;-0.032379150390625;-6.1595458984375;2.0535125732421875
1445423672038;173.2209930419922;-97.47377014160156;-16.31854248046875;1.0855865478515625;-5.3161773681640625;1.641632080078125
1445423672071;169.3106689453125;-102.07200622558594;-17.8752498626709;1.732818603515625;-5.4534759521484375;0.2686920166015625
1445423672107;167.17330932617188;-104.32142639160156;-18.45531463623047;1.3797760009765625;-8.238555908203125;-0.7119598388671875
1445423672136;161.41854858398438;-107.47176361083984;-19.19419288635254;2.360443115234375;-17.49603271484375;-0.0451202392578125
1445423672169;153.90631103515625;-108.96224212646484;-19.048974990844727;2.3996734619140625;-14.299072265625;-1.51611328125
1445423672205;149.45086669921875;-109.09214782714844;-18.342817306518555;2.5173492431640625;-12.41619873046875;-1.692626953125
1445423672236;136.96311950683594;-107.73853302001953;-17.007610321044922;1.3993988037109375;-9.238845825195312;-0.2020263671875
1445423672268;122.28878784179688;-105.80259704589844;-16.75431251525879;1.6935882568359375;-7.042144775390625;-0.300079345703125
1445423672302;114.92556762695312;-105.299560546875;-16.675798416137695;2.419281005859375;-6.4537506103515625;-0.5942840576171875
1445423672335;103.16156005859375;-105.0623779296875;-16.558595657348633;2.49774169921875;-5.3358001708984375;-0.7119598388671875
1445423672369;91.76480102539062;-104.8754653930664;-17.085346221923828;2.2623748779296875;-5.0612030029296875;0.30792236328125
1445423672400;85.33212280273438;-104.3631362915039;-17.79085922241211;2.9684600830078125;-5.9634246826171875;0.4844512939453125
1445423672434;74.05450439453125;-102.51982879638672;-19.411561965942383;5.1063079833984375;-10.396026611328125;-0.5550537109375
1445423672467;69.771240234375;-101.38407897949219;-20.090965270996094;5.8712310791015625;-12.278900146484375;-1.810302734375
1445423672499;62.685882568359375;-99.09761810302734;-21.33078956604004;6.577301025390625;-12.631942749023438;-2.5359954833984375
1445423672533;55.299041748046875;-97.80329132080078;-21.607215881347656;7.2441558837890625;-13.867584228515625;0.641357421875
1445423672567;52.83038330078125;-97.41087341308594;-21.622209548950195;7.597198486328125;-13.141891479492188;0.81787109375
1445423672598;49.318115234375;-96.82789611816406;-21.49043846130371;4.753265380859375;-9.807632446289062;0.759033203125
1445423672632;44.5709228515625;-95.80760955810547;-21.293054580688477;0.9678955078125;-8.846572875976562;-0.9865570068359375
1445423672665;41.134857177734375;-94.7350082397461;-21.177000045776367;-0.326568603515625;-8.022811889648438;-1.0453948974609375
1445423672697;32.597869873046875;-92.9638671875;-20.27664566040039;-2.0721588134765625;-6.296844482421875;0.680572509765625
1445423672730;29.671173095703125;-92.413330078125;-19.219560623168945;-1.0130462646484375;-3.5706024169921875;2.445770263671875
1445423672764;26.410980224609375;-90.96656036376953;-16.538753509521484;1.3209381103515625;-4.2570648193359375;3.1910858154296875
1445423672797;23.89227294921875;-88.08409881591797;-15.54415225982666;5.9889068603515625;-12.612335205078125;3.72064208984375
1445423672831;22.06353759765625;-86.73624420166016;-15.759788513183594;4.9690093994140625;-16.848800659179688;-0.7315826416015625
1445423672863;16.81829833984375;-84.83687591552734;-15.346023559570312;0.9090576171875;-17.535263061523438;-1.3395843505859375
1445423672895;15.004730224609375;-85.1249771118164;-13.804664611816406;-1.6210479736328125;-14.593276977539062;1.6024017333984375
1445423672929;13.00433349609375;-85.25395202636719;-12.83761215209961;-1.464141845703125;-12.828079223632812;2.0535125732421875
1445423672961;7.7198486328125;-84.65693664550781;-11.396974563598633;0.9482879638671875;-10.219512939453125;0.2686920166015625
1445423672995;359.6800842285156;-84.25346374511719;-11.014130592346191;0.026458740234375;-8.297409057617188;-0.6138916015625
1445423673028;354.9416809082031;-84.50064849853516;-10.786356925964355;-0.8169097900390625;-7.257904052734375;-0.810028076171875
1445423673062;345.09326171875;-85.1826400756836;-10.022666931152344;-3.6608428955078125;-5.5907745361328125;0.13140869140625
1445423673093;340.5931396484375;-85.37872314453125;-9.22754955291748;-3.6608428955078125;-4.923919677734375;6.1330718994140625
1445423673127;335.38128662109375;-85.11225128173828;-7.0719122886657715;-0.58154296875;-8.081649780273438;6.11346435546875
1445423673160;332.3061828613281;-85.11329650878906;-6.348719120025635;4.5571441650390625;-13.90679931640625;3.6814117431640625
1445423673192;329.439453125;-84.7558822631836;-6.403871536254883;3.949127197265625;-15.240509033203125;0.4256134033203125
1445423673226;323.0271301269531;-84.1752700805664;-6.95141077041626;-0.2481231689453125;-15.083602905273438;2.210418701171875
1445423673259;320.0609130859375;-84.37156677246094;-5.976630687713623;-0.5030975341796875;-13.49493408203125;4.269805908203125
1445423673292;317.6610107421875;-83.75482177734375;-5.412163734436035;1.53668212890625;-9.886077880859375;0.994384765625
1445423673325;311.9824523925781;-82.59485626220703;-5.150757312774658;1.046356201171875;-8.238555908203125;0.562896728515625
1445423673357;310.1092529296875;-82.54668426513672;-5.160562515258789;0.6933135986328125;-5.159271240234375;-1.0257720947265625
1445423673395;304.32598876953125;-83.0241928100586;-5.007359504699707;-0.718841552734375;-4.0609283447265625;-0.751190185546875
1445423673425;298.9654541015625;-84.58092498779297;-5.080047607421875;-0.601165771484375;-4.355133056640625;1.44549560546875
1445423673457;296.8957214355469;-86.7822036743164;-5.439630031585693;0.2618255615234375;-9.768402099609375;2.975341796875
1445423673492;295.6293029785156;-87.75471496582031;-5.602990627288818;2.43890380859375;-12.376968383789062;0.562896728515625
1445423673524;290.7052307128906;-87.80879211425781;-5.872223377227783;3.0665283203125;-16.083877563476562;0.7001953125
1445423673556;288.6797180175781;-87.621826171875;-6.207043170928955;0.301055908203125;-15.691619873046875;0.7394256591796875
1445423673588;284.57763671875;-87.92005157470703;-6.812307834625244;-0.718841552734375;-13.083053588867188;1.700469970703125
1445423673621;284.2667541503906;-87.88638305664062;-6.520089626312256;-1.111114501953125;-9.513427734375;3.2499237060546875
1445423673655;284.09918212890625;-87.25238800048828;-6.151171684265137;2.183929443359375;-7.610931396484375;1.7397003173828125
1445423673687;280.9702453613281;-84.99372100830078;-5.7962470054626465;2.67425537109375;-7.179443359375;0.504058837890625
1445423673720;275.687255859375;-83.30571746826172;-6.687505722045898;2.242767333984375;-7.610931396484375;-0.5942840576171875
1445423673757;273.6709289550781;-82.98072052001953;-7.396245956420898;1.2621002197265625;-7.9835968017578125;0.1510162353515625
1445423673787;271.0977783203125;-82.2786865234375;-8.61700439453125;0.477569580078125;-12.612335205078125;1.523956298828125
1445423673820;266.43426513671875;-81.81426239013672;-9.569125175476074;0.242218017578125;-13.710678100585938;-1.5553436279296875
1445423673852;264.24652099609375;-81.93605041503906;-10.218573570251465;-1.1895599365234375;-12.53387451171875;0.3471527099609375
1445423673886;262.6519470214844;-83.36515808105469;-11.64650821685791;-1.464141845703125;-11.298233032226562;3.60296630859375
1445423673919;261.38226318359375;-84.21808624267578;-12.057727813720703;-0.34619140625;-11.121719360351562;3.1910858154296875
1445423673952;258.3179931640625;-85.36904907226562;-12.873638153076172;0.869842529296875;-10.101821899414062;2.3673248291015625
1445423673985;252.05117797851562;-86.28842163085938;-14.943272590637207;1.556304931640625;-8.2581787109375;-1.810302734375
1445423674020;247.8043212890625;-87.31346130371094;-16.399799346923828;0.10491943359375;-6.8264007568359375;-3.8697052001953125
1445423674050;241.42041015625;-91.67469024658203;-19.010892868041992;1.4582366943359375;-6.5910491943359375;-3.16363525390625
1445423674084;237.25015258789062;-96.40209197998047;-20.704330444335938;1.9485626220703125;-12.9261474609375;-1.084625244140625
1445423674116;235.31787109375;-97.9117431640625;-21.447145462036133;2.125091552734375;-12.965362548828125;-0.3589324951171875
1445423674150;231.29840087890625;-99.87792205810547;-22.133195877075195;4.5571441650390625;-11.10211181640625;-0.3589324951171875
1445423674183;227.40460205078125;-100.7375259399414;-21.142885208129883;5.6358642578125;-11.51397705078125;-0.82965087890625
1445423674216;224.93988037109375;-100.83195495605469;-20.418062210083008;5.0474700927734375;-11.259017944335938;-0.82965087890625
1445423674249;220.04452514648438;-100.19783782958984;-18.461658477783203;2.0858612060546875;-10.297958374023438;-0.5942840576171875
1445423674282;216.821533203125;-99.41714477539062;-15.709589004516602;0.4383392333984375;-8.356246948242188;0.2098541259765625
1445423674315;215.77590942382812;-99.28495025634766;-14.312621116638184;0.6933135986328125;-7.826690673828125;0.7198028564453125
1445423674347;212.79791259765625;-99.44956970214844;-11.692371368408203;0.869842529296875;-6.5322113037109375;0.2686920166015625
1445423674381;210.00128173828125;-99.83154296875;-10.656254768371582;1.5170745849609375;-7.1009979248046875;-0.2216339111328125
1445423674415;204.17041015625;-102.0509033203125;-8.803085327148438;2.6546478271484375;-8.1405029296875;-0.3785400390625
1445423674447;198.0863037109375;-105.0619125366211;-7.6781744956970215;5.00823974609375;-10.788284301757812;-0.5942840576171875
1445423674479;195.27325439453125;-106.69290161132812;-7.518336772918701;5.4789581298828125;-12.867294311523438;-0.3589324951171875
1445423674512;190.1290283203125;-109.43744659423828;-7.316287040710449;5.2239837646484375;-16.750732421875;-1.4768829345703125
1445423674545;185.033935546875;-110.98471069335938;-6.276423454284668;3.9098968505859375;-12.553482055664062;-2.1829681396484375
1445423674579;182.280029296875;-111.279541015625;-5.782304286956787;2.8507843017578125;-9.788009643554688;-2.1241302490234375
1445423674611;177.81222534179688;-111.08763122558594;-5.401994228363037;1.8897247314453125;-7.12060546875;-1.261138916015625
1445423674645;176.30555725097656;-110.48822784423828;-5.475790023803711;2.811553955078125;-5.7084503173828125;-0.1627960205078125
1445423674678;174.60159301757812;-108.8167495727539;-5.549014568328857;3.0665283203125;-5.159271240234375;0.0333404541015625
1445423674710;174.14907836914062;-106.94307708740234;-5.6733784675598145;2.635040283203125;-5.0808258056640625;-0.9865570068359375
1445423674744;174.1371307373047;-106.20384979248047;-5.645914077758789;2.9096221923828125;-5.9438018798828125;-4.8699798583984375
1445423674777;174.4751739501953;-105.89226531982422;-5.284482002258301;3.8510589599609375;-7.944366455078125;-6.850921630859375
1445423674809;172.46971130371094;-107.80351257324219;-6.961608409881592;2.419281005859375;-15.515090942382812;-4.2619781494140625
1445423674843;171.39620971679688;-109.08477020263672;-7.719381332397461;3.3018798828125;-16.378082275390625;-2.20257568359375
1445423674876;172.80799865722656;-112.78450012207031;-7.947141170501709;2.4585113525390625;-14.514816284179688;-5.3799285888671875
1445423674909;174.55560302734375;-115.38689422607422;-8.76250171661377;1.2817230224609375;-11.376693725585938;-4.9876708984375
1445423674941;175.75930786132812;-115.82245635986328;-9.12978744506836;1.164031982421875;-10.8275146484375;-4.4384918212890625
1445423674975;177.09547424316406;-114.78231048583984;-10.143600463867188;-0.287353515625;-9.513427734375;-4.2423553466796875
1445423675009;174.3102569580078;-113.7269287109375;-12.020896911621094;2.38006591796875;-6.3164520263671875;-2.908660888671875
1445423675048;173.79393005371094;-114.43852996826172;-14.100179672241211;2.5958099365234375;-3.5313720703125;-2.065277099609375
1445423675073;174.92918395996094;-115.28300476074219;-14.808011054992676;2.7919464111328125;-2.84490966796875;-2.1829681396484375
1445423675108;176.04222106933594;-116.0926513671875;-15.154458045959473;3.8510589599609375;-2.9233551025390625;-2.1829681396484375
1445423675140;176.1869659423828;-117.28292846679688;-15.88907241821289;3.69415283203125;-3.727508544921875;-2.20257568359375
1445423675173;176.41482543945312;-117.95491790771484;-15.83298110961914;3.81182861328125;-8.356246948242188;-3.1832427978515625
1445423675206;177.12747192382812;-117.63382720947266;-15.142949104309082;3.57647705078125;-11.121719360351562;-4.3796539306640625
1445423675240;178.1985321044922;-115.5103759765625;-11.911859512329102;2.7134857177734375;-11.572830200195312;-3.85009765625
1445423675273;180.86370849609375;-112.41239929199219;-8.380911827087402;4.4198455810546875;-15.005157470703125;-4.163909912109375
1445423675305;184.168212890625;-110.10122680664062;-7.422732353210449;4.635589599609375;-17.14300537109375;-5.8114166259765625
1445423675338;190.4381103515625;-105.38070678710938;-6.0731916427612305;4.066802978515625;-11.004043579101562;-3.6343536376953125
1445423675373;194.9222412109375;-102.2658920288086;-4.819190502166748;3.615692138671875;-4.7473907470703125;-0.0843353271484375
1445423675404;196.91412353515625;-100.56886291503906;-4.708749771118164;2.61541748046875;-3.6882781982421875;-0.0451202392578125
1445423675437;203.21856689453125;-96.18252563476562;-3.3894970417022705;-2.3271331787109375;-6.7871856689453125;1.4258880615234375
1445423675470;207.4898681640625;-93.85807037353516;-2.0755438804626465;0.7129364013671875;-15.4366455078125;1.523956298828125
1445423675503;214.666015625;-89.396484375;-0.5797358751296997;0.9678955078125;-16.495758056640625;0.641357421875
1445423675536;219.06201171875;-87.30789947509766;0.11371076852083206;2.8311614990234375;-11.21978759765625;3.0537872314453125
1445423675569;222.5958251953125;-87.13892364501953;-0.14137481153011322;1.36016845703125;-12.53387451171875;6.5645751953125
1445423675601;231.76400756835938;-85.72479248046875;-0.7865670323371887;-1.3268585205078125;-13.592987060546875;6.7018585205078125
1445423675635;241.32589721679688;-84.65047454833984;-1.0689747333526611;-1.0130462646484375;-12.553482055664062;2.75958251953125
1445423675667;245.76773071289062;-84.39372253417969;-1.4927172660827637;0.6148681640625;-11.200164794921875;1.5435638427734375
1445423675701;254.380859375;-84.07865905761719;-3.1377365589141846;0.2618255615234375;-7.669769287109375;0.8571014404296875
1445423675733;264.1554870605469;-84.63765716552734;-4.873925685882568;-1.7583465576171875;-5.8653564453125;0.58251953125
1445423675766;269.96832275390625;-85.46903991699219;-5.610025405883789;-2.40557861328125;-5.3946380615234375;0.7786407470703125
1445423675800;282.8207702636719;-88.10083770751953;-6.230361461639404;-2.601715087890625;-6.120330810546875;1.2885894775390625
1445423675832;288.61944580078125;-88.9571304321289;-6.08376932144165;3.4587860107421875;-11.90625;-0.515838623046875
1445423675866;292.87664794921875;-87.88972473144531;-7.233116626739502;3.0272979736328125;-14.495208740234375;-0.77081298828125
1445423675899;294.0830993652344;-86.60891723632812;-9.361227989196777;-2.28790283203125;-16.044662475585938;0.24908447265625
1445423675932;295.82342529296875;-86.59088897705078;-9.888249397277832;-0.4442596435546875;-13.49493408203125;2.0535125732421875
1445423675965;301.81768798828125;-86.64115905761719;-10.462410926818848;1.105194091796875;-11.90625;2.269256591796875
1445423675998;309.3553161621094;-86.11084747314453;-11.192883491516113;1.8701171875;-8.1993408203125;1.700469970703125
1445423676031;312.41192626953125;-85.6016845703125;-11.69284725189209;1.732818603515625;-6.72833251953125;0.8374786376953125
1445423676063;318.6088562011719;-85.6471939086914;-12.726987838745117;1.732818603515625;-5.29656982421875;-0.7904205322265625
1445423676097;325.6363525390625;-87.85398864746094;-14.22426700592041;0.9482879638671875;-5.47308349609375;-0.3785400390625
1445423676130;328.8289794921875;-89.75863647460938;-15.20252513885498;1.30133056640625;-8.218948364257812;-0.5550537109375
1445423676163;331.5838928222656;-94.4172592163086;-17.122299194335938;3.380340576171875;-19.045486450195312;-8.851486206054688
1445423676195;332.0533447265625;-97.7474365234375;-18.727802276611328;5.5181884765625;-15.260116577148438;-4.732696533203125
1445423676229;334.5854797363281;-104.85594940185547;-22.50227165222168;9.49969482421875;-13.0438232421875;-2.4771575927734375
1445423676262;339.88250732421875;-108.68518829345703;-25.401567459106445;9.107421875;-9.572265625;-0.9865570068359375
1445423676295;342.158935546875;-109.89484405517578;-26.855627059936523;3.2430419921875;-8.101272583007812;-0.182403564453125
1445423676328;345.6006164550781;-111.35851287841797;-28.731218338012695;1.53668212890625;-7.552093505859375;-0.8492584228515625
1445423676361;350.21875;-111.7882080078125;-27.871545791625977;1.9485626220703125;-6.689117431640625;-1.06500244140625
1445423676393;352.7860107421875;-111.09839630126953;-27.074682235717773;3.5960845947265625;-6.238006591796875;-0.9669342041015625
1445423676427;359.138916015625;-112.25374603271484;-25.823453903198242;3.63531494140625;-5.276947021484375;-2.339874267578125
1445423676459;6.19085693359375;-115.51840209960938;-25.171415328979492;3.1449737548828125;-4.531646728515625;-3.6931915283203125
1445423676493;8.59271240234375;-117.64672088623047;-25.153926849365234;1.0855865478515625;-4.3159027099609375;-3.8697052001953125
1445423676526;11.32293701171875;-121.42536926269531;-25.597806930541992;2.183929443359375;-5.551544189453125;-5.73297119140625
1445423676559;12.84686279296875;-122.82180786132812;-26.958637237548828;3.046905517578125;-8.101272583007812;-4.59539794921875
1445423676592;12.9306640625;-122.5053939819336;-28.052661895751953;4.5375213623046875;-10.984420776367188;-3.9481658935546875
1445423676626;11.702362060546875;-120.06689453125;-29.69463539123535;8.36212158203125;-10.7098388671875;-5.0661163330078125
1445423676658;11.3660888671875;-118.4326171875;-30.326988220214844;7.656036376953125;-9.729171752929688;-3.7520294189453125
1445423676691;11.15557861328125;-114.9295654296875;-32.41249084472656;7.28338623046875;-10.121444702148438;-3.2420806884765625
1445423676723;9.656951904296875;-111.17574310302734;-34.250003814697266;4.9101715087890625;-7.80706787109375;-2.9871063232421875
1445423676757;8.946746826171875;-109.72969818115234;-34.938785552978516;3.890289306640625;-5.1985015869140625;-3.026336669921875
1445423676790;12.914703369140625;-110.53678894042969;-35.34799575805664;3.439178466796875;-4.5708770751953125;-3.39898681640625
1445423676822;16.590301513671875;-112.1703109741211;-35.06008529663086;4.4198455810546875;-3.2371673583984375;-4.144287109375
1445423676857;22.88909912109375;-115.26075744628906;-34.743587493896484;4.3610076904296875;-7.257904052734375;-3.889312744140625
1445423676891;24.49224853515625;-116.56413269042969;-36.19822692871094;5.4593505859375;-10.376419067382812;-3.830474853515625
1445423676921;25.784149169921875;-117.10086059570312;-36.84581756591797;8.852447509765625;-9.434967041015625;-5.3799285888671875
1445423676955;30.469268798828125;-119.42642974853516;-36.81565856933594;6.65576171875;-9.591873168945312;-5.7525787353515625
1445423676988;33.58807373046875;-121.1916732788086;-36.50874328613281;5.9300689697265625;-9.748779296875;-6.2821502685546875
1445423677021;34.82330322265625;-121.25694274902344;-36.26936721801758;5.9889068603515625;-9.180007934570312;-5.654510498046875
1445423677053;36.859832763671875;-120.91912841796875;-35.7952880859375;5.4201202392578125;-8.101272583007812;-5.4976043701171875
1445423677086;39.853973388671875;-121.32951354980469;-34.19453811645508;4.83172607421875;-5.3946380615234375;-4.105072021484375
1445423677120;42.00518798828125;-121.96005249023438;-33.113338470458984;3.92950439453125;-3.394073486328125;-2.8890380859375
1445423677153;46.201629638671875;-123.83099365234375;-31.37559700012207;3.262664794921875;-2.766448974609375;-2.2221832275390625
1445423677186;50.270843505859375;-127.07023620605469;-29.471593856811523;2.2035369873046875;-2.6095428466796875;-3.16363525390625
1445423677218;53.040924072265625;-128.9390106201172;-27.77659797668457;3.1253662109375;-3.5509796142578125;-4.5561676025390625
1445423677251;57.82574462890625;-131.25286865234375;-24.745676040649414;4.753265380859375;-6.66949462890625;-6.537109375
1445423677284;59.291412353515625;-131.8766632080078;-23.803817749023438;4.9101715087890625;-9.317291259765625;-7.066680908203125
1445423677317;61.49066162109375;-131.81890869140625;-22.570104598999023;5.00823974609375;-9.944915771484375;-7.3804931640625
1445423677350;62.840667724609375;-130.2412872314453;-22.416322708129883;4.4002227783203125;-9.90570068359375;-6.2036895751953125
1445423677383;63.596527099609375;-129.3114776611328;-22.48116111755371;4.9101715087890625;-9.317291259765625;-5.7722015380859375
1445423677416;65.41293334960938;-127.23681640625;-22.904380798339844;4.5571441650390625;-8.238555908203125;-4.9484405517578125
1445423677449;66.91119384765625;-124.92210388183594;-23.381797790527344;2.988067626953125;-6.5322113037109375;-4.340423583984375
1445423677483;67.49853515625;-123.68582153320312;-23.590267181396484;1.7720489501953125;-5.0023651123046875;-3.1047821044921875
1445423677519;68.46844482421875;-121.16993713378906;-22.911386489868164;1.7720489501953125;-4.1982269287109375;-2.281036376953125
1445423677549;70.3497314453125;-118.63609313964844;-20.542560577392578;2.8311614990234375;-4.963134765625;-3.6735687255859375
1445423677584;72.1883544921875;-117.24725341796875;-19.177621841430664;2.8899993896484375;-6.238006591796875;-6.2625274658203125
1445423677615;76.3345947265625;-114.70988464355469;-17.724119186401367;5.7535552978515625;-6.8852386474609375;-9.989059448242188
1445423677647;79.60748291015625;-113.72398376464844;-17.634742736816406;6.341949462890625;-13.1614990234375;-5.2034149169921875
1445423677681;81.290283203125;-113.95298767089844;-17.487348556518555;4.145263671875;-13.749893188476562;-4.340423583984375
1445423677714;84.0450439453125;-113.32550811767578;-16.723819732666016;0.1833648681640625;-12.435806274414062;0.2686920166015625
1445423677746;85.74444580078125;-112.21835327148438;-15.785784721374512;1.928955078125;-12.121994018554688;1.0336151123046875
1445423677791;88.9757080078125;-104.28167724609375;-13.694334983825684;-0.208892822265625;-11.78857421875;-0.515838623046875
1445423677812;88.95635986328125;-101.06432342529297;-13.120376586914062;-0.1304473876953125;-11.27862548828125;-1.4180450439453125
1445423677846;87.94155883789062;-98.47557830810547;-12.334295272827148;0.301055908203125;-10.101821899414062;-2.7321319580078125
1445423677878;86.40798950195312;-95.6064224243164;-10.760615348815918;2.8899993896484375;-8.82696533203125;-1.96722412109375
1445423677911;89.98434448242188;-93.83251190185547;-8.554213523864746;3.5372467041015625;-7.944366455078125;-2.3594818115234375
1445423677945;92.56625366210938;-93.26830291748047;-7.929934024810791;0.7325439453125;-9.552658081054688;-0.4177703857421875
1445423677978;95.04641723632812;-94.08815002441406;-7.633331298828125;-2.0721588134765625;-10.101821899414062;1.249359130859375
1445423678011;95.318115234375;-94.11801147460938;-6.525044918060303;-5.327972412109375;-13.259567260742188;0.2686920166015625
1445423678043;94.32757568359375;-93.15370178222656;-6.2607102394104;-4.7199554443359375;-13.749893188476562;0.7982635498046875
1445423678077;93.0335693359375;-90.75802612304688;-4.9932732582092285;0.0068511962890625;-11.435531616210938;0.7786407470703125
1445423678109;90.87875366210938;-87.37362670898438;-4.5150227546691895;3.380340576171875;-9.00347900390625;0.621734619140625
1445423678142;88.74703979492188;-85.7297134399414;-4.917170524597168;1.9485626220703125;-8.3170166015625;0.5236663818359375
1445423678175;84.14263916015625;-82.97659301757812;-5.928812503814697;-0.4638671875;-6.7087249755859375;0.445220947265625
1445423678208;81.704833984375;-81.78292846679688;-6.478228569030762;-1.346466064453125;-5.9045867919921875;2.151580810546875
1445423678242;76.79400634765625;-80.09942626953125;-7.2691192626953125;-0.1304473876953125;-7.1990509033203125;2.386932373046875
1445423678275;71.27359008789062;-78.6667709350586;-8.012850761413574;2.301605224609375;-15.299346923828125;1.0924530029296875
1445423678308;68.99911499023438;-77.9501724243164;-8.571562767028809;-1.20916748046875;-11.592437744140625;2.8576507568359375
1445423678340;66.357421875;-76.70416259765625;-8.633321762084961;1.1444244384765625;-10.964813232421875;2.7988128662109375
1445423678376;64.76254272460938;-75.46928405761719;-8.35477352142334;1.3405609130859375;-10.356796264648438;2.838043212890625
1445423678407;63.950347900390625;-75.00616455078125;-8.294546127319336;2.125091552734375;-10.376419067382812;1.876983642578125
1445423678441;62.2513427734375;-73.86043548583984;-8.691953659057617;1.046356201171875;-10.631378173828125;0.24908447265625
1445423678474;62.68817138671875;-73.43385314941406;-9.557382583618164;-0.032379150390625;-9.3369140625;0.621734619140625
1445423678506;63.2171630859375;-73.30126190185547;-9.953100204467773;0.6344757080078125;-7.92474365234375;1.1512908935546875
1445423678540;62.89263916015625;-73.46410369873047;-10.5105562210083;1.4582366943359375;-7.669769287109375;-1.5553436279296875
1445423678572;62.540679931640625;-74.1725082397461;-10.780447959899902;3.7333831787109375;-17.20184326171875;-0.3589324951171875
1445423678604;61.081756591796875;-77.87639617919922;-12.043532371520996;3.6745452880859375;-16.652664184570312;1.249359130859375
1445423678641;58.783966064453125;-82.56398010253906;-14.45252513885498;3.262664794921875;-12.9261474609375;-0.182403564453125
1445423678671;57.52825927734375;-85.1536636352539;-15.655926704406738;0.9482879638671875;-11.808181762695312;-1.3592071533203125
1445423678704;53.145477294921875;-90.08553314208984;-17.686494827270508;0.4383392333984375;-10.9451904296875;-1.1042327880859375
1445423678737;49.033447265625;-95.16002655029297;-18.822681427001953;0.10491943359375;-8.591598510742188;1.38665771484375
1445423678771;48.036041259765625;-97.66787719726562;-18.755685806274414;-0.228515625;-6.924468994140625;1.9554443359375
1445423678802;45.912017822265625;-101.93416595458984;-17.55523109436035;-0.1108245849609375;-7.3363494873046875;1.9358367919921875
1445423678835;44.832122802734375;-104.05402374267578;-16.829750061035156;1.4582366943359375;-7.826690673828125;1.014007568359375
1445423678869;41.576019287109375;-107.58283996582031;-16.3316707611084;2.5958099365234375;-8.846572875976562;0.641357421875
1445423678901;37.1246337890625;-109.80238342285156;-16.319488525390625;4.4002227783203125;-11.317855834960938;0.0921783447265625
1445423678935;34.617279052734375;-110.250244140625;-16.11960792541504;3.890289306640625;-13.926422119140625;-2.0456695556640625
1445423678968;29.981109619140625;-110.51097106933594;-14.837482452392578;3.2038116455078125;-14.083328247070312;-3.026336669921875
1445423679000;24.031524658203125;-109.87213897705078;-13.091206550598145;2.5173492431640625;-11.631668090820312;-2.20257568359375
1445423679034;20.4305419921875;-109.63240051269531;-12.653128623962402;2.61541748046875;-7.12060546875;-1.8495330810546875
1445423679066;14.22039794921875;-110.23936462402344;-12.429774284362793;2.3408355712890625;-5.786895751953125;-1.3003692626953125
1445423679098;11.99212646484375;-110.41829681396484;-12.553059577941895;2.1446990966796875;-5.29656982421875;-0.3393096923828125
1445423679133;9.071868896484375;-110.05010986328125;-12.804162979125977;1.811279296875;-4.963134765625;-0.1431732177734375
1445423679166;6.10009765625;-109.10986328125;-12.694201469421387;1.47784423828125;-4.8258514404296875;-0.0843353271484375
1445423679198;4.20697021484375;-108.36298370361328;-12.519753456115723;2.38006591796875;-5.276947021484375;1.0532379150390625
1445423679231;0.39202880859375;-106.15707397460938;-12.580254554748535;4.262939453125;-8.630828857421875;1.9750518798828125
1445423679265;357.7779541015625;-103.56219482421875;-14.010231971740723;5.8712310791015625;-16.8095703125;-1.96722412109375
1445423679297;355.5745544433594;-102.28596496582031;-14.661783218383789;5.5574188232421875;-17.809860229492188;-6.2821502685546875
1445423679331;352.2805480957031;-100.3047103881836;-14.75435733795166;6.3615570068359375;-15.201278686523438;-5.987945556640625
1445423679364;354.5058288574219;-98.17986297607422;-13.328011512756348;4.2237091064453125;-9.12115478515625;-5.419158935546875
1445423679398;354.0671691894531;-97.21401977539062;-13.223611831665039;-0.032379150390625;-7.63055419921875;-2.908660888671875
1445423679429;351.01251220703125;-98.00291442871094;-13.752799987792969;-0.405029296875;-7.0225372314453125;-2.4967803955078125
1445423679463;348.3476257324219;-102.7721176147461;-14.92095947265625;0.16375732421875;-5.4338531494140625;-1.5357208251953125
1445423679495;347.8304138183594;-105.38111114501953;-14.947607040405273;-0.1108245849609375;-5.0612030029296875;-1.143463134765625
1445423679528;348.37286376953125;-109.40167236328125;-13.45724868774414;0.7521514892578125;-6.5910491943359375;-2.08489990234375
1445423679562;347.2130432128906;-111.28084564208984;-12.412932395935059;3.439178466796875;-14.730560302734375;-5.6349029541015625
1445423679597;344.729736328125;-111.74655151367188;-13.27803897857666;5.145538330078125;-14.887466430664062;-4.3796539306640625
1445423679628;340.2437744140625;-113.29728698730469;-15.537900924682617;5.1063079833984375;-10.356796264648438;-3.202850341796875
1445423679661;338.8681335449219;-113.82573699951172;-16.138500213623047;4.0864105224609375;-6.7675628662109375;-2.5948486328125
1445423679694;336.88507080078125;-113.07231903076172;-16.45207977294922;3.831451416015625;-5.9830322265625;-2.26141357421875
1445423679726;335.0769348144531;-110.66805267333984;-16.61310386657715;2.73309326171875;-5.3358001708984375;-1.829925537109375
1445423679760;333.8788146972656;-109.09861755371094;-16.853954315185547;3.4784088134765625;-5.786895751953125;-1.4768829345703125
1445423679794;331.7412109375;-106.11396026611328;-17.789079666137695;3.949127197265625;-6.37530517578125;-0.8492584228515625
1445423679825;331.79217529296875;-104.44286346435547;-19.015796661376953;4.066802978515625;-10.180282592773438;1.308197021484375
1445423679860;332.3598327636719;-103.78437042236328;-18.73831558227539;3.92950439453125;-16.829193115234375;-3.477447509765625
1445423679903;333.6377868652344;-101.8267593383789;-16.56447982788086;1.75244140625;-11.45513916015625;2.5634613037109375
1445423679925;337.9023742675781;-101.05802917480469;-13.76159954071045;1.36016845703125;-11.768951416015625;3.3675994873046875
1445423679958;338.7096252441406;-100.31712341308594;-13.014139175415039;0.3795013427734375;-12.9261474609375;2.328094482421875
1445423679990;333.7528381347656;-96.75472259521484;-12.373140335083008;-1.5033721923828125;-11.180557250976562;-1.3592071533203125
1445423680024;332.22125244140625;-94.72193145751953;-11.52169418334961;1.2621002197265625;-9.866470336914062;-0.94732666015625
1445423680057;332.3443298339844;-91.37383270263672;-9.501080513000488;2.7723236083984375;-8.866195678710938;-2.9871063232421875
1445423680092;331.8825988769531;-88.18897247314453;-8.836629867553711;2.635040283203125;-8.062042236328125;-4.105072021484375
1445423680122;331.4717102050781;-87.33978271484375;-8.865194320678711;-2.3271331787109375;-6.1595458984375;-1.2415313720703125
1445423680156;333.54754638671875;-87.37657165527344;-8.37033748626709;-3.052825927734375;-5.9634246826171875;2.6026763916015625
1445423680191;335.37139892578125;-88.5518798828125;-7.033968925476074;2.0074005126953125;-14.102935791015625;3.1910858154296875
1445423680222;333.0591735839844;-88.38722229003906;-6.678908348083496;-0.8169097900390625;-13.2791748046875;0.7982635498046875
1445423680258;327.75384521484375;-86.94354248046875;-5.692770004272461;-0.8169097900390625;-13.298797607421875;5.7015838623046875
1445423680288;331.51654052734375;-86.84723663330078;-5.375056266784668;2.635040283203125;-10.611770629882812;4.1325225830078125
1445423680322;338.2005920410156;-85.48424530029297;-4.746453285217285;3.321502685546875;-10.964813232421875;1.9162139892578125
1445423680354;339.47735595703125;-83.03086853027344;-5.127976894378662;3.046905517578125;-11.004043579101562;-0.2804718017578125
1445423680387;341.9831848144531;-82.4886474609375;-6.13258695602417;0.34027099609375;-9.45458984375;-2.1633453369140625
1445423680419;344.3059997558594;-82.89534759521484;-6.377114772796631;-0.3069610595703125;-8.571990966796875;-2.02606201171875
1445423680452;348.8911437988281;-85.00818634033203;-6.034549713134766;-1.03265380859375;-5.47308349609375;1.9946746826171875
1445423680486;350.9808349609375;-86.17884826660156;-5.723187446594238;-0.150054931640625;-8.532760620117188;4.7405242919921875
1445423680519;353.89654541015625;-86.46617889404297;-5.925416469573975;0.654083251953125;-12.082763671875;3.60296630859375
1445423680551;354.88702392578125;-84.93309020996094;-6.348776340484619;-0.6992340087890625;-15.240509033203125;0.7982635498046875
1445423680585;356.0249938964844;-84.07177734375;-6.58035135269165;1.8701171875;-12.043548583984375;1.9554443359375
1445423680618;358.6750793457031;-82.69790649414062;-8.262001991271973;2.125091552734375;-11.180557250976562;2.328094482421875
1445423680651;359.99639892578125;-81.19279479980469;-10.347883224487305;0.3795013427734375;-9.729171752929688;0.327545166015625
1445423680684;0.18463134765625;-80.56973266601562;-11.029057502746582;-0.405029296875;-7.63055419921875;-1.712249755859375
1445423680716;1.774169921875;-80.51719665527344;-12.023077964782715;-0.7384490966796875;-6.5910491943359375;-1.06500244140625
1445423680749;6.2015380859375;-81.55303955078125;-12.718233108520508;1.438629150390625;-7.061767578125;1.8966064453125
1445423680782;8.006622314453125;-81.7121353149414;-13.26003360748291;2.9096221923828125;-10.435256958007812;2.2888641357421875
1445423680816;9.309173583984375;-81.57173156738281;-15.211592674255371;1.850494384765625;-13.651840209960938;1.465118408203125
1445423680848;9.510986328125;-81.52539825439453;-16.172542572021484;4.517913818359375;-14.455978393554688;-1.6337890625
1445423680881;9.654083251953125;-82.1176986694336;-17.009708404541016;4.8513336181640625;-14.318679809570312;-2.7517547607421875
1445423680915;10.014373779296875;-85.960693359375;-17.85492515563965;3.9883575439453125;-14.12255859375;-4.5757904052734375
1445423680948;10.599517822265625;-89.32698059082031;-18.17822265625;3.380340576171875;-12.161224365234375;-2.6732940673828125
1445423680982;13.98504638671875;-96.53794860839844;-17.4639892578125;3.2822723388671875;-10.670608520507812;-1.7906951904296875
1445423681013;13.057647705078125;-101.35391998291016;-15.821200370788574;-1.09149169921875;-8.748504638671875;0.7001953125
1445423681047;9.737213134765625;-103.30321502685547;-14.843989372253418;-2.7978515625;-5.7476806640625;1.1709136962890625
1445423681083;4.700408935546875;-107.45785522460938;-12.958984375;-0.895355224609375;-4.21783447265625;0.876708984375
1445423681113;3.438018798828125;-111.66542053222656;-11.558770179748535;3.9687347412109375;-5.845733642578125;-2.7713623046875
1445423681145;2.6627197265625;-113.60809326171875;-10.978466987609863;5.4593505859375;-9.297683715820312;-4.9876708984375
1445423681179;359.4081726074219;-116.16036224365234;-9.545186996459961;4.498291015625;-13.0438232421875;-3.653961181640625
1445423681213;356.0058288574219;-117.95764923095703;-8.559660911560059;4.145263671875;-11.435531616210938;-4.47772216796875
1445423681244;353.95849609375;-118.27681732177734;-8.661656379699707;4.1648712158203125;-10.572540283203125;-3.57550048828125
1445423681278;349.5896301269531;-118.31112670898438;-9.637566566467285;4.125640869140625;-6.66949462890625;-2.2221832275390625
1445423681311;347.88482666015625;-118.27835845947266;-9.900849342346191;3.831451416015625;-5.35540771484375;-3.144012451171875
1445423681344;346.417724609375;-117.50988006591797;-9.35786247253418;3.321502685546875;-6.473358154296875;-4.4384918212890625
1445423681376;345.81170654296875;-116.8721923828125;-9.049418449401855;1.3993988037109375;-8.670059204101562;-7.5570068359375
1445423681410;343.6254577636719;-117.86197662353516;-9.964282989501953;-1.2483978271484375;-5.1200408935546875;-5.5760650634765625
1445423681444;336.4846496582031;-121.20256805419922;-13.28891658782959;-1.0522613525390625;-4.4924163818359375;-4.8111419677734375
1445423681477;329.9277648925781;-123.59290313720703;-16.256542205810547;1.556304931640625;-7.92474365234375;-3.4970550537109375
1445423681509;327.59942626953125;-124.26655578613281;-16.9749755859375;4.3413848876953125;-10.866744995117188;-3.791259765625
1445423681541;324.115478515625;-123.21826171875;-17.124629974365234;4.4198455810546875;-10.356796264648438;-3.6343536376953125
1445423681576;320.50958251953125;-118.80470275878906;-15.831897735595703;4.32177734375;-9.3369140625;-2.516387939453125
1445423681607;318.8646545410156;-115.97895050048828;-15.015239715576172;4.007965087890625;-8.4346923828125;-2.37908935546875
1445423681641;315.3663635253906;-109.44374084472656;-14.382837295532227;2.8899993896484375;-6.983306884765625;-1.8691558837890625
1445423681673;312.8960876464844;-105.31627655029297;-14.926854133605957;1.18365478515625;-9.846847534179688;-2.006439208984375
1445423681708;306.8411865234375;-97.16606140136719;-17.64107322692871;0.4579620361328125;-10.19989013671875;-3.085174560546875
1445423681740;296.78228759765625;-93.0047607421875;-19.867368698120117;0.2618255615234375;-6.414520263671875;-3.16363525390625
1445423681773;294.4861145019531;-93.09846496582031;-20.349998474121094;1.732818603515625;-4.904296875;1.249359130859375
1445423681806;299.262939453125;-95.90003967285156;-19.471668243408203;10.460739135742188;-17.476425170898438;-0.6138916015625
1445423681838;295.4913024902344;-95.02621459960938;-19.56267547607422;0.10491943359375;-15.456253051757812;3.83831787109375
1445423681879;295.500244140625;-95.3406982421875;-16.82260513305664;2.2819976806640625;-12.71038818359375;4.3286590576171875
1445423681906;295.0998229980469;-94.38951110839844;-15.716615676879883;2.9096221923828125;-10.611770629882812;3.1322479248046875
1445423681938;292.740234375;-91.54695892333984;-14.297630310058594;4.6748199462890625;-8.983871459960938;0.5236663818359375
1445423681971;292.8388366699219;-90.2906265258789;-13.850504875183105;5.8712310791015625;-9.081939697265625;-0.94732666015625
1445423682003;294.44573974609375;-88.91561126708984;-13.478201866149902;3.2038116455078125;-7.316741943359375;-3.1244049072265625
1445423682036;296.20269775390625;-88.5298080444336;-13.160426139831543;-0.228515625;-6.944091796875;-2.7125244140625
1445423682069;302.977294921875;-87.82356262207031;-12.479021072387695;-0.954193115234375;-7.179443359375;1.308197021484375
1445423682102;307.5977783203125;-88.39156341552734;-11.673555374145508;2.4585113525390625;-11.239395141601562;2.5438385009765625
1445423682136;308.0918884277344;-88.3516616821289;-11.567924499511719;1.9093475341796875;-14.377532958984375;0.7198028564453125
1445423682169;306.77374267578125;-88.0887680053711;-11.987842559814453;0.7325439453125;-13.357635498046875;1.1120758056640625
1445423682201;310.1388244628906;-88.1218032836914;-11.989189147949219;0.026458740234375;-12.514266967773438;3.7990875244140625
1445423682235;314.7652893066406;-88.92506408691406;-11.662321090698242;0.8306121826171875;-10.7098388671875;3.72064208984375
1445423682267;321.90008544921875;-90.14668273925781;-10.549039840698242;1.438629150390625;-8.983871459960938;2.1711883544921875
1445423682300;326.2978515625;-91.33018493652344;-9.71648120880127;2.301605224609375;-8.062042236328125;-2.37908935546875
1445423682334;329.206298828125;-92.30667877197266;-9.785725593566895;2.0270233154296875;-7.434417724609375;-1.9868316650390625
1445423682367;339.5879821777344;-96.5866470336914;-9.65263557434082;0.0068511962890625;-4.3747406005859375;-0.6138916015625
1445423682400;344.23175048828125;-98.54329681396484;-9.148600578308105;-2.8174591064453125;-8.807342529296875;-1.810302734375
1445423682433;343.1398010253906;-98.63936614990234;-9.536535263061523;-4.249237060546875;-13.063430786132812;-1.261138916015625
1445423682465;339.46405029296875;-97.79450225830078;-9.784402847290039;0.477569580078125;-15.750457763671875;-1.7906951904296875
1445423682498;339.1297912597656;-97.85205841064453;-9.914368629455566;3.4784088134765625;-14.318679809570312;-0.2020263671875
1445423682532;338.6490478515625;-98.07693481445312;-10.341625213623047;1.9485626220703125;-13.338027954101562;1.6808624267578125
1445423682565;338.7339782714844;-98.58631896972656;-10.150491714477539;-0.4834747314453125;-9.611495971679688;1.1709136962890625
1445423682598;337.37322998046875;-98.30696105957031;-10.337238311767578;-0.97381591796875;-6.689117431640625;-0.8492584228515625
1445423682631;334.2848205566406;-97.3760757446289;-10.640437126159668;-0.34619140625;-5.8849639892578125;-1.3592071533203125
1445423682664;333.0643005371094;-96.47132873535156;-10.70085620880127;1.53668212890625;-5.6496124267578125;-2.1241302490234375
1445423682698;332.602294921875;-96.08090209960938;-11.044404983520508;2.6546478271484375;-6.355682373046875;-2.2221832275390625
1445423682729;333.06658935546875;-96.05252075195312;-13.3319673538208;5.5574188232421875;-10.494094848632812;0.641357421875
1445423682762;337.96478271484375;-96.00689697265625;-14.666934967041016;4.94940185546875;-11.847412109375;3.975616455078125
1445423682816;343.5814208984375;-95.41304016113281;-14.832669258117676;3.4195709228515625;-15.142440795898438;6.309600830078125
1445423682828;345.4730529785156;-94.79573822021484;-15.179837226867676;3.87066650390625;-12.71038818359375;5.681976318359375
1445423682874;353.7609558105469;-96.51483154296875;-15.836953163146973;4.2041015625;-14.730560302734375;-9.675247192382812
1445423682904;3.2545166015625;-101.81208038330078;-16.121471405029297;1.3209381103515625;-13.985260009765625;-5.1249542236328125
1445423682945;8.212158203125;-105.84644317626953;-16.363168716430664;1.673980712890625;-6.0222625732421875;1.7985382080078125
1445423682977;10.687896728515625;-107.61524200439453;-16.18009376525879;0.6737060546875;-3.2960052490234375;0.562896728515625
1445423682994;13.462890625;-109.32806396484375;-15.811749458312988;-1.0130462646484375;-2.6880035400390625;-1.0257720947265625
1445423683027;17.246917724609375;-110.80276489257812;-15.46205997467041;-0.1108245849609375;-1.9230804443359375;-2.1241302490234375
1445423683067;19.45001220703125;-112.07013702392578;-16.28861427307129;1.673980712890625;-4.1982269287109375;-1.75146484375
1445423683101;21.654937744140625;-113.22535705566406;-16.57428741455078;1.9681854248046875;-6.66949462890625;-2.692901611328125
1445423683126;28.516021728515625;-114.96480560302734;-16.512737274169922;4.32177734375;-15.279739379882812;-4.0070037841796875
1445423683168;37.69677734375;-114.82718658447266;-14.825068473815918;5.7535552978515625;-13.808746337890625;-7.2039642333984375
1445423683207;42.367431640625;-112.14932250976562;-13.914791107177734;4.6748199462890625;-10.02337646484375;-6.6351776123046875
1445423683225;42.367431640625;-112.14932250976562;-13.914791107177734;3.046905517578125;-9.944915771484375;-6.0075531005859375
1445423683277;45.97467041015625;-108.70623779296875;-16.56169891357422;-0.4442596435546875;-8.650436401367188;-2.5359954833984375
1445423683372;44.795867919921875;-108.79730987548828;-22.084789276123047;0.7913818359375;-5.4534759521484375;-1.712249755859375
1445423683377;44.795867919921875;-108.79730987548828;-22.084789276123047;0.7913818359375;-5.4534759521484375;-1.712249755859375
1445423683408;45.52069091796875;-109.10636901855469;-22.066652297973633;2.693878173828125;-7.493255615234375;-2.065277099609375
1445423683438;45.74041748046875;-108.15104675292969;-21.465524673461914;4.0864105224609375;-8.82696533203125;-1.9868316650390625
1445423683473;43.67926025390625;-104.75386047363281;-20.533313751220703;5.4789581298828125;-11.690505981445312;-2.4967803955078125
1445423683506;42.61798095703125;-102.36312866210938;-19.86398696899414;4.2041015625;-12.9261474609375;-0.7904205322265625
1445423683536;40.528411865234375;-96.7427749633789;-18.05143165588379;5.00823974609375;-12.828079223632812;-1.829925537109375
1445423683570;39.423858642578125;-91.05207061767578;-16.81987762451172;6.3615570068359375;-11.670883178710938;-2.516387939453125
1445423683605;39.49603271484375;-89.62644958496094;-16.964807510375977;6.793060302734375;-7.74822998046875;-1.496490478515625
1445423683637;38.50628662109375;-89.06330871582031;-18.1739444732666;5.1063079833984375;-7.57171630859375;-1.1630706787109375
1445423683669;38.883392333984375;-89.29512786865234;-18.512004852294922;-1.0522613525390625;-7.826690673828125;-0.123565673828125
1445423683703;40.3658447265625;-89.64570617675781;-17.55367660522461;-2.5624847412109375;-7.9639739990234375;2.7399749755859375
1445423683735;41.192230224609375;-88.29361724853516;-15.022663116455078;-1.169952392578125;-8.415084838867188;2.838043212890625
1445423683768;39.418701171875;-86.80525207519531;-14.105371475219727;0.28143310546875;-12.102386474609375;3.7990875244140625
1445423683801;39.99053955078125;-85.33207702636719;-12.282886505126953;2.9488525390625;-13.377243041992188;1.818145751953125
1445423683834;44.468017578125;-84.43038940429688;-12.227173805236816;4.2237091064453125;-15.338577270507812;-0.868865966796875
1445423683868;46.11248779296875;-84.62230682373047;-12.36838150024414;-2.40557861328125;-12.004318237304688;2.3084869384765625
1445423683900;50.070159912109375;-85.15576171875;-11.499137878417969;-2.2486724853515625;-11.631668090820312;1.582794189453125
1445423683933;53.023834228515625;-84.69731140136719;-10.514012336730957;1.12481689453125;-7.3951873779296875;-0.8492584228515625
1445423683966;54.449005126953125;-84.80189514160156;-10.219810485839844;1.164031982421875;-5.3161773681640625;-1.5357208251953125
1445423683999;57.928680419921875;-85.80574798583984;-9.948229789733887;1.2032623291015625;-5.3161773681640625;-0.5550537109375
1445423684032;61.415557861328125;-86.96334075927734;-9.767775535583496;0.987518310546875;-9.160385131835938;3.1910858154296875
1445423684066;62.8046875;-86.91725158691406;-9.957311630249023;1.0267486572265625;-11.10211181640625;3.3087615966796875
1445423684099;64.37896728515625;-85.98377227783203;-10.737361907958984;1.6543731689453125;-13.514541625976562;0.8571014404296875
1445423684132;65.91641235351562;-84.85991668701172;-11.73720645904541;0.22259521484375;-13.985260009765625;0.896331787109375
1445423684163;67.21966552734375;-84.83782958984375;-12.200037956237793;-1.6995086669921875;-12.337738037109375;1.9750518798828125
1445423684197;69.757568359375;-85.35951232910156;-12.454475402832031;-0.9345855712890625;-10.8275146484375;1.3670501708984375
1445423684230;71.08132934570312;-85.55891418457031;-12.3884859085083;-0.1304473876953125;-10.180282592773438;0.896331787109375
1445423684263;74.31661987304688;-86.16935729980469;-12.39371395111084;0.8894500732421875;-8.356246948242188;0.6609649658203125
1445423684296;78.16778564453125;-86.89041900634766;-12.888686180114746;2.3996734619140625;-7.8462982177734375;0.2294769287109375
1445423684330;79.9600830078125;-87.19786071777344;-13.317133903503418;3.2430419921875;-8.277786254882812;-0.0451202392578125
1445423684363;83.8087158203125;-87.97846984863281;-14.413296699523926;2.8311614990234375;-9.297683715820312;0.0921783447265625
1445423684396;86.36883544921875;-89.09050750732422;-15.934534072875977;1.6347503662109375;-11.612045288085938;1.072845458984375
1445423684429;86.7183837890625;-89.9117431640625;-16.65852928161621;2.0858612060546875;-11.435531616210938;0.896331787109375
1445423684461;90.1290283203125;-92.27446746826172;-17.31756591796875;6.08697509765625;-11.10211181640625;-2.065277099609375
1445423684495;92.5732421875;-93.42794036865234;-17.508052825927734;5.086700439453125;-11.082489013671875;-4.2619781494140625
1445423684527;96.02679443359375;-95.4854736328125;-17.8764705657959;3.7137603759765625;-10.984420776367188;-4.1835174560546875
1445423684561;98.73175048828125;-98.26033782958984;-17.68614959716797;2.61541748046875;-9.023101806640625;-3.0067291259765625
1445423684594;100.62399291992188;-99.59442138671875;-17.140947341918945;2.242767333984375;-7.63055419921875;-1.5945587158203125
1445423684627;103.80563354492188;-101.49766540527344;-15.413129806518555;2.046630859375;-7.3951873779296875;-0.7904205322265625
1445423684659;103.5858154296875;-103.25975799560547;-14.54189682006836;1.105194091796875;-5.9045867919921875;-0.9669342041015625
1445423684694;102.92666625976562;-104.40801239013672;-14.591081619262695;1.6347503662109375;-8.2581787109375;-3.0655670166015625
1445423684726;101.84014892578125;-106.9778060913086;-14.675572395324707;3.1253662109375;-11.10211181640625;-3.6343536376953125
1445423684758;100.08428955078125;-108.90615844726562;-14.62132740020752;6.8126678466796875;-11.474761962890625;-3.39898681640625
1445423684791;99.39163208007812;-109.4367904663086;-14.431747436523438;6.1850433349609375;-10.552932739257812;-2.37908935546875
1445423684825;100.20260620117188;-110.1444320678711;-13.222872734069824;3.9687347412109375;-10.690231323242188;-3.34014892578125
1445423684860;101.08099365234375;-110.32630157470703;-12.444416999816895;2.9684600830078125;-9.944915771484375;-3.536285400390625
1445423684891;101.89834594726562;-110.31099700927734;-11.074837684631348;2.55657958984375;-8.925033569335938;-3.4382171630859375
1445423684925;102.8214111328125;-110.24948120117188;-9.997100830078125;1.6543731689453125;-6.473358154296875;-2.9282684326171875
1445423684958;103.7327880859375;-110.21575927734375;-9.459144592285156;1.5759124755859375;-5.1985015869140625;-3.28131103515625
1445423684997;106.00442504882812;-110.0540771484375;-8.470004081726074;0.8306121826171875;-5.9045867919921875;-4.0658416748046875
1445423685028;107.43862915039062;-109.73886108398438;-7.936971187591553;0.654083251953125;-7.316741943359375;-5.3406982421875
1445423685057;108.04310607910156;-109.6533432006836;-7.680078983306885;-0.267730712890625;-11.298233032226562;-7.4001007080078125
1445423685089;107.98403930664062;-110.1749038696289;-7.555621147155762;-1.15032958984375;-11.867019653320312;-7.4001007080078125
1445423685121;105.45120239257812;-111.24644470214844;-7.350002288818359;-1.4445343017578125;-10.180282592773438;-7.0862884521484375
1445423685162;100.8350830078125;-111.14920806884766;-6.820829391479492;-0.208892822265625;-8.728897094726562;-5.2034149169921875
1445423685193;97.87738037109375;-110.57170867919922;-6.653486251831055;0.10491943359375;-8.571990966796875;-4.47772216796875
1445423685220;91.13522338867188;-108.50336456298828;-6.96980094909668;1.7132110595703125;-8.3170166015625;-3.0067291259765625
1445423685253;87.73159790039062;-107.18292236328125;-7.544526100158691;2.3996734619140625;-7.68939208984375;-2.02606201171875
1445423685285;83.38760375976562;-104.71014404296875;-8.920830726623535;5.2239837646484375;-6.473358154296875;1.9554443359375
1445423685320;83.88186645507812;-104.36134338378906;-11.309246063232422;8.53863525390625;-7.63055419921875;-3.261688232421875
1445423685353;81.31298828125;-103.90650939941406;-13.35523796081543;2.8899993896484375;-11.043258666992188;-2.692901611328125
1445423685384;80.77569580078125;-102.3862075805664;-12.330267906188965;-6.5439910888671875;-16.436920166015625;0.1510162353515625
1445423685419;80.91094970703125;-101.33110809326172;-11.344820976257324;-2.307525634765625;-13.141891479492188;-1.496490478515625
1445423685451;75.026611328125;-100.422607421875;-11.58935260772705;-1.6210479736328125;-12.396575927734375;-0.3981475830078125
1445423685485;65.28457641601562;-99.54608154296875;-12.484108924865723;-1.3072357177734375;-12.180831909179688;1.7789306640625
1445423685518;60.617218017578125;-98.88479614257812;-12.339619636535645;-0.032379150390625;-11.21978759765625;0.052947998046875
1445423685550;51.33734130859375;-96.39299774169922;-11.390201568603516;-0.5030975341796875;-10.690231323242188;0.0333404541015625
1445423685583;41.561767578125;-93.64544677734375;-9.667560577392578;-0.895355224609375;-10.14105224609375;1.3670501708984375
1445423685616;36.773895263671875;-92.37908172607422;-8.612127304077148;-0.601165771484375;-9.278060913085938;2.092742919921875
1445423685649;28.3463134765625;-90.52066802978516;-7.143333911895752;1.732818603515625;-7.434417724609375;4.093292236328125
1445423685682;24.4442138671875;-89.65369415283203;-6.958516597747803;4.6551971435546875;-5.3161773681640625;6.0742340087890625
1445423685716;16.865203857421875;-86.81415557861328;-7.567446231842041;6.577301025390625;-6.2576141357421875;5.3877716064453125
1445423685748;10.60601806640625;-84.42984771728516;-9.778796195983887;9.833114624023438;-10.7686767578125;-1.51611328125
1445423685782;6.4676513671875;-83.6444320678711;-11.01203727722168;0.5560302734375;-12.043548583984375;0.052947998046875
1445423685814;5.223876953125;-84.27006530761719;-11.924188613891602;-4.73956298828125;-14.299072265625;2.52423095703125
1445423685847;5.702911376953125;-84.46072387695312;-9.9367094039917;-0.3657989501953125;-13.67144775390625;3.975616455078125
1445423685881;5.81146240234375;-84.07792663574219;-9.395119667053223;4.4002227783203125;-11.317855834960938;1.21014404296875
1445423685914;2.84039306640625;-82.40770721435547;-9.920670509338379;2.3408355712890625;-10.9451904296875;1.465118408203125
1445423685947;0.29071044921875;-81.32532501220703;-10.442338943481445;0.9678955078125;-9.591873168945312;0.935546875
1445423685982;359.2713928222656;-80.72486114501953;-10.680183410644531;0.9678955078125;-8.709274291992188;0.07257080078125
1445423686013;357.63531494140625;-80.294921875;-11.330097198486328;-0.0519866943359375;-7.944366455078125;0.3471527099609375
1445423686045;356.9671936035156;-80.12136840820312;-11.558212280273438;0.10491943359375;-8.081649780273438;1.523956298828125
1445423686078;355.9433288574219;-79.34146118164062;-11.934733390808105;0.3795013427734375;-8.297409057617188;1.4258880615234375
1445423686111;356.3979797363281;-78.28358459472656;-12.86115837097168;2.8507843017578125;-10.31756591796875;0.445220947265625
1445423686143;356.345458984375;-77.7926025390625;-13.495831489562988;2.67425537109375;-13.514541625976562;0.7982635498046875
1445423686177;356.26727294921875;-77.75315856933594;-14.84014892578125;2.38006591796875;-14.12255859375;1.9162139892578125
1445423686210;356.2883605957031;-78.92880249023438;-15.808845520019531;4.71405029296875;-13.1614990234375;1.21014404296875
1445423686244;355.5514831542969;-79.89736938476562;-16.312379837036133;4.007965087890625;-11.827789306640625;-0.9277191162109375
1445423686277;353.24639892578125;-83.2548828125;-17.835895538330078;2.9488525390625;-10.847137451171875;-1.6730194091796875
1445423686310;351.5396423339844;-88.53956604003906;-18.87163543701172;1.6935882568359375;-9.12115478515625;-2.6144561767578125
1445423686343;350.8294982910156;-91.27809143066406;-19.03827476501465;0.3991241455078125;-8.591598510742188;-2.3006439208984375
1445423686376;347.96142578125;-96.13219451904297;-18.463214874267578;-3.4450836181640625;-6.7087249755859375;0.896331787109375
1445423686409;345.59197998046875;-100.5737533569336;-16.20484733581543;-1.5033721923828125;-5.8261260986328125;3.328369140625
1445423686441;344.7580871582031;-102.33311462402344;-14.719480514526367;0.301055908203125;-5.9830322265625;2.8576507568359375
1445423686475;341.7890319824219;-104.66098022460938;-12.221294403076172;2.0858612060546875;-8.454315185546875;0.504058837890625
1445423686508;339.3534851074219;-105.52223205566406;-11.2232666015625;2.8507843017578125;-10.847137451171875;-1.2807464599609375
1445423686540;334.1668701171875;-106.85152435302734;-9.150524139404297;3.7137603759765625;-15.573944091796875;-2.3594818115234375
1445423686576;330.3975524902344;-107.44358825683594;-6.673158168792725;3.831451416015625;-16.907638549804688;-1.0257720947265625
1445423686607;328.33721923828125;-107.3653564453125;-5.814119815826416;4.6748199462890625;-13.926422119140625;-1.5357208251953125
1445423686640;323.98504638671875;-109.0598373413086;-5.136136054992676;4.89056396484375;-11.78857421875;-1.810302734375
1445423686672;318.13641357421875;-110.34941101074219;-6.012674331665039;3.92950439453125;-7.8462982177734375;-0.868865966796875
1445423686707;315.7447509765625;-110.27873992919922;-6.817516803741455;3.890289306640625;-5.728057861328125;-0.3981475830078125
1445423686738;312.507080078125;-109.47960662841797;-8.96197509765625;3.9687347412109375;-5.100433349609375;-0.5942840576171875
1445423686776;311.06915283203125;-108.57518005371094;-11.908720016479492;4.2237091064453125;-4.8258514404296875;-1.692626953125
1445423686805;310.28460693359375;-108.22930145263672;-13.72105884552002;3.7725982666015625;-5.53192138671875;-2.7909698486328125
1445423686837;307.50531005859375;-108.48280334472656;-17.80164909362793;2.67425537109375;-7.35595703125;-3.4185943603515625
1445423686872;305.9101257324219;-108.96956634521484;-19.620891571044922;4.0864105224609375;-13.083053588867188;-2.908660888671875
1445423686903;302.8907470703125;-109.74420928955078;-22.106605529785156;5.7339324951171875;-14.220611572265625;-2.8498077392578125
1445423686936;301.5982360839844;-109.92268371582031;-23.061216354370117;5.2239837646484375;-10.5921630859375;-3.7520294189453125
1445423686969;300.85675048828125;-109.2705078125;-23.444894790649414;3.51763916015625;-8.846572875976562;-1.3395843505859375
1445423687002;297.8270263671875;-106.34750366210938;-23.2484073638916;3.2038116455078125;-7.7089996337890625;-0.7119598388671875
1445423687035;293.9852600097656;-102.59412384033203;-22.320932388305664;2.9096221923828125;-6.43414306640625;-0.4177703857421875
1445423687068;292.5604553222656;-100.64974975585938;-21.753803253173828;2.9488525390625;-6.8460235595703125;-0.5354461669921875
1445423687102;290.38433837890625;-97.12723541259766;-20.921682357788086;4.4002227783203125;-7.4540252685546875;-1.0257720947265625
1445423687134;290.3799743652344;-95.21841430664062;-20.217552185058594;6.008514404296875;-9.45458984375;-1.712249755859375
1445423687167;290.9341735839844;-94.93907928466797;-20.021387100219727;6.1065826416015625;-12.239669799804688;-2.575225830078125
1445423687200;291.98345947265625;-93.91102600097656;-19.543231964111328;-0.6796112060546875;-12.53387451171875;2.838043212890625
1445423687233;295.0118408203125;-94.51873016357422;-18.206771850585938;-1.9348602294921875;-14.044097900390625;1.9358367919921875
1445423687267;297.8443908691406;-93.72960662841797;-14.386238098144531;-1.5426025390625;-13.024200439453125;1.8377685546875
1445423687299;295.1744384765625;-91.02371215820312;-12.453975677490234;1.497467041015625;-11.357070922851562;1.190521240234375
1445423687332;294.0144958496094;-89.80213165283203;-11.638120651245117;3.0076904296875;-9.023101806640625;-1.00616455078125
1445423687366;293.4422912597656;-87.17131042480469;-10.12583065032959;2.752716064453125;-7.63055419921875;-0.94732666015625
1445423687397;297.6249694824219;-85.51789855957031;-9.270943641662598;0.3795013427734375;-5.9241943359375;-0.9080963134765625
1445423687432;300.78076171875;-85.02450561523438;-9.357200622558594;-0.640380859375;-5.9438018798828125;0.7394256591796875
1445423687464;303.1353759765625;-84.95941162109375;-9.549577713012695;1.0659637451171875;-10.670608520507812;2.40655517578125
1445423687498;299.92864990234375;-84.38216400146484;-9.490693092346191;-1.797576904296875;-15.966201782226562;-0.3785400390625
1445423687531;299.7314758300781;-84.2800521850586;-9.242654800415039;-2.856689453125;-14.299072265625;0.9159393310546875
1445423687563;304.728759765625;-85.4331283569336;-8.74753189086914;-0.6796112060546875;-11.121719360351562;5.407379150390625
1445423687596;311.7369079589844;-85.37191009521484;-7.6226677894592285;3.4784088134765625;-10.415634155273438;1.818145751953125
1445423687629;313.32781982421875;-84.48298645019531;-7.50805139541626;2.5958099365234375;-10.435256958007812;1.249359130859375
1445423687662;314.75640869140625;-83.8550796508789;-7.630853176116943;1.2817230224609375;-9.12115478515625;-2.08489990234375
1445423687696;315.4215087890625;-84.16839599609375;-7.714273929595947;0.16375732421875;-6.7675628662109375;-1.143463134765625
1445423687728;319.0584716796875;-85.78046417236328;-7.594029426574707;0.6344757080078125;-5.669219970703125;1.1512908935546875
1445423687762;323.69073486328125;-86.57405090332031;-7.4958696365356445;2.61541748046875;-8.218948364257812;3.26953125
1445423687795;324.93731689453125;-86.29976654052734;-7.977689743041992;0.4579620361328125;-13.004592895507812;1.44549560546875
1445423687828;326.23126220703125;-85.11563873291016;-9.431635856628418;-1.6406707763671875;-14.632492065429688;0.4256134033203125
1445423687861;326.2198486328125;-84.10073852539062;-10.63411808013916;-3.7588958740234375;-13.67144775390625;1.6220245361328125
1445423687894;326.5355529785156;-83.79405975341797;-11.028189659118652;-1.2483978271484375;-14.063705444335938;1.7789306640625
1445423687927;326.2706604003906;-82.99494934082031;-11.998860359191895;1.105194091796875;-13.808746337890625;-0.2020263671875
1445423687960;325.6209716796875;-82.91936492919922;-12.614083290100098;1.2621002197265625;-10.552932739257812;-1.96722412109375
1445423687993;325.5141906738281;-84.40985870361328;-13.326014518737793;2.066253662109375;-8.670059204101562;-2.516387939453125
1445423688025;327.1194152832031;-87.52540588378906;-13.756448745727539;2.5761871337890625;-6.9048614501953125;-3.536285400390625
1445423688058;327.41754150390625;-89.31684112548828;-14.073012351989746;1.18365478515625;-6.9048614501953125;-4.163909912109375
1445423688091;326.713134765625;-93.91780090332031;-14.570359230041504;1.105194091796875;-7.5128631591796875;-4.340423583984375
1445423688124;326.1833190917969;-100.9764633178711;-13.483098983764648;0.026458740234375;-11.180557250976562;-1.457275390625
1445423688157;325.3387756347656;-104.47611999511719;-12.4977388381958;-0.2481231689453125;-15.6131591796875;0.504058837890625
1445423688191;321.8788757324219;-108.9677963256836;-10.337100982666016;2.164306640625;-16.319244384765625;1.26898193359375
1445423688224;319.0250244140625;-111.49015045166016;-8.712635040283203;7.2441558837890625;-14.201004028320312;-0.2020263671875
1445423688258;317.4513854980469;-112.8521957397461;-7.935884952545166;4.9297943115234375;-10.454864501953125;-1.9868316650390625
1445423688294;312.44390869140625;-114.97903442382812;-6.138156414031982;2.635040283203125;-8.983871459960938;-1.4180450439453125
1445423688324;306.7895812988281;-115.38325500488281;-5.049222469329834;2.38006591796875;-5.8653564453125;0.07257080078125
1445423688356;304.8273620605469;-115.44801330566406;-4.9378743171691895;3.4195709228515625;-4.21783447265625;0.680572509765625
1445423688390;303.18853759765625;-115.413818359375;-5.5579423904418945;4.71405029296875;-1.4719696044921875;0.7001953125
1445423688421;303.8326416015625;-115.13589477539062;-5.995514869689941;5.06707763671875;-2.138824462890625;0.0921783447265625
1445423688454;306.67572021484375;-114.16218566894531;-7.472713947296143;5.832000732421875;-4.590484619140625;-1.3003692626953125
1445423688491;308.30908203125;-113.41250610351562;-10.791274070739746;4.1648712158203125;-15.828903198242188;-4.36004638671875
1445423688520;308.84521484375;-113.92733001708984;-12.228597640991211;2.5173492431640625;-17.8294677734375;-8.812255859375
1445423688553;308.60601806640625;-115.1601791381836;-13.428533554077148;0.8894500732421875;-13.239959716796875;-8.24346923828125
1445423688586;306.0564880371094;-113.89310455322266;-14.166666030883789;0.16375732421875;-10.278350830078125;-5.419158935546875
1445423688620;304.0756530761719;-112.94939422607422;-14.600570678710938;1.3797760009765625;-9.886077880859375;-3.536285400390625
1445423688652;298.8210754394531;-110.42842102050781;-15.900586128234863;2.693878173828125;-9.081939697265625;-2.1241302490234375
1445423688685;294.22021484375;-107.92413330078125;-17.38397789001465;3.7725982666015625;-6.296844482421875;-0.7315826416015625
1445423688718;293.48834228515625;-107.744384765625;-17.982812881469727;3.556854248046875;-5.218109130859375;-0.810028076171875
1445423688752;294.8060607910156;-108.33839416503906;-18.480356216430664;3.9687347412109375;-4.21783447265625;-0.6531219482421875
1445423688785;297.0653076171875;-108.95427703857422;-19.071422576904297;5.1847686767578125;-4.590484619140625;-0.6727447509765625
1445423688817;298.0251770019531;-109.30633544921875;-19.739974975585938;5.086700439453125;-6.7871856689453125;-1.75146484375
1445423688850;297.24078369140625;-108.87574005126953;-20.408266067504883;2.61541748046875;-13.0438232421875;-3.8108673095703125
1445423688883;295.7847900390625;-108.2166748046875;-19.269289016723633;3.3018798828125;-15.397415161132812;-3.3793792724609375
1445423688916;294.9889221191406;-106.13491821289062;-16.313180923461914;3.2822723388671875;-13.1026611328125;0.2098541259765625
1445423688949;299.7464904785156;-103.16264343261719;-13.86363410949707;5.145538330078125;-9.709564208984375;1.465118408203125
1445423688983;302.37103271484375;-101.49092864990234;-13.446521759033203;4.0471954345703125;-9.533035278320312;1.1709136962890625
1445423689015;304.6217346191406;-97.3486328125;-12.60509204864502;-0.1696624755859375;-10.356796264648438;0.876708984375
1445423689048;303.8287353515625;-93.77777099609375;-10.549814224243164;-0.9345855712890625;-9.356521606445312;-1.6337890625
1445423689082;303.67962646484375;-92.44015502929688;-9.719258308410645;-0.228515625;-9.219223022460938;-2.3594818115234375
1445423689114;306.5909423828125;-91.29620361328125;-8.067132949829102;1.791656494140625;-8.081649780273438;-0.3785400390625
1445423689148;312.2822570800781;-90.91609954833984;-7.597922325134277;3.3411102294921875;-11.533599853515625;0.759033203125
1445423689181;314.1543273925781;-91.002197265625;-7.824267864227295;2.5173492431640625;-11.474761962890625;1.26898193359375
1445423689214;316.7394714355469;-91.27452850341797;-7.481266498565674;-1.8956451416015625;-12.494644165039062;2.328094482421875
1445423689246;318.03594970703125;-90.83904266357422;-7.080562114715576;-2.425201416015625;-12.043548583984375;2.5634613037109375
1445423689279;320.2089538574219;-89.5060806274414;-5.725584983825684;-0.9345855712890625;-10.925582885742188;1.21014404296875
1445423689313;324.31671142578125;-86.69276428222656;-3.5530855655670166;4.184478759765625;-9.180007934570312;-2.8105926513671875
1445423689347;326.2740478515625;-85.37712860107422;-3.275362014770508;2.2623748779296875;-7.885528564453125;-2.4967803955078125
1445423689378;330.4385070800781;-85.09054565429688;-3.0857701301574707;1.6935882568359375;-7.0225372314453125;-1.6337890625
1445423689411;334.5444641113281;-86.0341567993164;-3.1040146350860596;1.4582366943359375;-8.1993408203125;1.8966064453125
1445423689444;335.9577331542969;-86.85939025878906;-3.578983783721924;1.497467041015625;-11.51397705078125;3.60296630859375
1445423689478;338.1865234375;-87.85917663574219;-4.826798915863037;-0.5619354248046875;-14.102935791015625;2.9164886474609375
1445423689510;340.7593994140625;-87.15044403076172;-5.163609504699707;-3.42547607421875;-11.651275634765625;4.1128997802734375
1445423689543;343.15106201171875;-86.60279846191406;-4.980308532714844;-2.1898345947265625;-11.259017944335938;3.60296630859375
1445423689576;345.8924255371094;-85.05577850341797;-4.502443790435791;-0.718841552734375;-11.200164794921875;0.5236663818359375
1445423689609;347.03094482421875;-84.72636413574219;-4.459059715270996;0.359893798828125;-10.02337646484375;-2.4771575927734375
1445423689642;350.2871398925781;-85.5498275756836;-4.34751033782959;0.8109893798828125;-8.689666748046875;-2.908660888671875
1445423689676;354.74322509765625;-87.62257385253906;-4.236645698547363;1.9681854248046875;-5.41424560546875;-1.378814697265625
1445423689708;357.525146484375;-88.68780517578125;-4.322908878326416;2.2035369873046875;-4.296295166015625;-0.064727783203125
1445423689741;0.760223388671875;-89.81936645507812;-4.586939334869385;1.18365478515625;-6.9048614501953125;-0.0254974365234375
1445423689774;1.46063232421875;-89.21916198730469;-5.556012153625488;2.2035369873046875;-18.162887573242188;-0.3197021484375
1445423689809;0.83966064453125;-88.63009643554688;-6.510664939880371;-1.5426025390625;-13.965652465820312;-0.3589324951171875
1445423689840;359.5371398925781;-89.54563903808594;-7.457370758056641;-1.4837646484375;-12.376968383789062;1.8377685546875
1445423689873;1.58392333984375;-89.67684173583984;-7.401435852050781;0.7913818359375;-11.670883178710938;2.1319580078125
1445423689906;1.459686279296875;-89.33843994140625;-7.824540138244629;1.0855865478515625;-11.200164794921875;0.9747772216796875
1445423689941;1.9698486328125;-89.3577880859375;-8.955681800842285;2.5958099365234375;-8.846572875976562;-0.8492584228515625
1445423689974;2.537384033203125;-89.42416381835938;-9.605783462524414;1.2817230224609375;-6.72833251953125;-0.692352294921875
1445423690006;3.755035400390625;-89.1341552734375;-10.650736808776855;-0.3069610595703125;-5.786895751953125;-0.1431732177734375
1445423690042;5.247100830078125;-88.23837280273438;-11.042190551757812;-1.111114501953125;-6.3360748291015625;0.8571014404296875
1445423690073;6.312103271484375;-87.68273162841797;-11.313157081604004;2.066253662109375;-10.160659790039062;1.6612396240234375
1445423690104;7.629486083984375;-86.76309967041016;-12.473209381103516;2.046630859375;-10.611770629882812;1.6220245361328125
1445423690139;7.3778076171875;-86.01622009277344;-13.215973854064941;2.0858612060546875;-14.69134521484375;3.014556884765625
1445423690170;7.5714111328125;-85.6949234008789;-13.251415252685547;3.262664794921875;-15.475875854492188;2.955718994140625
1445423690204;9.991485595703125;-84.94039916992188;-13.100733757019043;6.851898193359375;-13.632217407226562;0.8571014404296875
1445423690237;13.735931396484375;-85.8157958984375;-14.686123847961426;6.459625244140625;-9.415359497070312;-0.633514404296875
1445423690269;16.5550537109375;-87.86896514892578;-15.63576602935791;4.694427490234375;-8.022811889648438;-1.0257720947265625
1445423690303;24.024627685546875;-92.76167297363281;-16.890182495117188;3.9883575439453125;-8.728897094726562;-0.4373779296875
1445423690335;27.94744873046875;-95.4271240234375;-17.334186553955078;1.105194091796875;-7.375579833984375;0.8571014404296875
1445423690368;31.39306640625;-99.90216827392578;-17.772031784057617;-0.01275634765625;-6.0222625732421875;0.935546875
1445423690402;34.860198974609375;-103.5223388671875;-16.289897918701172;-0.3657989501953125;-6.9048614501953125;-0.868865966796875
1445423690435;36.2171630859375;-105.17488861083984;-15.12220287322998;0.5167999267578125;-8.179718017578125;-1.3395843505859375
1445423690467;39.412384033203125;-107.96134185791016;-12.232709884643555;2.164306640625;-10.14105224609375;-2.5948486328125
1445423690500;42.864410400390625;-109.74864959716797;-10.049445152282715;4.9886322021484375;-12.9261474609375;-6.1252288818359375
1445423690534;44.038360595703125;-110.45626068115234;-9.426318168640137;4.439453125;-9.258453369140625;-5.7722015380859375
1445423690567;47.251922607421875;-111.61022186279297;-8.883360862731934;3.498016357421875;-8.415084838867188;-5.4387664794921875
1445423690599;50.430694580078125;-112.07371520996094;-9.006668090820312;1.2032623291015625;-8.277786254882812;-5.1445770263671875
1445423690632;51.102630615234375;-112.43145751953125;-9.416242599487305;0.5560302734375;-7.86590576171875;-4.9484405517578125
1445423690664;50.332427978515625;-113.66609191894531;-10.954832077026367;-0.1108245849609375;-6.747955322265625;-4.222747802734375
1445423690698;49.74554443359375;-114.51749420166016;-11.755509376525879;-0.542327880859375;-6.1987762451171875;-4.281585693359375
1445423690731;49.41754150390625;-116.53775024414062;-12.991497039794922;-0.228515625;-6.2772369384765625;-4.4384918212890625
1445423690765;49.216064453125;-118.60576629638672;-14.152020454406738;2.125091552734375;-7.552093505859375;-4.968048095703125
1445423690797;48.847747802734375;-119.4994888305664;-14.561308860778809;4.439453125;-10.964813232421875;-6.0663909912109375
1445423690831;46.600250244140625;-120.65386962890625;-15.550126075744629;3.7922210693359375;-10.788284301757812;-6.439056396484375
1445423690863;42.8590087890625;-120.89869689941406;-16.542762756347656;2.38006591796875;-10.14105224609375;-6.3213653564453125
1445423690896;40.57855224609375;-120.52718353271484;-16.789968490600586;1.5759124755859375;-9.513427734375;-6.0271759033203125
1445423690929;34.798736572265625;-119.47425079345703;-16.807903289794922;1.0855865478515625;-8.728897094726562;-5.5172271728515625
1445423690962;27.060577392578125;-118.42780303955078;-16.49854850769043;0.4579620361328125;-6.473358154296875;-4.222747802734375
1445423690997;23.1357421875;-117.89912414550781;-16.45337677001953;0.595245361328125;-5.6496124267578125;-3.45782470703125
1445423691029;16.722564697265625;-116.75305938720703;-16.66803550720215;1.2032623291015625;-4.590484619140625;-2.08489990234375
1445423691061;14.04693603515625;-116.36205291748047;-16.89944839477539;1.673980712890625;-4.10015869140625;-1.0257720947265625
1445423691094;9.897216796875;-115.7255630493164;-16.86940574645996;2.693878173828125;-5.2573394775390625;-0.574676513671875
1445423691127;6.800201416015625;-113.76342010498047;-16.382200241088867;4.576751708984375;-9.101547241210938;-0.241241455078125
1445423691161;5.241729736328125;-111.91852569580078;-16.25247573852539;5.086700439453125;-12.318130493164062;-1.5357208251953125
1445423691193;1.05780029296875;-106.59017181396484;-15.909414291381836;4.145263671875;-13.298797607421875;-1.9868316650390625
1445423691226;354.57733154296875;-100.17750549316406;-15.062298774719238;3.0272979736328125;-12.788848876953125;0.1510162353515625
1445423691260;350.8614501953125;-96.64773559570312;-14.75221061706543;2.419281005859375;-11.357070922851562;0.6609649658203125
1445423691292;344.7929992675781;-91.54890441894531;-13.937079429626465;2.61541748046875;-10.239120483398438;1.2297515869140625
1445423691327;340.90960693359375;-88.66806030273438;-12.710014343261719;2.4585113525390625;-8.82696533203125;-1.378814697265625
1445423691359;337.8567810058594;-86.85599517822266;-12.498173713684082;-1.5622100830078125;-8.218948364257812;1.0336151123046875
1445423691391;334.80474853515625;-85.13949584960938;-12.08288288116455;-1.8956451416015625;-8.846572875976562;1.9358367919921875
1445423691425;334.15802001953125;-85.241455078125;-11.434585571289062;1.3405609130859375;-11.847412109375;1.9750518798828125
1445423691457;331.85235595703125;-84.89322662353516;-9.861933708190918;2.6546478271484375;-12.906524658203125;1.6612396240234375
