sep=;
timestamp;gyro-alpha;gyro-beta;gyro-gamma;accel-x;accel-y;accel-z
1445421739609;349.50286865234375;-92.19774627685547;-10.035737037658691;-2.5821075439453125;-4.8258514404296875;4.0736846923828125
1445421739642;358.92254638671875;-92.36448669433594;-10.69685173034668;-6.583221435546875;-9.90570068359375;-1.4180450439453125
1445421739675;3.124664306640625;-91.84838104248047;-10.116717338562012;-5.4064178466796875;-13.2791748046875;-4.026611328125
1445421739708;7.821258544921875;-90.29591369628906;-8.649003028869629;-4.6022796630859375;-19.53582763671875;-7.929656982421875
1445421739740;8.00848388671875;-89.66474914550781;-8.260968208312988;0.418731689453125;-17.476425170898438;-4.3208160400390625
1445421739774;8.028717041015625;-91.98500061035156;-8.770147323608398;5.4201202392578125;-15.770065307617188;-4.9288177490234375
1445421739808;6.69287109375;-95.12380981445312;-10.885433197021484;2.164306640625;-11.494369506835938;-0.064727783203125
1445421739841;5.41265869140625;-96.1307601928711;-11.914331436157227;0.2618255615234375;-8.415084838867188;1.876983642578125
1445421739872;3.3548583984375;-97.60563659667969;-13.015646934509277;2.242767333984375;-7.669769287109375;1.7985382080078125
1445421739906;4.3634033203125;-99.41134643554688;-13.38236141204834;5.96929931640625;-6.865631103515625;1.465118408203125
1445421739939;5.38763427734375;-100.26423645019531;-13.912819862365723;5.8712310791015625;-5.1200408935546875;3.0537872314453125
1445421739972;9.54815673828125;-101.68148040771484;-15.091886520385742;6.1850433349609375;-4.78662109375;2.8576507568359375
1445421740005;14.5733642578125;-103.1025390625;-16.75509262084961;6.4792327880859375;-6.5714263916015625;1.759307861328125
1445421740038;17.71844482421875;-103.82642364501953;-17.406410217285156;5.204376220703125;-7.9639739990234375;1.50433349609375
1445421740070;25.971038818359375;-105.39030456542969;-17.81992530822754;4.576751708984375;-10.062606811523438;-0.2804718017578125
1445421740104;33.640045166015625;-106.23866271972656;-18.22265625;2.10546875;-14.338302612304688;-2.7125244140625
1445421740138;37.4241943359375;-106.7769546508789;-17.996089935302734;0.8894500732421875;-13.259567260742188;-4.340423583984375
1445421740170;44.445648193359375;-107.34442138671875;-16.870407104492188;1.732818603515625;-11.533599853515625;-6.733245849609375
1445421740204;48.425994873046875;-106.2024917602539;-16.101337432861328;1.222869873046875;-9.846847534179688;-7.4981689453125
1445421740237;49.142364501953125;-105.44090270996094;-15.978489875793457;1.5759124755859375;-9.140777587890625;-4.9288177490234375
1445421740271;48.916961669921875;-104.31682586669922;-16.356019973754883;2.242767333984375;-7.92474365234375;-3.3205413818359375
1445421740303;48.065032958984375;-103.92290496826172;-16.89730453491211;1.556304931640625;-6.630279541015625;-2.516387939453125
1445421740335;46.221435546875;-103.37598419189453;-17.809988021850586;1.53668212890625;-5.7476806640625;-2.7713623046875
1445421740368;44.209808349609375;-103.15555572509766;-17.754499435424805;1.850494384765625;-6.1595458984375;-3.9285430908203125
1445421740404;42.7027587890625;-103.20520782470703;-17.62468719482422;1.9485626220703125;-9.101547241210938;-2.9282684326171875
1445421740434;41.0765380859375;-103.90048217773438;-17.029870986938477;4.1060333251953125;-9.434967041015625;1.308197021484375
1445421740467;43.657562255859375;-105.77413177490234;-16.148542404174805;9.774276733398438;-10.19989013671875;0.2294769287109375
1445421740500;45.609832763671875;-107.16073608398438;-16.161157608032227;11.225662231445312;-10.670608520507812;-4.3011932373046875
1445421740534;49.09759521484375;-109.5487289428711;-17.493309020996094;6.9303436279296875;-11.631668090820312;-1.6533966064453125
1445421740567;2.398651123046875;-111.9420394897461;-16.566038131713867;2.046630859375;-10.19989013671875;-1.692626953125
1445421740601;6.83990478515625;-112.21063232421875;-15.441953659057617;0.5167999267578125;-10.25872802734375;-3.085174560546875
1445421740632;14.0938720703125;-111.33334350585938;-13.092032432556152;-1.5622100830078125;-9.199615478515625;-5.2818603515625
1445421740665;16.396728515625;-110.60302734375;-11.865118980407715;-3.1312713623046875;-6.6498870849609375;-6.478271484375
1445421740698;17.471221923828125;-109.46965789794922;-9.840142250061035;-3.562774658203125;-5.845733642578125;-6.556732177734375
1445421740732;15.068634033203125;-109.34689331054688;-9.151790618896484;-3.033203125;-5.9438018798828125;-6.5763397216796875
1445421740767;12.6900634765625;-109.59684753417969;-9.343938827514648;-1.169952392578125;-6.7087249755859375;-5.419158935546875
1445421740797;6.6583251953125;-110.39913940429688;-10.33113956451416;-0.5030975341796875;-7.4736480712890625;-4.5561676025390625
1445421740831;0.069183349609375;-111.71186065673828;-11.417357444763184;1.36016845703125;-9.434967041015625;-2.8890380859375
1445421740863;357.5635681152344;-112.52665710449219;-11.51365852355957;3.2430419921875;-9.552658081054688;-3.4970550537109375
1445421740896;354.1010437011719;-113.99351501464844;-11.727530479431152;6.1065826416015625;-10.454864501953125;-4.0462188720703125
1445421740929;352.4511413574219;-114.34278869628906;-12.172983169555664;5.2239837646484375;-10.356796264648438;-6.615570068359375
1445421740963;348.6356506347656;-114.3660659790039;-12.965080261230469;4.0275726318359375;-10.08221435546875;-5.0072784423828125
1445421740997;343.1923522949219;-112.97816467285156;-13.931157112121582;1.8701171875;-8.964248657226562;-4.36004638671875
1445421741028;339.2335205078125;-111.82498931884766;-14.407281875610352;1.164031982421875;-8.3170166015625;-4.791534423828125
1445421741060;328.44024658203125;-108.47198486328125;-15.350214958190918;-0.405029296875;-8.5523681640625;-3.3597564697265625
1445421741095;316.7568359375;-105.05921936035156;-15.284479141235352;-0.4638671875;-8.1405029296875;0.445220947265625
1445421741127;311.8169860839844;-103.45478820800781;-14.672465324401855;1.105194091796875;-6.061492919921875;4.3482666015625
1445421741160;305.0606689453125;-100.06867218017578;-12.840729713439941;2.811553955078125;-5.551544189453125;3.4264373779296875
1445421741194;299.7928771972656;-96.85554504394531;-11.74898910522461;7.0088043212890625;-8.591598510742188;1.26898193359375
1445421741226;296.6528015136719;-95.98867797851562;-12.14744758605957;8.832839965820312;-12.886917114257812;-3.6931915283203125
1445421741259;295.4510498046875;-96.19568634033203;-12.950431823730469;7.8129425048828125;-11.39630126953125;1.759307861328125
1445421741293;295.3935241699219;-94.95590209960938;-12.684736251831055;1.046356201171875;-13.2791748046875;0.504058837890625
1445421741325;294.2548828125;-94.17515563964844;-12.15378475189209;-0.7580718994140625;-15.240509033203125;0.1706390380859375
1445421741358;292.615478515625;-93.672607421875;-11.252105712890625;2.7134857177734375;-12.906524658203125;-0.4962158203125
1445421741391;292.09576416015625;-93.53050231933594;-11.151503562927246;2.752716064453125;-10.297958374023438;-0.7904205322265625
1445421741424;290.2559814453125;-93.16059875488281;-11.196707725524902;0.026458740234375;-9.395751953125;-0.6531219482421875
1445421741457;288.10552978515625;-92.34512329101562;-10.819581031799316;0.928680419921875;-8.022811889648438;-0.868865966796875
1445421741490;286.9494934082031;-91.92048645019531;-10.537585258483887;1.6347503662109375;-8.062042236328125;-1.2219085693359375
1445421741523;284.42822265625;-91.8118896484375;-10.235960960388184;1.164031982421875;-7.944366455078125;-1.3984375
1445421741556;282.9682922363281;-92.46003723144531;-9.874085426330566;0.4971771240234375;-7.669769287109375;0.2098541259765625
1445421741589;282.79559326171875;-92.8222427368164;-9.577000617980957;0.3206634521484375;-8.395462036132812;1.072845458984375
1445421741622;281.63189697265625;-92.6722640991211;-9.093127250671387;0.7913818359375;-11.023651123046875;0.680572509765625
1445421741655;280.47772216796875;-92.30394744873047;-9.074694633483887;3.1449737548828125;-13.141891479492188;-0.7904205322265625
1445421741687;277.5025329589844;-91.96961212158203;-9.310810089111328;2.125091552734375;-13.063430786132812;-1.2219085693359375
1445421741721;274.829833984375;-92.00949096679688;-9.446966171264648;0.7717742919921875;-12.631942749023438;-0.94732666015625
1445421741754;273.157470703125;-92.1332015991211;-9.36629581451416;1.12481689453125;-11.27862548828125;-1.1630706787109375
1445421741787;268.9317626953125;-92.29983520507812;-9.313912391662598;0.9678955078125;-10.7098388671875;-1.06500244140625
1445421741820;265.2664794921875;-92.45967864990234;-9.066744804382324;1.3993988037109375;-8.4935302734375;-0.5354461669921875
1445421741854;263.693115234375;-92.48539733886719;-8.80449104309082;2.2231597900390625;-7.7874603271484375;0.562896728515625
1445421741886;261.46844482421875;-92.51026153564453;-7.981793403625488;2.5958099365234375;-6.944091796875;1.4258880615234375
1445421741919;260.5425109863281;-91.6412124633789;-7.417968273162842;1.8897247314453125;-4.8258514404296875;3.7010345458984375
1445421741952;260.7154541015625;-91.12946319580078;-7.181783199310303;2.67425537109375;-6.061492919921875;2.504608154296875
1445421741986;263.0419616699219;-90.03878784179688;-6.704675674438477;1.6347503662109375;-10.08221435546875;2.7399749755859375
1445421742020;263.95306396484375;-89.19469451904297;-6.539589881896973;3.3999481201171875;-15.456253051757812;0.4648284912109375
1445421742053;265.22857666015625;-88.37757110595703;-6.803069591522217;2.5761871337890625;-15.809295654296875;-0.6138916015625
1445421742084;269.55419921875;-89.49044799804688;-7.478762626647949;-0.895355224609375;-13.318405151367188;1.32781982421875
1445421742118;272.85406494140625;-90.77623748779297;-7.801568508148193;-1.8171844482421875;-12.121994018554688;0.58251953125
1445421742151;273.9803771972656;-91.04601287841797;-7.80485200881958;-0.9934234619140625;-11.259017944335938;-0.77081298828125
1445421742183;275.36376953125;-91.82485961914062;-8.087156295776367;0.7717742919921875;-9.395751953125;-2.20257568359375
1445421742220;275.7384338378906;-92.64627838134766;-8.440945625305176;0.8109893798828125;-7.7089996337890625;-2.006439208984375
1445421742249;276.9724426269531;-94.16378784179688;-9.035847663879395;-0.4442596435546875;-5.1200408935546875;0.58251953125
1445421742282;277.28338623046875;-93.84088134765625;-9.490078926086426;-0.85614013671875;-4.1197662353515625;1.190521240234375
1445421742315;276.2147521972656;-93.07002258300781;-9.808891296386719;-1.346466064453125;-6.6498870849609375;0.562896728515625
1445421742349;272.1680908203125;-90.29724884033203;-10.473785400390625;-0.895355224609375;-11.965087890625;0.504058837890625
1445421742381;266.5491638183594;-87.97003936767578;-11.711102485656738;2.811553955078125;-15.260116577148438;-0.94732666015625
1445421742417;263.4710693359375;-87.22576904296875;-12.354037284851074;2.635040283203125;-16.770355224609375;-1.9868316650390625
1445421742447;258.40252685546875;-86.5378646850586;-13.156851768493652;0.9678955078125;-16.18194580078125;-2.4183197021484375
1445421742481;253.6015625;-86.87045288085938;-13.864513397216797;0.418731689453125;-11.45513916015625;-2.4379425048828125
1445421742513;250.41259765625;-88.03497314453125;-14.277810096740723;0.536407470703125;-9.474197387695312;-2.26141357421875
1445421742546;244.60247802734375;-92.47872161865234;-15.342984199523926;-1.346466064453125;-7.375579833984375;1.6808624267578125
1445421742579;242.115966796875;-94.92131805419922;-15.773012161254883;-0.7384490966796875;-7.297119140625;1.44549560546875
1445421742612;237.25833129882812;-97.94921112060547;-16.205673217773438;-0.836517333984375;-7.552093505859375;1.50433349609375
1445421742647;234.33200073242188;-101.77240753173828;-15.002285957336426;0.026458740234375;-7.68939208984375;3.60296630859375
1445421742681;232.7498779296875;-103.23406982421875;-13.7529935836792;2.693878173828125;-8.983871459960938;4.4659423828125
1445421742714;230.74176025390625;-104.98629760742188;-10.94189453125;4.066802978515625;-10.02337646484375;4.0736846923828125
1445421742749;229.60394287109375;-105.77457427978516;-8.102704048156738;5.4789581298828125;-11.984695434570312;-0.4962158203125
1445421742779;228.49368286132812;-106.3036880493164;-6.822152614593506;5.322052001953125;-12.9261474609375;-1.4180450439453125
1445421742810;225.57205200195312;-107.55915069580078;-4.899027347564697;5.204376220703125;-15.299346923828125;-1.5553436279296875
1445421742843;222.6165771484375;-109.02093505859375;-4.484483242034912;6.9499664306640625;-11.965087890625;-1.4768829345703125
1445421742876;221.7406005859375;-110.09490203857422;-4.627890586853027;6.9891815185546875;-11.004043579101562;-1.6730194091796875
1445421742909;222.29638671875;-111.51419067382812;-4.5799078941345215;4.459075927734375;-9.650726318359375;-1.437652587890625
1445421742943;223.15609741210938;-111.98771667480469;-4.360716342926025;3.0665283203125;-8.101272583007812;-1.3395843505859375
1445421742975;225.3538818359375;-113.10551452636719;-3.2823994159698486;-0.4834747314453125;-6.061492919921875;-2.37908935546875
1445421743008;227.7667236328125;-114.01038360595703;-2.01958966255188;-2.366363525390625;-5.9634246826171875;-2.14373779296875
1445421743041;228.62744140625;-114.38955688476562;-1.6192759275436401;-1.8760223388671875;-6.4537506103515625;-2.08489990234375
1445421743075;228.94207763671875;-115.69171905517578;-1.133516550064087;-0.0716094970703125;-8.866195678710938;-3.144012451171875
1445421743106;227.825927734375;-117.04197692871094;-1.7300390005111694;2.32122802734375;-12.9849853515625;-1.6533966064453125
1445421743140;227.388427734375;-117.76346588134766;-1.896148920059204;3.556854248046875;-12.906524658203125;-1.378814697265625
1445421743173;226.23748779296875;-118.7611312866211;-1.6164437532424927;4.0864105224609375;-10.5333251953125;-3.3597564697265625
1445421743206;224.43524169921875;-117.1605453491211;-3.2761056423187256;2.49774169921875;-14.083328247070312;-3.1244049072265625
1445421743239;223.3707275390625;-115.64697265625;-4.595282077789307;2.5958099365234375;-14.593276977539062;-2.6144561767578125
1445421743272;221.0850830078125;-112.14598846435547;-6.989571571350098;2.38006591796875;-11.39630126953125;-1.810302734375
1445421743306;218.15093994140625;-107.16996765136719;-8.826811790466309;1.8701171875;-6.120330810546875;-1.143463134765625
1445421743338;216.43902587890625;-104.40840148925781;-9.585728645324707;1.105194091796875;-3.4725341796875;-1.8691558837890625
1445421743371;212.67916870117188;-100.10069274902344;-10.826234817504883;0.8306121826171875;-0.3343963623046875;-3.026336669921875
1445421743404;211.52703857421875;-98.92526245117188;-11.355034828186035;2.164306640625;-0.255950927734375;-2.1045074462890625
1445421743437;213.37411499023438;-98.73369598388672;-12.913267135620117;8.126754760742188;-9.591873168945312;-1.6730194091796875
1445421743470;215.3719482421875;-98.19114685058594;-14.604104042053223;1.850494384765625;-15.338577270507812;-0.300079345703125
1445421743503;217.92153930664062;-98.0771255493164;-14.306532859802246;1.5759124755859375;-16.397689819335938;-1.5553436279296875
1445421743536;224.08880615234375;-97.08293914794922;-12.837989807128906;1.7132110595703125;-15.868133544921875;-0.3589324951171875
1445421743569;224.28857421875;-95.54363250732422;-12.41667366027832;0.8306121826171875;-12.886917114257812;-3.1832427978515625
1445421743603;222.87918090820312;-94.80848693847656;-12.621703147888184;0.8109893798828125;-10.474472045898438;-3.1244049072265625
1445421743635;220.933349609375;-94.14008331298828;-12.733354568481445;-2.2682952880859375;-8.591598510742188;-3.3793792724609375
1445421743669;218.53103637695312;-94.48326873779297;-12.310083389282227;-0.6207733154296875;-8.748504638671875;-1.5357208251953125
1445421743703;216.71115112304688;-95.01053619384766;-11.952653884887695;0.8109893798828125;-7.9639739990234375;-1.810302734375
1445421743734;213.65280151367188;-96.00587463378906;-11.18746566772461;2.2231597900390625;-5.6299896240234375;-1.6337890625
1445421743767;212.6068115234375;-96.76197814941406;-11.224076271057129;2.2035369873046875;-5.29656982421875;0.621734619140625
1445421743800;211.10723876953125;-98.51119232177734;-11.702218055725098;4.007965087890625;-7.5324859619140625;0.07257080078125
1445421743834;208.78555297851562;-98.76354217529297;-12.895133018493652;2.635040283203125;-13.90679931640625;0.8571014404296875
1445421743866;208.6580810546875;-98.9239730834961;-13.489165306091309;2.870391845703125;-16.476150512695312;-1.0257720947265625
1445421743900;210.83331298828125;-100.17462921142578;-13.608333587646484;2.693878173828125;-15.848526000976562;-0.182403564453125
1445421743932;213.741455078125;-102.30738067626953;-13.461304664611816;5.3024444580078125;-14.436370849609375;0.896331787109375
1445421743966;214.87249755859375;-103.73500061035156;-13.567723274230957;6.400787353515625;-13.867584228515625;0.7394256591796875
1445421743998;218.38516235351562;-106.48605346679688;-13.442706108093262;6.1262054443359375;-11.965087890625;0.052947998046875
1445421744030;221.17779541015625;-107.48573303222656;-13.112337112426758;1.53668212890625;-7.23828125;-0.8492584228515625
1445421744065;228.287841796875;-108.83839416503906;-12.40375804901123;-1.1895599365234375;-5.3358001708984375;-1.457275390625
1445421744099;234.98995971679688;-109.87020111083984;-10.159462928771973;-3.60198974609375;-4.8846893310546875;-3.8108673095703125
1445421744130;237.0477294921875;-110.20823669433594;-8.453581809997559;-2.1309967041015625;-5.6888275146484375;-5.2818603515625
1445421744163;235.28305053710938;-111.09768676757812;-6.48370361328125;-1.797576904296875;-5.0808258056640625;-5.1249542236328125
1445421744198;231.86929321289062;-114.71672058105469;-6.526124954223633;0.5560302734375;-6.414520263671875;-5.85064697265625
1445421744230;232.14254760742188;-115.85332489013672;-6.610596179962158;-0.601165771484375;-10.5333251953125;-5.5172271728515625
1445421744264;232.88470458984375;-116.55255889892578;-6.78406286239624;-1.797576904296875;-10.9451904296875;-4.5561676025390625
1445421744295;230.00698852539062;-116.75873565673828;-7.323206424713135;1.0659637451171875;-11.062881469726562;-3.5558929443359375
1445421744329;227.948974609375;-116.7540054321289;-7.651096343994141;3.4784088134765625;-12.47503662109375;-4.41888427734375
1445421744362;224.79989624023438;-115.58170318603516;-8.886433601379395;3.1057586669921875;-13.259567260742188;-5.61529541015625
1445421744393;223.56439208984375;-114.60709381103516;-9.488462448120117;0.9678955078125;-8.905410766601562;-3.3205413818359375
1445421744427;219.90695190429688;-112.495361328125;-10.6326904296875;0.7521514892578125;-6.944091796875;-3.085174560546875
1445421744460;215.68621826171875;-111.55192565917969;-11.116596221923828;3.0076904296875;-4.04132080078125;-3.771636962890625
1445421744493;214.34017944335938;-111.065185546875;-11.169018745422363;2.7919464111328125;-4.923919677734375;-4.3796539306640625
1445421744526;214.84368896484375;-110.45462799072266;-10.795687675476074;1.5955352783203125;-5.4534759521484375;-3.6147308349609375
1445421744560;218.21871948242188;-110.39093017578125;-9.867097854614258;1.222869873046875;-6.3949127197265625;-2.9282684326171875
1445421744593;220.36871337890625;-110.11651611328125;-9.240608215332031;0.7521514892578125;-9.042709350585938;-4.2619781494140625
1445421744625;224.451171875;-109.01245880126953;-7.587559223175049;0.6344757080078125;-10.611770629882812;-5.3210906982421875
1445421744657;225.76934814453125;-108.68228149414062;-6.670355796813965;1.0267486572265625;-11.670883178710938;-5.477996826171875
1445421744699;226.93670654296875;-109.16411590576172;-5.915642261505127;-0.6207733154296875;-13.49493408203125;-6.1448516845703125
1445421744724;226.7191162109375;-109.85370635986328;-7.005491733551025;0.0853118896484375;-11.78857421875;-4.5757904052734375
1445421744757;226.09640502929688;-110.18195343017578;-8.138015747070312;0.7521514892578125;-11.043258666992188;-3.7324066162109375
1445421744790;222.939453125;-110.46055603027344;-11.358199119567871;1.9681854248046875;-8.473922729492188;-2.37908935546875
1445421744823;219.41030883789062;-109.78752899169922;-14.344865798950195;2.8507843017578125;-6.2183990478515625;-1.202301025390625
1445421744862;218.30410766601562;-109.06706237792969;-15.395841598510742;3.3607330322265625;-5.7672882080078125;-0.5942840576171875
1445421744890;217.92584228515625;-107.51473236083984;-16.15229606628418;4.3610076904296875;-5.845733642578125;-0.751190185546875
1445421744922;219.5809326171875;-106.11506652832031;-15.889138221740723;3.9883575439453125;-6.9636993408203125;-1.0453948974609375
1445421744955;221.06875610351562;-105.39041900634766;-15.626683235168457;3.81182861328125;-8.003204345703125;-1.1042327880859375
1445421744988;225.22482299804688;-104.07131958007812;-14.851160049438477;3.7922210693359375;-10.435256958007812;-1.829925537109375
1445421745022;231.0218505859375;-102.93280792236328;-13.814096450805664;3.6549224853515625;-11.494369506835938;-0.5354461669921875
1445421745054;233.71337890625;-101.67683410644531;-13.206623077392578;2.9096221923828125;-12.514266967773438;0.13140869140625
1445421745088;239.72940063476562;-98.18844604492188;-11.339814186096191;2.125091552734375;-13.965652465820312;1.3474273681640625
1445421745126;243.34942626953125;-96.75849151611328;-10.115052223205566;0.8306121826171875;-10.8275146484375;0.621734619140625
1445421745154;249.33572387695312;-94.51058197021484;-8.880669593811035;0.10491943359375;-9.984146118164062;0.7198028564453125
1445421745186;251.19601440429688;-92.54045104980469;-8.902411460876465;-1.3268585205078125;-10.513702392578125;0.19024658203125
1445421745219;251.760009765625;-91.60672760009766;-8.720128059387207;-0.777679443359375;-10.8863525390625;-0.7119598388671875
1445421745252;253.01400756835938;-90.20674896240234;-7.736944198608398;0.28143310546875;-10.6510009765625;-1.202301025390625
1445421745285;253.51153564453125;-89.2540512084961;-6.945847034454346;2.066253662109375;-8.532760620117188;-2.0456695556640625
1445421745318;306.3954162597656;-89.21599578857422;-6.9751434326171875;3.51763916015625;-7.12060546875;-1.6337890625
1445421745353;308.2308349609375;-90.70112609863281;-7.784536838531494;2.8899993896484375;-7.9051361083984375;0.5432891845703125
1445421745386;310.6581726074219;-91.69649505615234;-8.64169692993164;1.222869873046875;-10.219512939453125;2.092742919921875
1445421745417;312.3339538574219;-92.04167938232422;-9.022849082946777;2.419281005859375;-12.41619873046875;0.2883148193359375
1445421745449;317.20697021484375;-93.49368286132812;-9.4824857711792;1.105194091796875;-11.317855834960938;1.6024017333984375
1445421745483;321.9207763671875;-95.04472351074219;-10.409266471862793;0.6737060546875;-14.083328247070312;1.4847259521484375
1445421745516;323.738525390625;-95.63761901855469;-11.005481719970703;0.22259521484375;-14.416748046875;-0.3197021484375
1445421745548;328.27166748046875;-97.35309600830078;-12.070159912109375;1.0855865478515625;-14.102935791015625;-4.8699798583984375
1445421745582;331.7369384765625;-99.33240509033203;-12.677735328674316;3.7725982666015625;-9.00347900390625;-2.8498077392578125
1445421745615;340.5800476074219;-106.64522552490234;-14.168550491333008;3.890289306640625;-5.1985015869140625;0.955169677734375
1445421745647;346.90411376953125;-111.31224060058594;-15.831847190856934;-0.542327880859375;-3.3156280517578125;0.3471527099609375
1445421745681;346.0939025878906;-111.87020111083984;-16.737110137939453;-3.2685699462890625;-7.7678375244140625;-4.3796539306640625
1445421745714;342.352294921875;-111.48682403564453;-18.401559829711914;-0.7580718994140625;-8.571990966796875;-5.5760650634765625
1445421745746;341.4490661621094;-111.94908905029297;-21.4130802154541;7.0676422119140625;-7.74822998046875;-3.85009765625
1445421745780;342.007080078125;-113.17046356201172;-22.30156707763672;4.439453125;-8.297409057617188;-3.3597564697265625
1445421745813;346.74468994140625;-115.3070068359375;-21.33173370361328;5.5377960205078125;-9.395751953125;-4.2031402587890625
1445421745845;348.8558654785156;-115.8520736694336;-20.69407844543457;4.77288818359375;-9.415359497070312;-4.2423553466796875
1445421745880;350.54644775390625;-116.47501373291016;-20.05207061767578;3.0076904296875;-8.081649780273438;-3.536285400390625
1445421745912;350.9474182128906;-116.43814086914062;-19.925846099853516;5.6358642578125;-8.964248657226562;-3.889312744140625
1445421745945;351.14056396484375;-116.41948699951172;-20.156314849853516;5.714324951171875;-8.532760620117188;-3.57550048828125
1445421745980;351.9134216308594;-116.63127136230469;-20.395374298095703;5.1847686767578125;-8.473922729492188;-3.4382171630859375
1445421746013;352.53814697265625;-116.79303741455078;-20.210294723510742;3.7922210693359375;-8.101272583007812;-2.5359954833984375
1445421746044;352.84869384765625;-116.77226257324219;-19.980060577392578;4.184478759765625;-8.964248657226562;-3.3597564697265625
1445421746077;352.6202392578125;-116.24029541015625;-19.891921997070312;4.0864105224609375;-9.3369140625;-3.45782470703125
1445421746110;352.43756103515625;-115.65283966064453;-19.280672073364258;2.419281005859375;-7.885528564453125;-0.810028076171875
1445421746142;351.78790283203125;-114.86075592041016;-18.938556671142578;0.9678955078125;-7.1402130126953125;0.5432891845703125
1445421746176;348.5966796875;-110.84706115722656;-18.194543838500977;1.98779296875;-10.14105224609375;-1.9083709716796875
1445421746209;342.9358215332031;-104.28663635253906;-17.2053279876709;2.988067626953125;-16.221176147460938;-3.9677734375
1445421746242;339.8802185058594;-101.25745391845703;-16.305238723754883;3.6745452880859375;-18.300186157226562;-4.4973297119140625
1445421746275;336.078369140625;-97.53655242919922;-14.948781967163086;7.0480194091796875;-12.847686767578125;-0.4373779296875
1445421746309;336.0413818359375;-96.73869323730469;-15.14207649230957;9.538909912109375;-6.1595458984375;0.07257080078125
1445421746341;337.6814270019531;-95.59052276611328;-16.9185733795166;6.9499664306640625;-5.669219970703125;-0.88848876953125
1445421746374;334.8167724609375;-92.50926971435547;-18.899658203125;-2.8762969970703125;-7.297119140625;0.13140869140625
1445421746407;329.5455017089844;-90.42904663085938;-19.265905380249023;-2.91552734375;-7.316741943359375;-0.810028076171875
1445421746439;322.0125732421875;-86.49784851074219;-18.4094181060791;-0.0519866943359375;-7.6501617431640625;-1.496490478515625
1445421746473;320.9603271484375;-85.22209167480469;-17.914081573486328;3.6549224853515625;-6.7675628662109375;-2.516387939453125
1445421746506;320.6531677246094;-83.27952575683594;-17.799591064453125;3.2234344482421875;-6.8460235595703125;0.7001953125
1445421746539;320.990234375;-82.85069274902344;-18.582279205322266;2.752716064453125;-10.807907104492188;1.8966064453125
1445421746572;321.27752685546875;-82.9495620727539;-18.964984893798828;1.18365478515625;-18.300186157226562;-3.595123291015625
1445421746605;318.5810241699219;-83.33810424804688;-19.722763061523438;-0.85614013671875;-15.730850219726562;-1.9279937744140625
1445421746638;323.5229797363281;-87.61203002929688;-19.289440155029297;3.75299072265625;-12.337738037109375;4.3874969482421875
1445421746671;326.5009765625;-89.60408782958984;-19.248146057128906;5.5574188232421875;-9.944915771484375;0.1510162353515625
1445421746704;325.6349182128906;-90.77518463134766;-20.669038772583008;3.2234344482421875;-10.239120483398438;-1.00616455078125
1445421746738;325.0155029296875;-93.89286041259766;-21.620189666748047;1.438629150390625;-9.042709350585938;-1.3592071533203125
1445421746770;327.34130859375;-96.54761505126953;-21.42768669128418;4.8513336181640625;-6.8852386474609375;-2.8694305419921875
1445421746803;332.0710144042969;-100.5111312866211;-20.90752601623535;5.4201202392578125;-6.1007080078125;-2.4967803955078125
1445421746836;334.5147705078125;-102.29762268066406;-21.080459594726562;3.0076904296875;-5.17889404296875;-1.3003692626953125
1445421746872;335.7072448730469;-103.37630462646484;-21.2866268157959;2.9488525390625;-5.5123138427734375;-2.4771575927734375
1445421746903;339.46270751953125;-106.31452178955078;-21.05495262145996;3.439178466796875;-6.7675628662109375;-3.22247314453125
1445421746935;342.6169128417969;-107.92497253417969;-20.145740509033203;6.341949462890625;-9.45458984375;-3.9873809814453125
1445421746968;347.8857727050781;-109.54560089111328;-18.94382095336914;7.7344970703125;-11.259017944335938;-4.0658416748046875
1445421747001;351.3205261230469;-111.00877380371094;-19.944278717041016;7.4991302490234375;-11.670883178710938;-4.2619781494140625
1445421747034;353.2004699707031;-111.72794342041016;-20.582050323486328;5.7339324951171875;-11.317855834960938;-3.7324066162109375
1445421747067;356.90625;-112.82023620605469;-21.72639274597168;5.1847686767578125;-10.5333251953125;-3.4970550537109375
1445421747100;0.9345703125;-113.91167449951172;-22.105018615722656;3.2430419921875;-8.277786254882812;-3.085174560546875
1445421747133;3.4144287109375;-114.26500701904297;-21.69721221923828;2.7723236083984375;-6.5125885009765625;-2.6536865234375
1445421747166;7.685272216796875;-113.92921447753906;-19.845619201660156;1.732818603515625;-5.8653564453125;-3.1244049072265625
1445421747199;10.027130126953125;-112.91217041015625;-18.32110023498535;1.2032623291015625;-4.963134765625;-4.222747802734375
1445421747233;10.732635498046875;-112.6402359008789;-17.993967056274414;0.6737060546875;-5.159271240234375;-6.3998260498046875
1445421747266;9.024444580078125;-112.47444915771484;-18.57796287536621;0.477569580078125;-6.1007080078125;-6.497894287109375
1445421747298;3.96063232421875;-112.68843841552734;-19.712594985961914;1.9681854248046875;-11.27862548828125;-7.5766143798828125
1445421747331;1.3746337890625;-113.03334045410156;-20.293312072753906;3.6745452880859375;-13.0438232421875;-6.87054443359375
1445421747364;354.288818359375;-113.34622955322266;-21.653026580810547;2.61541748046875;-12.278900146484375;-6.046783447265625
1445421747398;344.57977294921875;-112.36227416992188;-22.241168975830078;3.1842041015625;-11.984695434570312;-3.8697052001953125
1445421747430;339.4405212402344;-111.50446319580078;-22.28179359436035;3.1253662109375;-12.082763671875;-2.908660888671875
1445421747463;328.3970031738281;-108.92178344726562;-22.258451461791992;2.38006591796875;-11.062881469726562;-0.9080963134765625
1445421747496;323.20098876953125;-107.51296997070312;-22.0048828125;2.164306640625;-6.8460235595703125;0.58251953125
1445421747530;315.1288757324219;-104.90827941894531;-21.172773361206055;1.8308868408203125;-4.3747406005859375;0.680572509765625
1445421747564;309.7207946777344;-101.8221435546875;-20.4921875;2.242767333984375;-1.452362060546875;2.58306884765625
1445421747595;309.589599609375;-100.56726837158203;-19.955890655517578;5.7927703857421875;-1.88385009765625;5.681976318359375
1445421747630;312.5548400878906;-97.97335052490234;-19.392040252685547;9.833114624023438;-4.15899658203125;3.5048980712890625
1445421747661;309.22509765625;-93.72016906738281;-20.377140045166016;7.40106201171875;-14.98553466796875;-0.88848876953125
1445421747694;309.1227722167969;-92.69528198242188;-20.20907974243164;5.3416748046875;-15.417037963867188;0.13140869140625
1445421747728;311.8971252441406;-92.44388580322266;-19.16596031188965;1.615142822265625;-14.024490356445312;3.1322479248046875
1445421747760;312.81976318359375;-91.80653381347656;-18.55914878845215;1.732818603515625;-13.965652465820312;1.26898193359375
1445421747793;311.26116943359375;-89.65420532226562;-18.079261779785156;3.9687347412109375;-12.847686767578125;-0.77081298828125
1445421747826;309.0206298828125;-88.24752807617188;-17.725875854492188;1.9093475341796875;-11.259017944335938;-2.7517547607421875
1445421747859;308.52008056640625;-88.1764907836914;-17.250423431396484;0.7913818359375;-9.748779296875;-3.3009185791015625
1445421747892;305.7895202636719;-87.51729583740234;-16.753131866455078;0.0656890869140625;-9.670333862304688;-4.2423553466796875
1445421747926;300.9851989746094;-87.12106323242188;-16.21101951599121;-2.150604248046875;-7.4540252685546875;-3.0067291259765625
1445421747958;299.18572998046875;-87.33062744140625;-15.58944320678711;-0.91497802734375;-6.49298095703125;0.7198028564453125
1445421747991;296.7273254394531;-87.33145904541016;-13.776118278503418;-0.326568603515625;-6.238006591796875;1.50433349609375
1445421748024;293.928955078125;-87.0211181640625;-12.645813941955566;2.9096221923828125;-10.219512939453125;1.190521240234375
1445421748057;292.6700439453125;-86.66170501708984;-12.419290542602539;0.4971771240234375;-12.730010986328125;3.289154052734375
1445421748090;292.3849182128906;-86.04743957519531;-11.842535972595215;0.8306121826171875;-14.86785888671875;3.1322479248046875
1445421748123;290.9076232910156;-86.10346221923828;-11.005779266357422;3.2822723388671875;-13.887191772460938;1.308197021484375
1445421748156;291.6634216308594;-86.92169189453125;-10.99231243133545;2.9488525390625;-13.141891479492188;2.2300262451171875
1445421748189;293.0032653808594;-89.13941192626953;-11.463261604309082;0.987518310546875;-12.690780639648438;0.680572509765625
1445421748222;291.3851318359375;-89.61669921875;-11.897185325622559;-0.8169097900390625;-10.278350830078125;-0.064727783203125
1445421748256;288.3619384765625;-90.4377212524414;-12.472874641418457;0.987518310546875;-8.336624145507812;0.2098541259765625
1445421748288;286.78411865234375;-90.97071075439453;-12.991074562072754;3.890289306640625;-5.7672882080078125;0.1510162353515625
1445421748321;286.44140625;-91.01536560058594;-13.286782264709473;1.8897247314453125;-3.8844146728515625;-0.77081298828125
1445421748354;285.3174743652344;-90.4849853515625;-13.408467292785645;0.359893798828125;-4.1786041259765625;-0.692352294921875
1445421748388;282.4289245605469;-88.19061279296875;-12.943596839904785;-1.6406707763671875;-10.356796264648438;-0.3393096923828125
1445421748420;280.4142150878906;-86.54011535644531;-12.727580070495605;-1.3660736083984375;-11.259017944335938;-0.633514404296875
1445421748453;275.92559814453125;-83.75788116455078;-12.320022583007812;-2.7978515625;-12.553482055664062;0.13140869140625
1445421748486;268.91644287109375;-81.51152801513672;-11.708122253417969;-0.718841552734375;-14.35791015625;0.19024658203125
1445421748520;265.1685791015625;-80.7302474975586;-11.549856185913086;-0.522705078125;-14.828628540039062;0.2686920166015625
1445421748553;258.2424621582031;-80.23988342285156;-11.702055931091309;-2.40557861328125;-15.770065307617188;-0.0254974365234375
1445421748585;254.21340942382812;-80.51042175292969;-11.708161354064941;0.0656890869140625;-14.534439086914062;-1.9083709716796875
1445421748619;244.1318359375;-82.92447662353516;-12.739487648010254;0.2618255615234375;-13.67144775390625;-0.182403564453125
1445421748651;238.85308837890625;-88.34806060791016;-14.338665962219238;-0.6796112060546875;-8.807342529296875;2.896881103515625
1445421748684;237.92892456054688;-90.54139709472656;-14.526576042175293;-2.1309967041015625;-4.021697998046875;5.289703369140625
1445421748718;237.05712890625;-93.02788543701172;-14.224987983703613;-2.34674072265625;-3.5313720703125;6.34881591796875
1445421748751;231.18798828125;-92.47367095947266;-13.298142433166504;0.242218017578125;-7.061767578125;4.210968017578125
1445421748787;226.539794921875;-92.25096130371094;-12.735353469848633;4.9690093994140625;-10.062606811523438;1.4062652587890625
1445421748816;218.70452880859375;-93.28759765625;-11.912158966064453;5.890838623046875;-10.435256958007812;0.81787109375
1445421748849;213.97650146484375;-95.52281951904297;-11.015237808227539;3.7725982666015625;-12.278900146484375;0.759033203125
1445421748882;212.316650390625;-96.98764038085938;-10.541556358337402;2.4585113525390625;-13.514541625976562;0.759033203125
1445421748916;210.01116943359375;-100.57279205322266;-9.323954582214355;1.41900634765625;-14.279464721679688;-0.82965087890625
1445421748948;206.94384765625;-103.7260971069336;-7.791662216186523;-0.3069610595703125;-14.769790649414062;-0.9669342041015625
1445421748981;204.5167236328125;-105.09930419921875;-6.869565963745117;-0.9345855712890625;-14.377532958984375;-0.3197021484375
1445421749015;197.4066162109375;-107.65125274658203;-5.18359375;-2.542877197265625;-10.572540283203125;-0.3393096923828125
1445421749047;192.76934814453125;-108.7393798828125;-4.977032661437988;-4.1707763671875;-10.494094848632812;0.5432891845703125
1445421749080;183.45526123046875;-110.42109680175781;-5.543300151824951;-4.0138702392578125;-10.9451904296875;1.7397003173828125
1445421749114;172.01034545898438;-110.8388900756836;-6.632643222808838;-0.601165771484375;-9.90570068359375;3.7598724365234375
1445421749146;165.40524291992188;-110.80110168457031;-7.563276767730713;0.301055908203125;-8.925033569335938;3.7010345458984375
1445421749179;151.8181610107422;-110.4309310913086;-10.197415351867676;0.2029876708984375;-9.00347900390625;3.4264373779296875
1445421749212;138.21560668945312;-110.64031219482422;-12.479616165161133;1.47784423828125;-11.474761962890625;1.2297515869140625
1445421749245;131.00210571289062;-111.13990020751953;-13.065323829650879;2.0074005126953125;-11.376693725585938;1.38665771484375
1445421749278;115.14517211914062;-111.39275360107422;-13.83787727355957;3.3999481201171875;-9.846847534179688;3.328369140625
1445421749310;109.31991577148438;-111.67151641845703;-13.27414321899414;5.8123931884765625;-8.846572875976562;-0.2608642578125
1445421749344;101.10079956054688;-113.203125;-11.158554077148438;5.6750946044921875;-8.630828857421875;-1.888763427734375
1445421749377;93.96578979492188;-113.81095123291016;-10.6985445022583;2.6546478271484375;-8.787734985351562;-3.261688232421875
1445421749410;90.6632080078125;-114.02780151367188;-10.957087516784668;2.419281005859375;-10.396026611328125;-0.8492584228515625
1445421749443;83.52578735351562;-114.86881256103516;-10.75010871887207;3.498016357421875;-10.062606811523438;-0.0451202392578125
1445421749476;77.72085571289062;-115.67323303222656;-10.211166381835938;3.51763916015625;-9.493820190429688;-2.20257568359375
1445421749509;75.52557373046875;-115.9014892578125;-10.123249053955078;2.183929443359375;-9.886077880859375;-2.2221832275390625
1445421749542;71.6982421875;-116.3860092163086;-10.016643524169922;2.8311614990234375;-8.964248657226562;-1.437652587890625
1445421749575;68.77505493164062;-117.39746856689453;-9.964266777038574;2.5958099365234375;-7.610931396484375;-2.4379425048828125
1445421749611;66.88427734375;-117.80718231201172;-10.28581714630127;0.6933135986328125;-8.3170166015625;-2.5359954833984375
1445421749641;62.229248046875;-118.55711364746094;-11.355786323547363;0.8109893798828125;-8.611221313476562;-2.1045074462890625
1445421749674;58.82025146484375;-119.3145523071289;-11.91651439666748;2.752716064453125;-8.94464111328125;-2.2221832275390625
1445421749707;57.616973876953125;-119.52283477783203;-12.013832092285156;3.9098968505859375;-9.356521606445312;-2.5359954833984375
1445421749740;55.5013427734375;-119.20655059814453;-12.437605857849121;4.0275726318359375;-10.454864501953125;-3.16363525390625
1445421749773;54.537811279296875;-118.83396911621094;-12.849040031433105;4.1648712158203125;-10.396026611328125;-2.7517547607421875
1445421749805;53.35357666015625;-117.92672729492188;-13.6276273727417;4.459075927734375;-10.337188720703125;-2.1241302490234375
1445421749839;53.895416259765625;-116.31990814208984;-13.665716171264648;4.3610076904296875;-12.102386474609375;-1.8495330810546875
1445421749872;54.355743408203125;-114.97135925292969;-13.293794631958008;2.9684600830078125;-11.415924072265625;-1.4180450439453125
1445421749905;54.5782470703125;-111.37892150878906;-12.58893871307373;2.5761871337890625;-10.121444702148438;-0.7904205322265625
1445421749938;54.96002197265625;-107.367431640625;-11.91549301147461;2.38006591796875;-8.630828857421875;0.13140869140625
1445421749971;55.477752685546875;-105.53289794921875;-11.630949020385742;0.7717742919921875;-9.101547241210938;-0.692352294921875
1445421750004;54.1240234375;-101.2179183959961;-11.347885131835938;0.3206634521484375;-7.7678375244140625;1.0924530029296875
1445421750037;54.03851318359375;-96.52771759033203;-10.920912742614746;0.7717742919921875;-7.297119140625;-2.4379425048828125
1445421750070;56.90411376953125;-95.59341430664062;-11.005414009094238;2.61541748046875;-8.2581787109375;-5.5172271728515625
1445421750103;59.41790771484375;-94.2145767211914;-11.378246307373047;-3.3470306396484375;-10.19989013671875;-4.5169525146484375
1445421750136;57.19158935546875;-92.18894958496094;-11.526087760925293;-7.897308349609375;-14.35791015625;-5.2818603515625
1445421750169;54.01025390625;-91.18250274658203;-11.677032470703125;-7.093170166015625;-14.338302612304688;-2.575225830078125
1445421750202;43.896697998046875;-90.39373779296875;-11.518988609313965;-0.3069610595703125;-15.338577270507812;0.5236663818359375
1445421750235;39.520416259765625;-90.2422103881836;-11.216804504394531;1.7132110595703125;-11.886642456054688;1.2885894775390625
1445421750268;30.5047607421875;-89.72520446777344;-11.332700729370117;1.791656494140625;-10.8275146484375;2.504608154296875
1445421750301;26.55548095703125;-89.4886245727539;-11.77469539642334;2.242767333984375;-9.846847534179688;0.896331787109375
1445421750335;13.60870361328125;-87.09529113769531;-13.456722259521484;-0.032379150390625;-10.003753662109375;0.2098541259765625
1445421750367;9.265289306640625;-86.17713165283203;-13.687572479248047;-0.5030975341796875;-9.219223022460938;0.2883148193359375
1445421750400;0.79541015625;-84.34220886230469;-14.061528205871582;-0.542327880859375;-6.5322113037109375;1.759307861328125
1445421750433;356.59161376953125;-83.66436767578125;-14.289204597473145;0.242218017578125;-7.12060546875;2.386932373046875
1445421750467;348.79302978515625;-82.4504623413086;-14.421390533447266;-0.01275634765625;-8.454315185546875;1.9946746826171875
1445421750499;345.5367431640625;-82.1418685913086;-14.384876251220703;-2.11138916015625;-9.00347900390625;1.582794189453125
1445421750537;339.8600769042969;-82.2605972290039;-14.013142585754395;-2.6409454345703125;-9.591873168945312;0.7786407470703125
1445421750565;333.4422607421875;-82.57322692871094;-13.286992073059082;-0.97381591796875;-14.279464721679688;0.504058837890625
1445421750598;326.52679443359375;-83.65917205810547;-13.4044189453125;2.929229736328125;-16.24078369140625;1.641632080078125
1445421750631;324.0363464355469;-84.99337768554688;-14.00721263885498;3.615692138671875;-13.475311279296875;2.151580810546875
1445421750664;322.50323486328125;-87.32123565673828;-15.369363784790039;6.8126678466796875;-10.8863525390625;2.8772735595703125
1445421750697;322.9028625488281;-87.79304504394531;-15.92138385772705;2.55657958984375;-10.847137451171875;2.0731201171875
1445421750729;322.15277099609375;-87.45555114746094;-16.327777862548828;0.2618255615234375;-10.415634155273438;1.4062652587890625
1445421750764;317.9907531738281;-86.2509994506836;-15.832244873046875;0.1441497802734375;-8.218948364257812;1.7985382080078125
1445421750796;316.96624755859375;-86.53929138183594;-15.722558975219727;3.6745452880859375;-6.061492919921875;0.30792236328125
1445421750830;317.5134582519531;-88.41096496582031;-16.41424560546875;4.262939453125;-4.8846893310546875;0.9747772216796875
1445421750862;319.67352294921875;-90.38431549072266;-16.776174545288086;3.3607330322265625;-5.492706298828125;1.21014404296875
1445421750897;319.917236328125;-91.31265258789062;-16.940380096435547;1.8701171875;-7.86590576171875;0.2686920166015625
1445421750930;319.6343078613281;-93.26299285888672;-16.948469161987305;1.24249267578125;-8.88580322265625;-0.1431732177734375
1445421750960;319.4254455566406;-94.37223815917969;-16.676488876342773;2.6546478271484375;-10.160659790039062;-1.0257720947265625
1445421750994;319.5710754394531;-97.01536560058594;-15.855741500854492;3.380340576171875;-11.827789306640625;-0.9277191162109375
1445421751027;320.0879211425781;-99.83702850341797;-14.720796585083008;4.3021697998046875;-14.710952758789062;-2.339874267578125
1445421751060;320.435791015625;-100.84857940673828;-14.113813400268555;4.2825469970703125;-13.78912353515625;-3.653961181640625
1445421751093;320.1445007324219;-101.99040985107422;-13.55349063873291;3.92950439453125;-12.65155029296875;-2.908660888671875
1445421751125;319.0221252441406;-102.76734161376953;-13.494731903076172;4.0471954345703125;-10.7686767578125;-1.378814697265625
1445421751159;318.15570068359375;-103.13590240478516;-13.638602256774902;1.8308868408203125;-8.571990966796875;-1.1042327880859375
1445421751192;314.65673828125;-103.12239837646484;-14.24101448059082;0.7521514892578125;-7.80706787109375;-1.143463134765625
1445421751225;312.3587341308594;-102.85986328125;-14.520976066589355;0.2029876708984375;-6.7087249755859375;-0.94732666015625
1445421751259;307.9288635253906;-102.17351531982422;-15.005416870117188;1.791656494140625;-5.9830322265625;0.6021270751953125
1445421751291;304.7781066894531;-101.28741455078125;-16.10329246520996;3.2234344482421875;-5.9830322265625;1.876983642578125
1445421751324;305.23065185546875;-101.41249084472656;-18.105222702026367;6.65576171875;-8.532760620117188;2.5438385009765625
1445421751357;307.17730712890625;-102.4345703125;-19.187833786010742;8.322891235351562;-8.787734985351562;-0.868865966796875
1445421751390;312.394287109375;-105.28395080566406;-20.648408889770508;10.735321044921875;-8.846572875976562;-1.51611328125
1445421751423;316.2066955566406;-106.99749755859375;-21.079269409179688;4.3610076904296875;-11.808181762695312;-1.2415313720703125
1445421751456;321.9503173828125;-108.00639343261719;-21.665950775146484;1.791656494140625;-12.121994018554688;-1.829925537109375
1445421751489;322.1548156738281;-106.84892272949219;-22.93203353881836;1.47784423828125;-10.964813232421875;-4.144287109375
1445421751522;321.18231201171875;-105.86016845703125;-23.489748001098633;1.9681854248046875;-9.434967041015625;-4.9288177490234375
1445421751555;317.6535339355469;-102.46385955810547;-23.948759078979492;2.183929443359375;-8.4935302734375;-3.7324066162109375
1445421751587;316.3340759277344;-100.55648040771484;-23.787776947021484;2.870391845703125;-6.747955322265625;-1.75146484375
1445421751624;315.297119140625;-97.0254898071289;-23.313627243041992;4.0864105224609375;-6.806793212890625;-2.398712158203125
1445421751655;313.3870849609375;-94.10733032226562;-23.233118057250977;3.1645965576171875;-7.552093505859375;-2.7713623046875
1445421751687;308.3185729980469;-90.85161590576172;-22.73478889465332;0.7129364013671875;-10.572540283203125;-0.9080963134765625
1445421751720;308.47607421875;-90.03551483154297;-21.797218322753906;-0.032379150390625;-10.297958374023438;1.190521240234375
1445421751754;309.3622131347656;-88.28864288330078;-19.676034927368164;2.4781341552734375;-11.435531616210938;1.308197021484375
1445421751786;305.255615234375;-85.6439208984375;-18.734821319580078;3.2430419921875;-12.553482055664062;0.01373291015625
1445421751819;303.3954162597656;-84.7401351928711;-18.338226318359375;1.3993988037109375;-12.004318237304688;0.6021270751953125
1445421751853;299.8837585449219;-82.85470581054688;-16.919143676757812;-0.8757476806640625;-10.905975341796875;0.445220947265625
1445421751885;297.63775634765625;-81.7115478515625;-15.976916313171387;1.046356201171875;-9.748779296875;0.58251953125
1445421751918;292.4357604980469;-79.99349212646484;-14.026557922363281;2.066253662109375;-9.768402099609375;-0.1039581298828125
1445421751951;284.54888916015625;-79.00154113769531;-12.925409317016602;-0.1892852783203125;-8.650436401367188;0.3471527099609375
1445421751984;281.7185974121094;-79.29259490966797;-12.378950119018555;-2.3859710693359375;-5.9634246826171875;4.4463348388671875
1445421752017;278.84442138671875;-80.40035247802734;-10.131790161132812;-0.777679443359375;-5.53192138671875;4.485565185546875
1445421752050;278.5633544921875;-80.9340591430664;-9.532973289489746;4.4198455810546875;-8.670059204101562;2.4850006103515625
1445421752086;281.58233642578125;-83.25590515136719;-10.038408279418945;5.890838623046875;-6.865631103515625;3.406829833984375
1445421752116;287.4386901855469;-83.34915161132812;-10.6929349899292;5.5574188232421875;-15.926971435546875;1.7985382080078125
1445421752151;286.9893798828125;-82.53648376464844;-10.461976051330566;-4.7787933349609375;-16.711502075195312;-1.7906951904296875
1445421752182;284.9169006347656;-86.16500091552734;-8.518867492675781;-5.4064178466796875;-13.49493408203125;0.1706390380859375
1445421752215;283.6477966308594;-88.1448745727539;-8.175812721252441;-2.150604248046875;-12.730010986328125;1.582794189453125
1445421752248;282.10491943359375;-88.72110748291016;-8.062711715698242;0.026458740234375;-9.258453369140625;0.9747772216796875
1445421752281;278.6804504394531;-89.34516906738281;-7.731860160827637;1.3209381103515625;-8.2581787109375;0.955169677734375
1445421752314;275.68853759765625;-89.47859954833984;-7.387287616729736;3.0665283203125;-6.6498870849609375;0.2294769287109375
1445421752347;273.9801025390625;-89.37943267822266;-7.388980388641357;1.8308868408203125;-8.1993408203125;0.2883148193359375
1445421752380;270.90399169921875;-89.20770263671875;-7.282947540283203;2.43890380859375;-8.120880126953125;0.386383056640625
1445421752415;268.9167175292969;-88.96221923828125;-7.195240020751953;2.55657958984375;-8.94464111328125;0.01373291015625
1445421752447;268.0566101074219;-89.0347900390625;-7.329423904418945;1.5170745849609375;-9.376129150390625;-0.241241455078125
1445421752481;266.7818908691406;-89.50227355957031;-7.6071367263793945;0.5560302734375;-9.944915771484375;0.0921783447265625
1445421752512;265.89715576171875;-89.73580169677734;-7.694018840789795;-1.0130462646484375;-10.925582885742188;0.7001953125
1445421752548;263.5332946777344;-89.90081024169922;-7.452092170715332;-0.601165771484375;-12.180831909179688;0.052947998046875
1445421752582;259.47589111328125;-89.35624694824219;-6.690744400024414;0.5167999267578125;-13.1614990234375;-0.0451202392578125
1445421752611;256.653076171875;-89.10340118408203;-6.369088172912598;0.6737060546875;-13.475311279296875;-0.2216339111328125
1445421752650;250.9918212890625;-88.81990814208984;-6.06580924987793;-0.3657989501953125;-12.906524658203125;0.641357421875
1445421752680;246.10867309570312;-88.5499267578125;-5.794299125671387;1.6935882568359375;-10.670608520507812;2.3477020263671875
1445421752710;243.7833251953125;-88.40071868896484;-5.7321977615356445;3.8510589599609375;-8.1405029296875;2.64190673828125
1445421752743;240.084228515625;-87.97480773925781;-6.166621208190918;3.8510589599609375;-7.4540252685546875;2.386932373046875
1445421752776;238.116455078125;-87.3279037475586;-7.137115001678467;4.4002227783203125;-6.72833251953125;1.7200775146484375
1445421752810;237.6998291015625;-87.09147644042969;-7.733949184417725;4.5571441650390625;-5.9438018798828125;1.38665771484375
1445421752842;238.62332153320312;-87.06842041015625;-9.053767204284668;2.988067626953125;-8.5523681640625;2.2496490478515625
1445421752876;242.930908203125;-87.62837219238281;-10.094341278076172;-0.1696624755859375;-9.827239990234375;2.269256591796875
1445421752908;245.248291015625;-87.85336303710938;-10.642326354980469;0.10491943359375;-12.318130493164062;1.876983642578125
1445421752941;249.58535766601562;-88.26813507080078;-12.358026504516602;-0.6796112060546875;-14.436370849609375;1.7789306640625
1445421752975;254.79849243164062;-89.00292205810547;-13.882570266723633;-1.2680206298828125;-14.201004028320312;1.8377685546875
1445421753007;257.01397705078125;-89.63892364501953;-14.382220268249512;0.359893798828125;-13.592987060546875;1.523956298828125
1445421753040;263.51605224609375;-92.04329681396484;-14.924145698547363;3.7922210693359375;-11.612045288085938;1.759307861328125
1445421753073;268.29296875;-93.57254791259766;-15.365235328674316;3.380340576171875;-8.513153076171875;2.0338897705078125
1445421753106;279.4660949707031;-96.62550354003906;-16.384178161621094;2.066253662109375;-7.1009979248046875;1.6220245361328125
1445421753139;288.6887512207031;-99.41344451904297;-17.119400024414062;-1.09149169921875;-6.5910491943359375;0.2686920166015625
1445421753172;292.3267822265625;-100.92977905273438;-17.3693790435791;-1.346466064453125;-6.9048614501953125;-1.3003692626953125
1445421753207;297.8474426269531;-104.22216796875;-17.345705032348633;-0.7972869873046875;-7.0813751220703125;-2.8694305419921875
1445421753238;300.0390930175781;-105.81477355957031;-17.229768753051758;-0.8757476806640625;-8.1993408203125;-4.399261474609375
1445421753272;303.5245056152344;-107.98314666748047;-17.369068145751953;0.10491943359375;-9.533035278320312;-4.026611328125
1445421753304;308.12786865234375;-109.25763702392578;-16.87660789489746;5.1063079833984375;-13.083053588867188;-3.791259765625
1445421753337;310.3145446777344;-109.69489288330078;-16.500505447387695;5.5181884765625;-8.650436401367188;-4.399261474609375
1445421753370;311.342041015625;-110.25849914550781;-17.36651611328125;4.753265380859375;-9.12115478515625;-4.2619781494140625
1445421753403;313.68621826171875;-110.9021224975586;-18.077299118041992;5.439727783203125;-12.063156127929688;-5.595672607421875
1445421753438;315.8048400878906;-110.98342895507812;-18.117279052734375;3.1842041015625;-10.25872802734375;-5.1837921142578125
1445421753469;320.6361083984375;-111.32579803466797;-18.287525177001953;1.0659637451171875;-9.180007934570312;-3.6735687255859375
1445421753503;324.844970703125;-111.5882568359375;-17.51051139831543;-0.267730712890625;-6.8852386474609375;-1.712249755859375
1445421753537;326.9044494628906;-111.10806274414062;-16.414663314819336;1.7720489501953125;-5.7672882080078125;-2.5359954833984375
1445421753569;331.0478515625;-110.17378234863281;-14.462030410766602;2.870391845703125;-5.29656982421875;-2.457550048828125
1445421753603;337.2071838378906;-110.7701644897461;-13.332525253295898;3.3999481201171875;-5.6496124267578125;-1.574951171875
1445421753634;340.75103759765625;-111.49635314941406;-12.820688247680664;3.3411102294921875;-6.473358154296875;-1.202301025390625
1445421753667;347.9571228027344;-112.68186950683594;-11.575387954711914;3.3411102294921875;-8.160110473632812;-2.281036376953125
1445421753700;351.5686340332031;-112.75184631347656;-11.143355369567871;1.9093475341796875;-9.474197387695312;-3.7520294189453125
1445421753733;357.310302734375;-112.74311065673828;-11.371040344238281;0.595245361328125;-9.395751953125;-4.281585693359375
1445421753766;1.83062744140625;-112.43507385253906;-12.263351440429688;0.1833648681640625;-10.08221435546875;-4.71307373046875
1445421753800;3.092254638671875;-111.48167419433594;-12.9751615524292;0.6344757080078125;-12.29852294921875;-5.3799285888671875
1445421753832;1.10992431640625;-108.69102478027344;-15.464422225952148;0.3991241455078125;-12.808456420898438;-6.41943359375
1445421753865;356.68829345703125;-106.88330078125;-17.21855926513672;-0.032379150390625;-11.965087890625;-6.497894287109375
1445421753899;354.66351318359375;-106.2967529296875;-17.568859100341797;0.0656890869140625;-8.120880126953125;-3.7520294189453125
1445421753931;350.0622253417969;-104.77130126953125;-17.7769775390625;-0.01275634765625;-6.6498870849609375;-2.7713623046875
1445421753964;347.8030090332031;-103.93296813964844;-17.730884552001953;1.928955078125;-6.296844482421875;-1.4180450439453125
1445421754002;345.3005676269531;-103.0078353881836;-17.682239532470703;4.9690093994140625;-7.86590576171875;-1.143463134765625
1445421754030;344.52850341796875;-102.9875259399414;-18.133821487426758;5.832000732421875;-8.3170166015625;-1.12384033203125
1445421754063;344.31109619140625;-102.95072937011719;-18.322261810302734;2.43890380859375;-11.27862548828125;-1.574951171875
1445421754101;342.91583251953125;-102.81048583984375;-18.01876449584961;0.9678955078125;-12.29852294921875;-2.2418060302734375
1445421754129;341.4793395996094;-102.5485610961914;-17.338485717773438;0.928680419921875;-11.729736328125;-2.457550048828125
1445421754162;340.10791015625;-102.13117218017578;-16.984893798828125;0.301055908203125;-12.141616821289062;-2.4379425048828125
1445421754197;336.10137939453125;-100.26397705078125;-15.876899719238281;-0.3069610595703125;-12.318130493164062;-2.2221832275390625
1445421754229;330.2817687988281;-97.5095443725586;-14.340190887451172;-0.326568603515625;-10.670608520507812;-1.084625244140625
1445421754262;326.93634033203125;-95.99271392822266;-13.4700927734375;1.811279296875;-9.160385131835938;-1.00616455078125
1445421754298;319.2970275878906;-93.05830383300781;-11.67294979095459;1.497467041015625;-8.689666748046875;-0.9277191162109375
1445421754327;312.15478515625;-90.82929229736328;-9.557061195373535;1.673980712890625;-8.513153076171875;0.01373291015625
1445421754364;309.41497802734375;-89.896484375;-8.824723243713379;0.7913818359375;-6.5714263916015625;2.7988128662109375
1445421754393;307.27374267578125;-88.47496795654297;-8.055521011352539;0.9090576171875;-6.179168701171875;3.289154052734375
1445421754426;308.0391845703125;-88.0374755859375;-8.076879501342773;3.9687347412109375;-11.925857543945312;-0.182403564453125
1445421754459;307.415771484375;-86.13703155517578;-7.890589714050293;1.0659637451171875;-12.396575927734375;0.9747772216796875
1445421754493;306.4776306152344;-84.03546142578125;-7.622290134429932;-1.9936981201171875;-13.965652465820312;0.386383056640625
1445421754525;305.12689208984375;-83.56781005859375;-7.516873359680176;0.6344757080078125;-12.435806274414062;1.7200775146484375
1445421754558;304.8876037597656;-83.69176483154297;-7.272281646728516;2.73309326171875;-12.02392578125;2.3673248291015625
1445421754591;304.94500732421875;-84.3877182006836;-7.422130107879639;3.1057586669921875;-10.552932739257812;2.2496490478515625
1445421754624;305.33062744140625;-84.63067626953125;-7.569617748260498;2.0074005126953125;-8.5523681640625;1.465118408203125
1445421754657;307.3759765625;-85.02767944335938;-7.556056022644043;1.2817230224609375;-7.3363494873046875;1.5435638427734375
1445421754690;308.96185302734375;-85.23877716064453;-7.375260353088379;0.8894500732421875;-5.610382080078125;0.9159393310546875
1445421754724;311.7068786621094;-85.18895721435547;-7.121669292449951;0.4579620361328125;-5.17889404296875;0.641357421875
1445421754756;312.88555908203125;-84.67668151855469;-6.88860559463501;-0.405029296875;-9.06231689453125;0.6021270751953125
1445421754789;312.78387451171875;-84.13097381591797;-6.750914096832275;-1.4445343017578125;-12.239669799804688;-0.9277191162109375
1445421754822;312.50054931640625;-83.26730346679688;-6.603426456451416;1.12481689453125;-13.2791748046875;-1.3003692626953125
1445421754855;311.9139709472656;-83.02584838867188;-7.294264316558838;0.536407470703125;-13.769515991210938;-0.3589324951171875
1445421754888;311.3968505859375;-83.17304229736328;-7.790927886962891;-1.1307220458984375;-12.965362548828125;1.7200775146484375
1445421754921;310.1554260253906;-83.07186889648438;-8.169095993041992;-0.3657989501953125;-12.004318237304688;1.7789306640625
1445421754954;309.2289733886719;-82.2796859741211;-8.667747497558594;0.8502197265625;-10.121444702148438;1.308197021484375
1445421754987;308.9040222167969;-81.75715637207031;-8.978677749633789;0.9090576171875;-8.336624145507812;1.072845458984375
1445421755021;308.7024841308594;-80.64649200439453;-9.688356399536133;1.24249267578125;-7.68939208984375;0.876708984375
1445421755053;309.22314453125;-79.82572174072266;-10.600279808044434;1.41900634765625;-6.944091796875;1.131683349609375
1445421755087;309.99676513671875;-79.5643081665039;-11.101468086242676;1.928955078125;-6.983306884765625;0.9747772216796875
1445421755119;311.88861083984375;-79.22411346435547;-12.20810604095459;2.360443115234375;-8.022811889648438;0.7786407470703125
1445421755152;312.8885803222656;-79.19641876220703;-12.912190437316895;1.164031982421875;-10.14105224609375;1.249359130859375
1445421755186;313.9757995605469;-79.39728546142578;-14.401215553283691;0.928680419921875;-11.45513916015625;0.876708984375
1445421755218;313.6361389160156;-80.4566421508789;-15.427054405212402;3.7137603759765625;-13.691055297851562;-1.5945587158203125
1445421755252;313.5535888671875;-81.71939086914062;-15.762531280517578;3.2822723388671875;-13.985260009765625;-0.9865570068359375
1445421755284;314.2193603515625;-85.64356994628906;-16.07312774658203;3.498016357421875;-14.044097900390625;-0.241241455078125
1445421755317;314.5301818847656;-90.28668212890625;-15.53038215637207;4.066802978515625;-13.122268676757812;0.4059906005859375
1445421755350;314.6431579589844;-92.44303131103516;-15.203449249267578;3.57647705078125;-11.827789306640625;0.5432891845703125
1445421755383;315.0627136230469;-95.9963150024414;-14.593862533569336;2.9684600830078125;-10.415634155273438;0.327545166015625
1445421755416;314.1366271972656;-98.43548583984375;-13.865494728088379;1.6935882568359375;-7.5913238525390625;0.562896728515625
1445421755449;312.9501647949219;-99.38191986083984;-13.537894248962402;1.3405609130859375;-6.5910491943359375;0.4256134033203125
1445421755482;310.1142272949219;-101.34355926513672;-12.914114952087402;1.3797760009765625;-5.0219879150390625;0.30792236328125
1445421755515;309.0378723144531;-102.44285583496094;-12.667601585388184;2.9684600830078125;-5.276947021484375;-0.7119598388671875
1445421755548;307.6861572265625;-104.59590148925781;-12.595067024230957;3.7922210693359375;-6.924468994140625;-1.1042327880859375
1445421755580;306.4102783203125;-106.58602905273438;-12.701469421386719;4.459075927734375;-10.807907104492188;-2.8498077392578125
1445421755614;305.9444274902344;-107.78009033203125;-12.675810813903809;4.0864105224609375;-12.141616821289062;-3.85009765625
1445421755647;305.3433532714844;-110.1134262084961;-12.573688507080078;3.87066650390625;-11.710113525390625;-3.51666259765625
1445421755680;304.26617431640625;-111.58561706542969;-12.863656997680664;3.380340576171875;-11.004043579101562;-3.3009185791015625
1445421755714;303.73846435546875;-111.97381591796875;-13.066219329833984;2.55657958984375;-10.5921630859375;-3.830474853515625
1445421755749;301.96136474609375;-112.10317993164062;-13.209857940673828;2.360443115234375;-9.866470336914062;-3.712799072265625
1445421755781;298.484619140625;-111.5675277709961;-12.889352798461914;1.732818603515625;-7.1598358154296875;-3.791259765625
1445421755812;296.6274719238281;-111.31013488769531;-12.611442565917969;0.9678955078125;-4.610107421875;-3.22247314453125
1445421755849;292.8044738769531;-110.56805419921875;-12.714385986328125;0.04608154296875;-4.080535888671875;-1.9279937744140625
1445421755877;289.648681640625;-110.2058334350586;-13.14690113067627;1.556304931640625;-6.1399383544921875;-1.3003692626953125
1445421755911;289.91546630859375;-110.15188598632812;-12.798686981201172;4.145263671875;-12.53387451171875;-2.8498077392578125
1445421755948;290.73101806640625;-109.79354095458984;-12.163555145263672;3.6745452880859375;-13.78912353515625;-3.9481658935546875
1445421755977;289.67352294921875;-109.15788269042969;-11.493552207946777;1.046356201171875;-10.925582885742188;-1.496490478515625
1445421756010;289.88671875;-108.70120239257812;-11.40805721282959;2.10546875;-10.611770629882812;-1.3003692626953125
1445421756043;289.3577575683594;-107.9068374633789;-12.570569038391113;3.1057586669921875;-12.180831909179688;-0.182403564453125
1445421756076;288.04345703125;-107.42432403564453;-13.195194244384766;1.12481689453125;-12.945755004882812;-2.2418060302734375
1445421756111;285.52777099609375;-105.69917297363281;-13.690317153930664;0.242218017578125;-11.474761962890625;-3.085174560546875
1445421756142;283.3974304199219;-103.56775665283203;-13.93104362487793;-0.542327880859375;-9.180007934570312;-1.261138916015625
1445421756175;282.2742614746094;-102.7178955078125;-13.993050575256348;-0.1696624755859375;-7.7089996337890625;0.5236663818359375
1445421756208;280.70733642578125;-101.2253189086914;-13.658857345581055;1.12481689453125;-7.7089996337890625;-1.18267822265625
1445421756241;280.3792724609375;-99.4734878540039;-12.647610664367676;2.10546875;-5.9830322265625;-0.3197021484375
1445421756274;281.52349853515625;-98.46975708007812;-12.04700756072998;2.4781341552734375;-4.982757568359375;1.32781982421875
1445421756307;282.94671630859375;-95.86178588867188;-11.309391975402832;3.7922210693359375;-8.238555908203125;2.6811370849609375
1445421756340;281.9649658203125;-94.15840148925781;-11.37595272064209;3.321502685546875;-13.828353881835938;-2.634063720703125
1445421756373;278.332763671875;-91.53315734863281;-11.285054206848145;2.9684600830078125;-13.710678100585938;0.4256134033203125
1445421756406;282.47137451171875;-91.16917419433594;-10.325382232666016;3.6745452880859375;-14.201004028320312;1.1120758056640625
1445421756438;283.73736572265625;-91.09709930419922;-10.211220741271973;2.066253662109375;-11.200164794921875;2.896881103515625
1445421756472;287.5535583496094;-91.46701049804688;-10.098845481872559;1.2032623291015625;-10.866744995117188;1.7397003173828125
1445421756506;289.5022277832031;-91.4505615234375;-9.883964538574219;-0.1696624755859375;-11.27862548828125;-0.7904205322265625
1445421756539;291.4660339355469;-92.0837173461914;-9.3992280960083;0.2029876708984375;-11.612045288085938;-2.575225830078125
1445421756572;292.5821228027344;-93.17031860351562;-9.275717735290527;1.5759124755859375;-9.670333862304688;-3.6931915283203125
1445421756604;294.5250244140625;-96.94328308105469;-9.639861106872559;1.2621002197265625;-7.1990509033203125;-1.06500244140625
1445421756640;295.9049377441406;-98.7728500366211;-9.705554008483887;0.04608154296875;-6.473358154296875;0.4648284912109375
1445421756670;298.61236572265625;-101.86186218261719;-9.360045433044434;-0.7972869873046875;-6.6498870849609375;-0.7315826416015625
1445421756703;299.21185302734375;-103.014892578125;-9.107869148254395;-2.1309967041015625;-5.669219970703125;2.1123504638671875
1445421756739;298.09051513671875;-102.52482604980469;-9.28088665008545;-1.228790283203125;-6.414520263671875;0.5432891845703125
1445421756769;292.90252685546875;-100.32782745361328;-10.095575332641602;0.1245269775390625;-14.259841918945312;-3.51666259765625
1445421756802;290.9812927246094;-98.38568115234375;-9.721561431884766;1.3993988037109375;-14.004867553710938;-2.7125244140625
1445421756835;291.1845397949219;-97.82414245605469;-9.422682762145996;4.576751708984375;-14.573654174804688;0.327545166015625
1445421756869;290.2331848144531;-96.88105773925781;-10.3069429397583;3.1842041015625;-14.161773681640625;0.7786407470703125
1445421756901;290.1480712890625;-96.72148895263672;-11.167159080505371;1.046356201171875;-12.945755004882812;1.8377685546875
1445421756934;293.7460021972656;-96.6583251953125;-12.064626693725586;1.3209381103515625;-11.592437744140625;2.7399749755859375
1445421756967;298.2492370605469;-96.16597747802734;-12.965653419494629;2.125091552734375;-10.101821899414062;3.1322479248046875
1445421757000;300.2019958496094;-95.97974395751953;-13.479437828063965;1.8897247314453125;-8.82696533203125;1.523956298828125
1445421757033;306.2598876953125;-96.07833099365234;-13.893360137939453;2.066253662109375;-8.3170166015625;-0.064727783203125
1445421757067;314.5423278808594;-97.2376708984375;-14.449325561523438;2.9684600830078125;-6.944091796875;-0.5942840576171875
1445421757099;318.7130432128906;-98.19235229492188;-15.05276107788086;2.55657958984375;-6.5714263916015625;-0.6138916015625
1445421757132;325.9928283691406;-100.72763061523438;-16.939138412475586;-0.4638671875;-6.7871856689453125;-1.2219085693359375
1445421757165;330.12249755859375;-102.86935424804688;-18.292695999145508;-2.1309967041015625;-8.82696533203125;-1.9868316650390625
1445421757198;330.63641357421875;-103.22362518310547;-18.5218563079834;-2.0721588134765625;-11.592437744140625;-2.9282684326171875
1445421757231;330.2461242675781;-103.01460266113281;-18.8311710357666;0.7325439453125;-13.710678100585938;-2.8694305419921875
1445421757264;330.6768798828125;-102.87550354003906;-18.889251708984375;5.086700439453125;-12.828079223632812;-2.1633453369140625
1445421757297;333.5858154296875;-102.69815826416016;-18.236906051635742;7.146087646484375;-11.670883178710938;-3.144012451171875
1445421757331;335.86846923828125;-102.41605377197266;-19.00379180908203;7.8914031982421875;-9.258453369140625;-2.6144561767578125
1445421757363;336.8612060546875;-102.62186431884766;-19.755937576293945;5.2828216552734375;-9.788009643554688;-3.6735687255859375
1445421757399;339.12890625;-103.47000885009766;-20.66960906982422;3.5960845947265625;-10.376419067382812;-4.1246795654296875
1445421757432;341.65789794921875;-105.0108413696289;-19.538251876831055;0.301055908203125;-9.12115478515625;-3.4185943603515625
1445421757462;342.65728759765625;-105.79145050048828;-18.402896881103516;0.22259521484375;-5.1396636962890625;-0.9865570068359375
1445421757496;345.1501770019531;-107.34355926513672;-16.283103942871094;1.9485626220703125;-3.904022216796875;-0.88848876953125
1445421757528;349.3595886230469;-108.74138641357422;-15.256669044494629;4.0864105224609375;-4.080535888671875;-1.75146484375
1445421757563;351.8116760253906;-109.43516540527344;-14.92149543762207;4.380615234375;-4.845458984375;-2.2221832275390625
1445421757596;357.04498291015625;-110.70953369140625;-14.51282787322998;3.51763916015625;-7.5324859619140625;-3.3597564697265625
1445421757627;2.590087890625;-111.16688537597656;-14.075183868408203;3.2234344482421875;-12.004318237304688;-2.8105926513671875
1445421757660;5.73883056640625;-111.23302459716797;-13.618224143981934;5.2436065673828125;-13.926422119140625;-2.14373779296875
1445421757693;10.920013427734375;-111.4605941772461;-12.86938762664795;5.204376220703125;-10.7686767578125;-3.7520294189453125
1445421757726;13.438812255859375;-111.40186309814453;-12.722891807556152;3.69415283203125;-11.494369506835938;-3.9481658935546875
1445421757759;18.7874755859375;-110.73816680908203;-13.20734691619873;2.8507843017578125;-11.023651123046875;-3.3009185791015625
1445421757792;20.8511962890625;-110.0936279296875;-14.896042823791504;1.47784423828125;-8.905410766601562;-2.5359954833984375
1445421757825;22.330108642578125;-109.79065704345703;-15.124606132507324;1.0267486572265625;-7.5324859619140625;-1.75146484375
1445421757858;26.684783935546875;-108.75775909423828;-14.930397987365723;0.9090576171875;-5.786895751953125;-1.6730194091796875
1445421757891;28.61865234375;-108.43303680419922;-15.05081844329834;0.2618255615234375;-6.1007080078125;-2.398712158203125
1445421757926;29.95465087890625;-108.41695404052734;-16.329832077026367;0.34027099609375;-6.7087249755859375;-2.575225830078125
1445421757957;31.420318603515625;-109.42582702636719;-17.209352493286133;2.5173492431640625;-9.180007934570312;-2.7713623046875
1445421757989;32.624908447265625;-109.83048248291016;-17.828166961669922;4.1060333251953125;-11.631668090820312;-3.0459442138671875
1445421758023;33.261016845703125;-109.77086639404297;-18.16551971435547;4.5375213623046875;-12.35736083984375;-3.16363525390625
1445421758056;35.40509033203125;-109.69884490966797;-18.575637817382812;3.831451416015625;-12.121994018554688;-3.28131103515625
1445421758090;36.344207763671875;-109.48789978027344;-18.802059173583984;3.0272979736328125;-11.39630126953125;-3.9481658935546875
1445421758121;37.792144775390625;-108.50193786621094;-19.057178497314453;2.5369720458984375;-10.729446411132812;-4.1246795654296875
1445421758156;38.521820068359375;-106.8284912109375;-19.040922164916992;1.12481689453125;-8.728897094726562;-3.9481658935546875
1445421758188;38.248016357421875;-105.80738067626953;-19.03867530822754;-0.208892822265625;-6.630279541015625;-3.144012451171875
1445421758221;36.83935546875;-103.77484893798828;-18.9255313873291;-0.01275634765625;-6.0026397705078125;-2.8890380859375
1445421758255;34.641448974609375;-102.04720306396484;-18.37688636779785;0.987518310546875;-5.8065185546875;-2.634063720703125
1445421758288;33.06060791015625;-101.29572296142578;-17.983692169189453;0.9678955078125;-6.061492919921875;-2.26141357421875
1445421758320;29.45953369140625;-100.02420043945312;-17.028593063354492;2.2623748779296875;-8.88580322265625;-2.3594818115234375
1445421758353;26.172637939453125;-98.92840576171875;-16.561752319335938;5.5377960205078125;-13.985260009765625;-4.105072021484375
1445421758386;25.92901611328125;-99.25910186767578;-16.522188186645508;6.4400177001953125;-13.84796142578125;-3.477447509765625
1445421758419;24.1759033203125;-99.80721282958984;-16.638872146606445;4.517913818359375;-12.494644165039062;-1.888763427734375
1445421758453;22.545989990234375;-99.10382080078125;-16.6607723236084;1.4582366943359375;-10.5333251953125;-0.2216339111328125
1445421758485;20.33929443359375;-97.51373291015625;-16.1498966217041;2.10546875;-9.297683715820312;-0.064727783203125
1445421758521;15.871307373046875;-94.82772064208984;-16.09389877319336;2.0074005126953125;-8.081649780273438;-0.5550537109375
1445421758550;13.027740478515625;-93.38124084472656;-16.089120864868164;0.8894500732421875;-8.003204345703125;-1.2219085693359375
1445421758584;7.37432861328125;-90.98538970947266;-15.486848831176758;-0.0519866943359375;-8.395462036132812;-1.06500244140625
1445421758617;2.46209716796875;-89.44603729248047;-14.207381248474121;0.2618255615234375;-8.689666748046875;1.190521240234375
1445421758662;359.11126708984375;-88.46100616455078;-12.794255256652832;2.7919464111328125;-9.846847534179688;1.6220245361328125
1445421758683;358.91339111328125;-88.25962829589844;-12.33468246459961;3.0665283203125;-10.003753662109375;2.328094482421875
1445421758716;357.5272521972656;-87.26435089111328;-10.988932609558105;0.3795013427734375;-12.965362548828125;0.19024658203125
1445421758749;355.85479736328125;-86.46815490722656;-10.19688606262207;0.1441497802734375;-13.122268676757812;0.01373291015625
1445421758782;352.4416809082031;-85.63711547851562;-9.0103178024292;-0.0519866943359375;-12.063156127929688;0.7198028564453125
1445421758815;350.91412353515625;-85.49828338623047;-8.592451095581055;0.301055908203125;-11.376693725585938;0.0333404541015625
1445421758849;347.0567321777344;-85.23129272460938;-7.7453742027282715;-0.1108245849609375;-10.905975341796875;-0.0451202392578125
1445421758881;343.4858703613281;-84.9360580444336;-6.988409996032715;0.22259521484375;-8.807342529296875;0.876708984375
1445421758914;341.94024658203125;-84.87293243408203;-6.657297134399414;1.24249267578125;-6.865631103515625;2.58306884765625
1445421758947;339.0212707519531;-84.42002868652344;-6.222757816314697;1.850494384765625;-6.4537506103515625;2.8772735595703125
1445421758982;336.03936767578125;-83.38042449951172;-6.125645160675049;1.9485626220703125;-8.160110473632812;2.1711883544921875
1445421759013;334.87335205078125;-82.65676879882812;-6.066280364990234;1.5170745849609375;-10.101821899414062;1.523956298828125
1445421759050;332.8191833496094;-81.39358520507812;-5.835402011871338;0.8894500732421875;-11.474761962890625;1.38665771484375
1445421759080;328.506591796875;-80.7038345336914;-5.740042686462402;-0.6207733154296875;-13.946029663085938;0.7198028564453125
1445421759112;325.74566650390625;-80.58477020263672;-5.664254665374756;-0.91497802734375;-14.436370849609375;0.6609649658203125
1445421759149;320.98565673828125;-80.94189453125;-5.116161823272705;0.2618255615234375;-13.396865844726562;0.386383056640625
1445421759180;317.3406982421875;-81.31611633300781;-4.558773994445801;0.928680419921875;-10.239120483398438;0.9159393310546875
1445421759211;316.20806884765625;-81.2785415649414;-4.450157642364502;0.4383392333984375;-8.4346923828125;1.8573760986328125
1445421759244;313.7967529296875;-80.83048248291016;-4.255062580108643;0.8109893798828125;-5.9634246826171875;2.6811370849609375
1445421759277;312.6920471191406;-80.23078155517578;-4.270875930786133;2.8507843017578125;-5.29656982421875;2.1907958984375
1445421759311;311.4487609863281;-78.92969512939453;-4.665477275848389;3.9883575439453125;-6.2183990478515625;1.9554443359375
1445421759343;314.2882995605469;-78.2065200805664;-5.607183933258057;3.262664794921875;-8.709274291992188;3.6814117431640625
1445421759376;317.0533142089844;-78.12568664550781;-6.1334028244018555;1.673980712890625;-10.415634155273438;4.2305908203125
1445421759409;320.46502685546875;-77.82814025878906;-6.757324695587158;1.0855865478515625;-13.78912353515625;2.779205322265625
1445421759442;323.52337646484375;-77.50701141357422;-7.254166603088379;-0.3657989501953125;-13.769515991210938;2.6026763916015625
1445421759475;325.01641845703125;-77.40100860595703;-7.358175277709961;-0.91497802734375;-13.710678100585938;1.8573760986328125
1445421759508;328.6901550292969;-77.1596908569336;-7.529748916625977;1.5759124755859375;-12.063156127929688;0.111785888671875
1445421759541;330.76513671875;-77.15070343017578;-7.877469539642334;2.9096221923828125;-8.76812744140625;0.9747772216796875
1445421759574;335.10760498046875;-77.64341735839844;-9.516484260559082;1.673980712890625;-7.12060546875;2.1907958984375
1445421759607;339.77490234375;-78.87174224853516;-10.831775665283203;0.6148681640625;-6.0418701171875;2.720367431640625
1445421759641;342.2880554199219;-79.40971374511719;-11.1471586227417;0.3206634521484375;-5.786895751953125;2.40655517578125
1445421759673;347.8325500488281;-80.27122497558594;-11.255184173583984;1.5170745849609375;-6.66949462890625;2.0535125732421875
1445421759706;353.4134216308594;-81.11814880371094;-11.834681510925293;4.4198455810546875;-11.729736328125;0.9747772216796875
1445421759740;356.298095703125;-82.00344848632812;-12.665862083435059;3.8510589599609375;-12.945755004882812;1.6808624267578125
1445421759771;1.268524169921875;-84.94803619384766;-14.485872268676758;3.949127197265625;-13.867584228515625;2.1711883544921875
1445421759805;6.516448974609375;-89.02886962890625;-15.407837867736816;6.793060302734375;-12.9261474609375;3.328369140625
1445421759838;9.745361328125;-91.1387939453125;-15.707428932189941;6.8715057373046875;-11.631668090820312;3.72064208984375
1445421759872;17.829498291015625;-95.08623504638672;-16.230920791625977;4.9297943115234375;-8.88580322265625;3.073394775390625
1445421759904;25.185791015625;-97.68536376953125;-16.974185943603516;1.0267486572265625;-6.37530517578125;1.3474273681640625
1445421759937;27.9305419921875;-98.65103912353516;-17.302433013916016;-0.208892822265625;-5.551544189453125;-0.0254974365234375
1445421759970;32.0107421875;-100.4300765991211;-17.413246154785156;-0.7580718994140625;-5.1396636962890625;-0.751190185546875
1445421760002;33.942230224609375;-101.45498657226562;-17.029937744140625;1.164031982421875;-7.4540252685546875;-1.084625244140625
1445421760036;38.73785400390625;-103.85973358154297;-15.486042976379395;1.673980712890625;-9.081939697265625;-2.516387939453125
1445421760069;45.115234375;-107.63224792480469;-13.445416450500488;2.5173492431640625;-8.3170166015625;-4.8699798583984375
1445421760101;48.7178955078125;-109.51724243164062;-12.344375610351562;3.7137603759765625;-13.122268676757812;-4.399261474609375
1445421760135;52.69781494140625;-110.8883285522461;-11.590581893920898;1.8308868408203125;-14.377532958984375;-3.908935546875
1445421760168;53.7147216796875;-111.5419921875;-11.18325138092041;0.418731689453125;-11.612045288085938;-4.9288177490234375
1445421760201;54.409149169921875;-111.66886138916016;-10.537711143493652;0.301055908203125;-10.5921630859375;-5.301483154296875
1445421760233;55.977020263671875;-111.27326202392578;-9.299004554748535;1.6347503662109375;-9.199615478515625;-5.55645751953125
1445421760267;56.652618408203125;-111.08760070800781;-8.635876655578613;2.5369720458984375;-7.2186737060546875;-4.4973297119140625
1445421760300;57.562347412109375;-111.24168395996094;-7.486334800720215;2.2231597900390625;-6.55181884765625;-4.2423553466796875
1445421760333;57.832427978515625;-112.06172180175781;-7.380121231079102;0.7521514892578125;-4.982757568359375;-4.0658416748046875
1445421760366;58.090484619140625;-113.01860046386719;-7.531769752502441;0.10491943359375;-5.23773193359375;-4.3208160400390625
1445421760400;58.166290283203125;-115.29161071777344;-7.141507625579834;0.0656890869140625;-6.0811004638671875;-4.163909912109375
1445421760432;56.47589111328125;-116.80176544189453;-6.3019022941589355;0.8502197265625;-8.76812744140625;-5.0661163330078125
1445421760465;55.49200439453125;-117.21378326416016;-6.118384838104248;1.732818603515625;-10.9451904296875;-7.3216400146484375
1445421760498;53.0531005859375;-117.68537902832031;-6.856839656829834;2.0858612060546875;-11.925857543945312;-7.419708251953125
1445421760532;47.87493896484375;-117.872314453125;-8.206430435180664;1.36016845703125;-11.200164794921875;-5.8114166259765625
1445421760564;44.156158447265625;-117.32105255126953;-8.758438110351562;0.2029876708984375;-9.886077880859375;-5.7525787353515625
1445421760597;34.9908447265625;-114.77176666259766;-10.483122825622559;-1.8367919921875;-9.513427734375;-4.673858642578125
1445421760630;24.406951904296875;-111.2328872680664;-12.528990745544434;-1.522979736328125;-9.552658081054688;-2.457550048828125
1445421760666;18.26165771484375;-109.35576629638672;-13.236235618591309;-1.15032958984375;-8.748504638671875;-1.692626953125
1445421760697;5.671722412109375;-105.67540740966797;-13.882312774658203;0.0068511962890625;-6.3949127197265625;0.4059906005859375
1445421760729;356.0669860839844;-101.94303894042969;-13.48784065246582;2.301605224609375;-5.5123138427734375;2.40655517578125
1445421760763;352.2018737792969;-99.8339614868164;-13.21033000946045;3.890289306640625;-7.4148101806640625;2.975341796875
1445421760799;348.0470275878906;-96.2696533203125;-12.697830200195312;4.94940185546875;-10.454864501953125;3.642181396484375
1445421760829;347.267333984375;-94.85060119628906;-12.385143280029297;3.046905517578125;-11.16094970703125;2.6811370849609375
1445421760871;344.1267395019531;-91.60678100585938;-11.708107948303223;1.6543731689453125;-14.887466430664062;-2.2221832275390625
1445421760894;340.44183349609375;-90.375732421875;-11.758477210998535;0.10491943359375;-11.867019653320312;1.1120758056640625
1445421760927;340.4853210449219;-90.93190002441406;-11.565260887145996;-0.091217041015625;-9.729171752929688;2.3477020263671875
1445421760960;340.4311218261719;-91.16796875;-10.714168548583984;-0.4246368408203125;-10.180282592773438;1.1120758056640625
1445421760994;335.4513854980469;-88.82234191894531;-10.267425537109375;-0.601165771484375;-10.631378173828125;-0.1627960205078125
1445421761026;333.2730407714844;-87.93923950195312;-9.818702697753906;1.7720489501953125;-9.925308227539062;-0.4373779296875
1445421761059;329.1434020996094;-86.63832092285156;-9.3960599899292;3.6745452880859375;-8.532760620117188;-1.5945587158203125
1445421761092;326.0787353515625;-86.13822937011719;-9.634604454040527;0.8109893798828125;-8.1993408203125;-1.9279937744140625
1445421761125;322.334228515625;-86.49098205566406;-10.037616729736328;0.869842529296875;-7.7678375244140625;0.5236663818359375
1445421761157;323.1709289550781;-89.20922088623047;-10.12372875213623;1.222869873046875;-8.042434692382812;4.0736846923828125
1445421761192;323.09283447265625;-90.52181243896484;-10.03810977935791;2.066253662109375;-10.866744995117188;3.3675994873046875
1445421761224;321.646240234375;-90.8344497680664;-9.822288513183594;1.3209381103515625;-12.161224365234375;1.21014404296875
1445421761257;317.9068298339844;-89.78486633300781;-9.63656997680664;-1.111114501953125;-14.259841918945312;-2.1829681396484375
1445421761290;317.1744689941406;-89.60767364501953;-9.284676551818848;0.1245269775390625;-12.141616821289062;-0.4569854736328125
1445421761323;314.7146911621094;-89.2706069946289;-8.797266960144043;0.6344757080078125;-10.435256958007812;-0.2608642578125
1445421761356;310.5609436035156;-88.31568908691406;-8.944499015808105;-0.2481231689453125;-9.572265625;-1.437652587890625
1445421761389;308.0957336425781;-87.68292236328125;-9.275289535522461;-0.58154296875;-10.19989013671875;-1.3592071533203125
1445421761422;301.91070556640625;-86.31355285644531;-10.081491470336914;-1.0522613525390625;-9.219223022460938;-1.0453948974609375
1445421761454;298.7474365234375;-85.77281188964844;-10.32464599609375;-2.974365234375;-7.2186737060546875;1.4847259521484375
1445421761488;295.0123596191406;-85.2807388305664;-10.41871166229248;-1.5426025390625;-6.5714263916015625;3.4460601806640625
1445421761521;291.2550048828125;-84.09505462646484;-10.772570610046387;1.2621002197265625;-8.670059204101562;4.8189849853515625
1445421761555;287.49932861328125;-81.97162628173828;-11.846233367919922;1.0659637451171875;-11.867019653320312;2.64190673828125
1445421761587;285.7930603027344;-80.97928619384766;-12.122675895690918;0.10491943359375;-12.828079223632812;1.38665771484375
1445421761620;283.6517639160156;-80.01322937011719;-12.500252723693848;1.36016845703125;-14.299072265625;2.328094482421875
1445421761656;282.80462646484375;-79.99385833740234;-12.907723426818848;3.262664794921875;-14.299072265625;1.44549560546875
1445421761686;280.72314453125;-80.80391693115234;-13.856158256530762;2.693878173828125;-12.65155029296875;0.6609649658203125
1445421761719;278.24273681640625;-82.9527816772461;-14.873540878295898;1.7720489501953125;-9.00347900390625;-0.241241455078125
1445421761751;276.75897216796875;-84.53243255615234;-15.41600513458252;1.5759124755859375;-7.5128631591796875;-0.6138916015625
1445421761785;275.06475830078125;-89.04266357421875;-16.162071228027344;2.2231597900390625;-6.3164520263671875;-1.437652587890625
1445421761818;275.2097473144531;-94.57151794433594;-16.126447677612305;2.7723236083984375;-6.37530517578125;-1.12384033203125
1445421761853;275.20770263671875;-97.04854583740234;-15.849113464355469;2.4585113525390625;-6.983306884765625;-1.06500244140625
1445421761884;273.6094970703125;-100.66720581054688;-14.911459922790527;1.615142822265625;-8.591598510742188;-1.3003692626953125
1445421761918;270.28515625;-103.38318634033203;-14.019679069519043;2.9488525390625;-9.709564208984375;-0.2804718017578125
1445421761950;268.8224792480469;-104.58818054199219;-13.94314956665039;5.086700439453125;-11.670883178710938;0.3471527099609375
1445421761983;266.46356201171875;-106.8586196899414;-14.147704124450684;7.9502410888671875;-13.357635498046875;-0.8492584228515625
1445421762016;265.703857421875;-107.92364501953125;-14.199127197265625;9.264328002929688;-11.16094970703125;-2.0456695556640625
1445421762049;263.4577331542969;-109.06501770019531;-14.951543807983398;7.989471435546875;-9.944915771484375;-1.457275390625
1445421762082;261.0007019042969;-108.64955139160156;-16.352249145507812;4.5963592529296875;-8.277786254882812;-0.9669342041015625
1445421762115;260.39434814453125;-108.07906341552734;-16.83474349975586;2.811553955078125;-6.944091796875;-1.6337890625
1445421762149;259.5270080566406;-106.68482208251953;-17.40199089050293;2.183929443359375;-6.7675628662109375;-2.37908935546875
1445421762181;259.0342102050781;-105.83568572998047;-17.763870239257812;1.6543731689453125;-6.3164520263671875;-2.08489990234375
1445421762214;257.10211181640625;-104.11631774902344;-19.018775939941406;2.2623748779296875;-5.8065185546875;-1.5945587158203125
1445421762270;253.15557861328125;-102.35505676269531;-20.694347381591797;3.63531494140625;-6.49298095703125;-1.4768829345703125
1445421762282;252.27059936523438;-102.00565338134766;-20.90868377685547;4.380615234375;-7.4540252685546875;-1.692626953125
1445421762323;250.57870483398438;-100.79493713378906;-20.64275360107422;5.7535552978515625;-10.5333251953125;-2.02606201171875
1445421762358;249.19802856445312;-99.90465545654297;-20.57947540283203;8.675933837890625;-13.710678100585938;-1.6141815185546875
1445421762382;247.999267578125;-99.20374298095703;-20.678621292114258;9.264328002929688;-13.1614990234375;-0.7119598388671875
1445421762423;245.88836669921875;-97.90202331542969;-21.744661331176758;6.008514404296875;-11.710113525390625;-1.2219085693359375
1445421762458;244.665283203125;-96.95924377441406;-21.877012252807617;1.2032623291015625;-9.552658081054688;-1.6730194091796875
1445421762478;243.615234375;-95.7657470703125;-21.65257453918457;-0.4442596435546875;-8.160110473632812;-0.9277191162109375
1445421762511;242.82797241210938;-93.57977294921875;-20.193382263183594;-1.09149169921875;-6.8264007568359375;-0.241241455078125
1445421762556;242.64251708984375;-91.46228790283203;-18.28968620300293;0.359893798828125;-6.4537506103515625;-0.9277191162109375
1445421762579;241.3917236328125;-90.61595153808594;-17.552059173583984;1.6347503662109375;-7.35595703125;-1.829925537109375
1445421762610;237.834228515625;-89.63951873779297;-16.429969787597656;1.046356201171875;-9.219223022460938;-2.516387939453125
1445421762643;236.231689453125;-90.11862182617188;-15.30190372467041;0.28143310546875;-10.984420776367188;-2.0456695556640625
1445421762676;235.69097900390625;-90.42546081542969;-14.848786354064941;-0.3069610595703125;-12.141616821289062;-1.5553436279296875
1445421762709;233.03878784179688;-90.69145202636719;-14.42577838897705;-0.640380859375;-13.475311279296875;-1.457275390625
1445421762743;230.557861328125;-91.25755310058594;-14.347384452819824;-1.8171844482421875;-12.494644165039062;0.7982635498046875
1445421762775;229.21347045898438;-91.87552642822266;-14.275339126586914;-0.5619354248046875;-11.651275634765625;1.700469970703125
1445421762826;227.93878173828125;-93.98221588134766;-13.846259117126465;1.4582366943359375;-9.768402099609375;2.0535125732421875
1445421762841;227.93878173828125;-93.98221588134766;-13.846259117126465;0.7325439453125;-10.101821899414062;1.582794189453125
1445421762918;232.22421264648438;-96.4952621459961;-11.864391326904297;1.6543731689453125;-10.572540283203125;0.0921783447265625
1445421762924;232.8902587890625;-97.11691284179688;-11.790409088134766;2.164306640625;-10.866744995117188;-0.064727783203125
1445421762951;233.64230346679688;-97.66852569580078;-12.049585342407227;2.32122802734375;-11.023651123046875;-0.0254974365234375
1445421762983;234.67422485351562;-98.05203247070312;-12.41325855255127;1.18365478515625;-10.8275146484375;0.1510162353515625
1445421763017;237.3514404296875;-98.36857604980469;-12.491194725036621;0.869842529296875;-10.494094848632812;-0.3981475830078125
1445421763050;239.0322265625;-98.51646423339844;-11.774660110473633;2.0074005126953125;-8.454315185546875;-2.457550048828125
1445421763082;239.6966552734375;-98.62290954589844;-11.129729270935059;2.301605224609375;-9.356521606445312;-3.536285400390625
1445421763116;241.01068115234375;-99.24207305908203;-9.85201644897461;2.38006591796875;-10.435256958007812;-3.28131103515625
1445421763149;243.0322265625;-101.14558410644531;-8.898658752441406;1.18365478515625;-9.219223022460938;-2.37908935546875
1445421763183;243.89468383789062;-102.34245300292969;-8.350214004516602;0.34027099609375;-8.454315185546875;-1.829925537109375
1445421763215;244.41094970703125;-104.04584503173828;-7.0830607414245605;0.026458740234375;-9.297683715820312;-2.2221832275390625
1445421763248;243.47433471679688;-104.30419158935547;-6.672111988067627;4.125640869140625;-11.376693725585938;-2.6144561767578125
1445421763288;240.47882080078125;-104.5688247680664;-7.028281211853027;3.890289306640625;-9.827239990234375;-1.75146484375
1445421763314;238.32708740234375;-104.52626037597656;-8.366179466247559;3.1842041015625;-8.277786254882812;-0.7315826416015625
1445421763346;237.51495361328125;-104.08924865722656;-8.922807693481445;1.75244140625;-5.9438018798828125;1.50433349609375
1445421763384;236.2694091796875;-102.51492309570312;-9.454460144042969;2.164306640625;-6.2576141357421875;0.8571014404296875
1445421763415;235.28955078125;-100.73274230957031;-9.123688697814941;2.693878173828125;-9.709564208984375;-0.868865966796875
1445421763445;235.37612915039062;-100.13613891601562;-8.77474308013916;3.321502685546875;-11.10211181640625;-1.4768829345703125
1445421763479;235.70135498046875;-99.3349380493164;-8.475850105285645;4.2041015625;-10.984420776367188;-1.3592071533203125
1445421763514;236.49392700195312;-99.36286163330078;-9.172119140625;3.92950439453125;-11.33746337890625;-0.4962158203125
1445421763552;239.31561279296875;-99.71634674072266;-10.28326416015625;2.0858612060546875;-10.7686767578125;1.1120758056640625
1445421763578;241.2781982421875;-99.74923706054688;-10.76962947845459;1.928955078125;-11.651275634765625;0.994384765625
1445421763610;243.26959228515625;-99.55498504638672;-11.161951065063477;1.47784423828125;-13.926422119140625;-1.00616455078125
1445421763644;247.391357421875;-99.05879211425781;-11.60300350189209;0.7325439453125;-13.632217407226562;-0.6138916015625
1445421763676;253.20050048828125;-98.71673583984375;-11.597617149353027;1.3209381103515625;-12.082763671875;0.6021270751953125
1445421763710;256.20599365234375;-98.24083709716797;-11.689493179321289;0.869842529296875;-10.788284301757812;0.2098541259765625
1445421763743;262.0328674316406;-96.88516235351562;-11.744829177856445;0.5167999267578125;-9.944915771484375;-0.2216339111328125
1445421763776;268.2838439941406;-95.75324249267578;-11.349536895751953;0.595245361328125;-8.4935302734375;-1.18267822265625
1445421763811;273.166259765625;-95.119384765625;-11.550888061523438;-0.4442596435546875;-6.49298095703125;-2.37908935546875
1445421763841;274.4930114746094;-95.14678192138672;-11.89596176147461;-1.228790283203125;-6.3949127197265625;-3.22247314453125
1445421763875;276.86663818359375;-96.59503936767578;-11.827472686767578;-1.4445343017578125;-7.7678375244140625;-3.595123291015625
1445421763907;278.1252746582031;-97.76325988769531;-11.533956527709961;-1.0130462646484375;-9.45458984375;-3.45782470703125
1445421763941;280.0389099121094;-99.6080551147461;-11.696657180786133;-0.91497802734375;-11.729736328125;-1.3984375
1445421763974;281.5148010253906;-101.80264282226562;-13.166939735412598;0.0068511962890625;-11.925857543945312;-0.5550537109375
1445421764007;282.1454162597656;-102.76374053955078;-14.257588386535645;0.654083251953125;-12.259292602539062;0.1510162353515625
1445421764040;283.8798828125;-103.44290924072266;-15.521422386169434;1.0659637451171875;-12.730010986328125;1.26898193359375
1445421764074;286.3113098144531;-102.60694885253906;-15.330591201782227;4.184478759765625;-11.082489013671875;-1.06500244140625
1445421764106;287.64093017578125;-102.05034637451172;-15.26619815826416;5.00823974609375;-10.062606811523438;-1.8691558837890625
1445421764139;290.7867431640625;-101.60623931884766;-15.92232608795166;4.812103271484375;-7.63055419921875;-1.437652587890625
1445421764173;293.0889892578125;-102.11343383789062;-16.67481231689453;4.3021697998046875;-5.8065185546875;-0.9669342041015625
1445421764206;300.8153991699219;-105.16915130615234;-17.556808471679688;3.615692138671875;-5.3946380615234375;-0.633514404296875
1445421764237;312.30413818359375;-109.3584976196289;-16.563745498657227;1.4582366943359375;-5.5907745361328125;0.641357421875
1445421764271;317.8583984375;-110.978759765625;-15.280763626098633;-1.4837646484375;-11.16094970703125;-3.202850341796875
1445421764303;325.0503234863281;-112.77852630615234;-11.139881134033203;-1.8760223388671875;-12.553482055664062;-5.1641845703125
1445421764337;330.3869323730469;-113.96991729736328;-7.952825546264648;-0.228515625;-10.396026611328125;-6.3213653564453125
1445421764370;332.42413330078125;-114.47650146484375;-7.055266857147217;0.28143310546875;-9.925308227539062;-6.98822021484375
1445421764403;332.4084167480469;-115.3779067993164;-6.51162576675415;1.046356201171875;-7.9051361083984375;-7.753143310546875
1445421764436;331.30670166015625;-115.83378601074219;-6.871931076049805;2.2623748779296875;-10.396026611328125;-6.5763397216796875
1445421764470;329.2154541015625;-115.4625244140625;-8.370903015136719;2.6546478271484375;-11.827789306640625;-6.0860137939453125
1445421764502;329.3952941894531;-115.07843780517578;-9.700157165527344;3.9687347412109375;-11.200164794921875;-5.301483154296875
1445421764538;330.4051513671875;-115.64840698242188;-10.049063682556152;2.988067626953125;-9.513427734375;-4.3796539306640625
1445421764571;333.2401428222656;-116.8117446899414;-10.015259742736816;2.4585113525390625;-8.238555908203125;-3.45782470703125
1445421764601;337.13458251953125;-117.3610610961914;-9.554301261901855;1.8308868408203125;-5.9241943359375;-1.712249755859375
1445421764633;339.3514404296875;-117.60826873779297;-9.436835289001465;2.066253662109375;-4.531646728515625;-0.88848876953125
1445421764667;344.8191223144531;-118.44572448730469;-9.311522483825684;2.5958099365234375;-3.0410308837890625;-1.06500244140625
1445421764700;350.31402587890625;-119.62093353271484;-10.182849884033203;1.9485626220703125;-6.55181884765625;-3.889312744140625
1445421764736;352.5654296875;-120.08258819580078;-11.01941967010498;2.1446990966796875;-12.9849853515625;-5.2230224609375
1445421764766;355.5106201171875;-120.13179779052734;-12.941389083862305;1.850494384765625;-13.141891479492188;-5.8114166259765625
1445421764799;356.4195251464844;-119.53262329101562;-14.809232711791992;2.125091552734375;-10.670608520507812;-6.0663909912109375
1445421764832;356.0561828613281;-118.71295928955078;-15.883983612060547;1.30133056640625;-10.337188720703125;-6.537109375
1445421764865;353.2422790527344;-115.9953842163086;-17.819488525390625;0.04608154296875;-9.611495971679688;-6.5763397216796875
1445421764898;350.8677673339844;-114.32137298583984;-18.60619354248047;-0.1892852783203125;-7.493255615234375;-5.1837921142578125
1445421764941;342.3350524902344;-109.47020721435547;-19.78475570678711;1.2032623291015625;-5.8065185546875;-3.51666259765625
1445421764968;340.0919494628906;-108.29874420166016;-19.802064895629883;2.10546875;-5.8065185546875;-3.0459442138671875
1445421764998;338.5403747558594;-107.52957916259766;-19.750728607177734;4.007965087890625;-6.0026397705078125;-1.496490478515625
1445421765031;337.1570129394531;-107.21612548828125;-19.62299346923828;5.380889892578125;-7.297119140625;-2.1633453369140625
1445421765063;337.7712707519531;-108.5841064453125;-19.64771270751953;8.205215454101562;-10.5921630859375;-5.3210906982421875
1445421765096;339.2042541503906;-110.03591918945312;-19.457599639892578;4.0275726318359375;-11.200164794921875;-2.4967803955078125
1445421765130;340.42626953125;-110.81065368652344;-18.023651123046875;1.2817230224609375;-11.004043579101562;-2.7125244140625
1445421765164;336.2550354003906;-108.64008331298828;-16.90251350402832;1.1444244384765625;-10.572540283203125;-4.8111419677734375
1445421765195;334.0586853027344;-107.49972534179688;-16.57103157043457;2.73309326171875;-9.709564208984375;-4.026611328125
1445421765229;328.573974609375;-105.34223937988281;-16.748441696166992;3.7922210693359375;-8.336624145507812;-2.7517547607421875
1445421765261;325.10986328125;-104.28333282470703;-17.080556869506836;0.7717742919921875;-6.6498870849609375;-2.1829681396484375
1445421765295;318.2622375488281;-101.91722106933594;-17.551193237304688;0.242218017578125;-6.0026397705078125;-1.3003692626953125
1445421765327;312.11456298828125;-99.9727554321289;-17.69455909729004;2.0270233154296875;-7.493255615234375;-0.005889892578125
1445421765360;309.0036926269531;-99.05786895751953;-17.645536422729492;1.3797760009765625;-12.808456420898438;-1.0453948974609375
1445421765392;302.4443664550781;-96.58710479736328;-17.285911560058594;2.635040283203125;-13.769515991210938;-0.3393096923828125
1445421765426;302.7991638183594;-95.17072296142578;-14.69696044921875;5.380889892578125;-11.965087890625;0.81787109375
1445421765459;304.1648864746094;-94.23625946044922;-13.617132186889648;3.439178466796875;-9.631103515625;0.6609649658203125
1445421765492;306.0877990722656;-92.12376403808594;-12.401488304138184;1.9485626220703125;-9.709564208984375;0.4059906005859375
1445421765524;304.0531921386719;-90.2191390991211;-11.774585723876953;-0.5619354248046875;-10.670608520507812;-1.00616455078125
1445421765558;302.1534423828125;-89.23320770263672;-11.327046394348145;-1.6798858642578125;-11.16094970703125;-1.5945587158203125
1445421765590;300.1165771484375;-87.82086181640625;-9.98924446105957;-1.5818328857421875;-9.395751953125;-1.5357208251953125
1445421765624;298.677490234375;-86.4072036743164;-8.914647102355957;-0.6207733154296875;-6.924468994140625;0.01373291015625
1445421765657;297.35870361328125;-85.80155181884766;-8.493367195129395;-0.228515625;-6.0811004638671875;0.8571014404296875
1445421765690;293.6280517578125;-84.80492401123047;-8.078134536743164;1.6935882568359375;-9.827239990234375;1.56317138671875
1445421765723;292.1394958496094;-84.34559631347656;-8.21856689453125;2.43890380859375;-13.573379516601562;-1.2415313720703125
1445421765756;291.744140625;-84.3849105834961;-8.794177055358887;1.47784423828125;-13.55377197265625;0.01373291015625
1445421765789;292.8873291015625;-85.71234130859375;-9.350659370422363;-0.228515625;-12.671173095703125;3.406829833984375
1445421765821;293.7878723144531;-86.18507385253906;-9.39124870300293;1.2817230224609375;-11.494369506835938;3.642181396484375
1445421765855;295.713623046875;-85.74833679199219;-9.28638744354248;3.046905517578125;-11.474761962890625;2.64190673828125
1445421765888;297.80889892578125;-84.87281036376953;-10.112586975097656;6.1262054443359375;-11.180557250976562;-0.4962158203125
1445421765921;299.0508728027344;-84.71752166748047;-11.023107528686523;5.0474700927734375;-9.68994140625;-0.9865570068359375
1445421765954;302.7119140625;-84.91263580322266;-12.845425605773926;-0.7972869873046875;-6.1595458984375;0.896331787109375
1445421765987;305.200439453125;-84.73209381103516;-12.946727752685547;-4.1119384765625;-4.472808837890625;2.0142822265625
1445421766020;305.53106689453125;-84.17814636230469;-12.739339828491211;-3.856964111328125;-6.0026397705078125;2.1711883544921875
1445421766052;305.8761291503906;-82.97260284423828;-12.636356353759766;-1.3856964111328125;-10.729446411132812;1.50433349609375
1445421766085;306.0377197265625;-82.38650512695312;-12.674636840820312;2.8507843017578125;-13.946029663085938;-0.9669342041015625
1445421766119;304.9364929199219;-81.55479431152344;-13.72533130645752;2.811553955078125;-14.98553466796875;-0.1039581298828125
1445421766151;303.996826171875;-82.51811981201172;-15.515193939208984;2.6546478271484375;-15.142440795898438;2.2300262451171875
1445421766185;303.7798156738281;-83.3060302734375;-16.46021270751953;3.615692138671875;-11.965087890625;1.2885894775390625
1445421766218;304.1266174316406;-85.0490951538086;-18.962303161621094;2.73309326171875;-7.68939208984375;0.5432891845703125
1445421766250;306.0320739746094;-87.51873779296875;-21.611770629882812;4.0864105224609375;-6.5125885009765625;-0.7119598388671875
1445421766284;307.493896484375;-89.17658996582031;-22.633079528808594;4.77288818359375;-7.0813751220703125;-1.261138916015625
1445421766316;312.6555480957031;-93.72526550292969;-24.106712341308594;4.1060333251953125;-5.5907745361328125;-1.1042327880859375
1445421766350;321.5111083984375;-98.93928527832031;-24.18233871459961;2.4781341552734375;-5.1200408935546875;-1.771087646484375
1445421766383;324.66021728515625;-100.8908462524414;-24.028884887695312;3.2430419921875;-6.944091796875;-3.144012451171875
1445421766416;325.68359375;-102.8310546875;-23.88338851928711;4.0275726318359375;-11.553207397460938;-5.7525787353515625
1445421766449;324.3317565917969;-102.64117431640625;-23.830202102661133;4.6159820556640625;-11.259017944335938;-5.1249542236328125
1445421766482;322.5843811035156;-103.07575988769531;-22.91999626159668;5.6947021484375;-11.45513916015625;-4.1246795654296875
1445421766514;322.5210266113281;-104.52940368652344;-21.382490158081055;5.8712310791015625;-11.21978759765625;-2.6732940673828125
1445421766548;321.8486022949219;-104.43421173095703;-20.8192195892334;5.2436065673828125;-8.748504638671875;-0.515838623046875
1445421766580;321.2043762207031;-104.5401611328125;-20.439638137817383;5.91046142578125;-6.983306884765625;0.24908447265625
1445421766614;321.9316711425781;-105.29219055175781;-20.739065170288086;6.8715057373046875;-4.982757568359375;-0.182403564453125
1445421766647;321.3343505859375;-106.55154418945312;-23.188915252685547;2.360443115234375;-6.3360748291015625;-1.947601318359375
1445421766680;321.3699951171875;-109.55210876464844;-24.766132354736328;1.12481689453125;-6.5714263916015625;-2.4967803955078125
1445421766713;322.43365478515625;-112.96551513671875;-24.11355972290039;1.6935882568359375;-7.375579833984375;-3.28131103515625
1445421766747;321.6307373046875;-113.79531860351562;-24.041696548461914;2.183929443359375;-8.415084838867188;-4.1835174560546875
1445421766780;319.93017578125;-114.66152954101562;-24.24720001220703;5.263214111328125;-11.10211181640625;-4.53656005859375
1445421766812;319.39959716796875;-114.90843963623047;-24.050310134887695;6.1654205322265625;-10.297958374023438;-4.909210205078125
1445421766844;316.95672607421875;-114.69767761230469;-23.6888484954834;5.3024444580078125;-10.042984008789062;-4.791534423828125
1445421766877;312.6826171875;-113.61863708496094;-23.324708938598633;3.75299072265625;-9.376129150390625;-4.8699798583984375
1445421766911;310.0185852050781;-112.82569122314453;-22.92278480529785;2.2623748779296875;-9.00347900390625;-5.3210906982421875
1445421766944;302.6739196777344;-110.44537353515625;-22.537397384643555;1.3993988037109375;-9.12115478515625;-4.8307647705078125
1445421766977;291.4466552734375;-107.41497802734375;-23.508390426635742;0.0853118896484375;-6.7675628662109375;-2.37908935546875
1445421767013;285.22674560546875;-105.89224243164062;-24.130905151367188;0.654083251953125;-6.0026397705078125;-1.7318572998046875
1445421767042;273.7660217285156;-102.83370971679688;-24.858898162841797;3.046905517578125;-6.806793212890625;-0.6138916015625
1445421767076;265.0751037597656;-101.26335144042969;-25.56414031982422;4.6551971435546875;-9.042709350585938;0.3471527099609375
1445421767110;264.1609802246094;-102.13960266113281;-25.249065399169922;4.71405029296875;-9.081939697265625;1.5435638427734375
1445421767142;266.84710693359375;-103.87366485595703;-23.793001174926758;6.4400177001953125;-7.885528564453125;5.8977203369140625
1445421767174;267.731689453125;-103.42109680175781;-23.302928924560547;10.558807373046875;-9.611495971679688;5.230865478515625
1445421767208;268.4681091308594;-102.7292709350586;-22.995746612548828;11.421798706054688;-10.807907104492188;1.21014404296875
1445421767241;265.08758544921875;-101.55702209472656;-23.625694274902344;8.244430541992188;-12.082763671875;-3.0067291259765625
1445421767274;266.7450866699219;-101.38424682617188;-23.299957275390625;3.92950439453125;-11.16094970703125;0.621734619140625
1445421767306;269.4615783691406;-100.2470932006836;-21.809886932373047;2.0270233154296875;-8.356246948242188;-4.163909912109375
1445421767340;266.18310546875;-97.36151123046875;-20.686296463012695;-3.2097320556640625;-8.277786254882812;-3.1047821044921875
1445421767375;263.80548095703125;-95.80034637451172;-19.905284881591797;-0.5619354248046875;-7.826690673828125;-1.00616455078125
1445421767406;257.3397216796875;-93.08937072753906;-18.7083683013916;0.4383392333984375;-7.7678375244140625;-0.9669342041015625
1445421767439;254.35208129882812;-92.22500610351562;-18.18720245361328;0.6933135986328125;-7.3951873779296875;1.759307861328125
1445421767472;251.87960815429688;-90.52119445800781;-16.481830596923828;2.125091552734375;-8.513153076171875;3.1714630126953125
1445421767505;251.48782348632812;-88.6633071899414;-15.18903636932373;4.7336578369140625;-10.474472045898438;3.1322479248046875
1445421767540;251.086181640625;-87.63134765625;-14.993001937866211;7.8325653076171875;-13.534149169921875;2.3673248291015625
1445421767571;253.60211181640625;-86.3856201171875;-14.634866714477539;5.773162841796875;-15.770065307617188;1.9554443359375
1445421767603;259.94476318359375;-86.29352569580078;-14.737471580505371;-1.5033721923828125;-13.592987060546875;4.544403076171875
1445421767637;264.4072265625;-87.07279205322266;-14.162623405456543;2.49774169921875;-9.68994140625;2.955718994140625
1445421767670;274.0614013671875;-87.68741607666016;-12.63503646850586;1.2817230224609375;-9.493820190429688;1.44549560546875
1445421767703;281.35400390625;-87.11560821533203;-11.99651050567627;-0.34619140625;-10.02337646484375;-0.6727447509765625
1445421767737;284.22216796875;-87.01522827148438;-11.844250679016113;-1.738739013671875;-8.120880126953125;-1.4180450439453125
1445421767770;288.6537170410156;-87.29402160644531;-11.681629180908203;-1.856414794921875;-7.316741943359375;-2.0456695556640625
1445421767802;293.208251953125;-88.07135772705078;-11.0701265335083;0.4383392333984375;-6.5910491943359375;-1.0453948974609375
1445421767835;295.5736083984375;-88.77852630615234;-10.622437477111816;1.8308868408203125;-7.0225372314453125;-0.064727783203125
1445421767868;299.58148193359375;-90.28357696533203;-10.543803215026855;3.92950439453125;-11.651275634765625;-0.4177703857421875
1445421767901;301.794677734375;-90.96540832519531;-10.586427688598633;2.046630859375;-14.416748046875;2.838043212890625
1445421767933;308.9941711425781;-90.87342834472656;-10.203147888183594;4.3021697998046875;-11.21978759765625;3.9363861083984375
1445421767967;318.3223876953125;-91.14527130126953;-10.790929794311523;2.164306640625;-11.16094970703125;3.7598724365234375
1445421768001;323.024169921875;-90.97327423095703;-10.891243934631348;-2.6997833251953125;-13.357635498046875;2.9361114501953125
1445421768033;332.2938537597656;-89.74508666992188;-10.104352951049805;-1.0718841552734375;-12.65155029296875;1.8573760986328125
1445421768066;341.36956787109375;-89.96126556396484;-10.605057716369629;2.3408355712890625;-8.3170166015625;1.8377685546875
1445421768099;346.2174072265625;-90.31575775146484;-10.920448303222656;0.16375732421875;-6.1987762451171875;-0.2608642578125
1445421768132;354.3340148925781;-90.19093322753906;-10.416966438293457;-3.0920562744140625;-7.493255615234375;-1.7906951904296875
1445421768165;358.1272888183594;-89.51293182373047;-8.68952465057373;-6.1517181396484375;-9.395751953125;-5.870269775390625
1445421768197;356.9845886230469;-89.24168395996094;-8.389336585998535;-5.426025390625;-9.160385131835938;-5.929107666015625
1445421768231;352.30401611328125;-88.91893005371094;-8.36142635345459;-1.5622100830078125;-10.14105224609375;-0.7315826416015625
1445421768264;348.2911071777344;-88.58428192138672;-9.81136417388916;3.51763916015625;-14.965927124023438;0.896331787109375
1445421768297;346.8729553222656;-89.01557922363281;-11.109821319580078;4.262939453125;-14.848251342773438;1.465118408203125
1445421768330;349.2882080078125;-91.16464233398438;-12.324235916137695;3.1449737548828125;-11.141326904296875;8.114013671875
1445421768363;353.93304443359375;-91.390380859375;-11.893007278442383;3.2822723388671875;-11.651275634765625;2.328094482421875
1445421768396;354.2215881347656;-90.21208953857422;-11.727519989013672;0.8306121826171875;-12.220062255859375;-0.810028076171875
1445421768430;356.2857360839844;-88.80831146240234;-11.377208709716797;0.8894500732421875;-8.5523681640625;-2.8890380859375
1445421768462;357.9503173828125;-88.86949157714844;-11.281852722167969;0.7521514892578125;-7.3363494873046875;-4.3208160400390625
1445421768496;359.47186279296875;-88.76993560791016;-11.541413307189941;-0.3069610595703125;-7.23828125;-4.1246795654296875
1445421768530;359.35260009765625;-90.22682189941406;-11.641743659973145;-1.0522613525390625;-6.296844482421875;-2.281036376953125
1445421768562;359.4609069824219;-91.1858901977539;-11.20508098602295;1.046356201171875;-11.533599853515625;-1.2219085693359375
1445421768594;355.5456237792969;-91.812744140625;-11.275227546691895;0.1245269775390625;-12.063156127929688;0.7786407470703125
1445421768627;350.0455322265625;-92.20193481445312;-11.967212677001953;0.16375732421875;-13.514541625976562;1.641632080078125
1445421768663;346.8069152832031;-91.76801300048828;-12.360213279724121;-0.1304473876953125;-15.201278686523438;1.1512908935546875
1445421768693;341.1478576660156;-90.04437255859375;-12.824079513549805;1.3405609130859375;-14.142166137695312;1.014007568359375
1445421768727;338.4249572753906;-89.0232925415039;-13.0335111618042;1.6935882568359375;-10.7098388671875;-0.2804718017578125
1445421768759;333.50115966796875;-87.08173370361328;-14.086160659790039;2.0270233154296875;-8.925033569335938;-1.0453948974609375
1445421768792;329.82830810546875;-85.95709228515625;-15.36369514465332;0.5756378173828125;-6.2772369384765625;-0.9669342041015625
1445421768826;328.200927734375;-85.75248718261719;-15.972858428955078;-0.0519866943359375;-6.2772369384765625;1.0336151123046875
1445421768858;325.177490234375;-85.80223846435547;-17.07143211364746;1.0071258544921875;-6.55181884765625;1.9162139892578125
1445421768891;322.9060363769531;-86.5934829711914;-18.17951202392578;3.9883575439453125;-8.179718017578125;1.9358367919921875
1445421768924;322.5061950683594;-87.52031707763672;-18.836759567260742;6.3615570068359375;-11.27862548828125;0.30792236328125
1445421768957;323.9753112792969;-91.01619720458984;-19.76939582824707;7.479522705078125;-12.573104858398438;0.1510162353515625
1445421768991;329.80560302734375;-96.8011245727539;-19.715953826904297;9.754653930664062;-14.12255859375;0.386383056640625
1445421769024;334.7274475097656;-100.27725219726562;-18.92738151550293;10.225387573242188;-13.298797607421875;-0.9277191162109375
1445421769056;338.4552917480469;-104.0337905883789;-17.78142547607422;5.3416748046875;-9.96453857421875;-1.378814697265625
1445421769089;340.3875732421875;-105.7031478881836;-17.052082061767578;3.0665283203125;-7.68939208984375;-0.9277191162109375
1445421769122;341.8892822265625;-105.96878814697266;-16.58591079711914;3.4195709228515625;-6.4537506103515625;-0.77081298828125
1445421769154;344.3069763183594;-106.04197692871094;-15.919058799743652;2.929229736328125;-4.021697998046875;-0.751190185546875
1445421769188;345.5011291503906;-106.01280212402344;-15.49120807647705;2.183929443359375;-3.5509796142578125;-1.3592071533203125
1445421769220;347.5570373535156;-105.83531951904297;-14.404037475585938;1.1444244384765625;-4.04132080078125;-1.8495330810546875
1445421769254;349.3674621582031;-106.02542114257812;-12.648350715637207;0.0853118896484375;-5.9634246826171875;-4.4384918212890625
1445421769287;350.41571044921875;-106.44623565673828;-11.686290740966797;1.47784423828125;-8.101272583007812;-5.5172271728515625
1445421769320;351.8643798828125;-107.54559326171875;-10.268735885620117;2.360443115234375;-10.866744995117188;-6.2036895751953125
1445421769353;348.4388427734375;-107.6897964477539;-9.647409439086914;1.36016845703125;-15.04437255859375;-6.3213653564453125
1445421769386;346.1210632324219;-107.690185546875;-9.34581470489502;1.41900634765625;-14.495208740234375;-5.654510498046875
1445421769419;341.02044677734375;-107.81724548339844;-9.775424003601074;1.438629150390625;-13.475311279296875;-4.909210205078125
1445421769452;338.2699279785156;-107.38233947753906;-10.209965705871582;2.9684600830078125;-9.474197387695312;-2.8694305419921875
1445421769485;332.1363830566406;-105.86962127685547;-11.010991096496582;2.10546875;-7.80706787109375;-2.2418060302734375
1445421769518;324.9866027832031;-103.64469909667969;-12.127710342407227;0.34027099609375;-5.551544189453125;-1.0257720947265625
1445421769552;322.05035400390625;-102.54410552978516;-12.692667007446289;1.673980712890625;-5.218109130859375;-0.3981475830078125
1445421769583;317.65789794921875;-100.53377532958984;-14.123892784118652;2.0270233154296875;-5.53192138671875;-0.4766082763671875
1445421769618;314.7752380371094;-99.03276824951172;-15.479514122009277;4.459075927734375;-7.1402130126953125;-0.4373779296875
1445421769650;315.2372131347656;-99.13469696044922;-16.142677307128906;7.5579681396484375;-10.5333251953125;0.9747772216796875
1445421769684;319.8331604003906;-101.06924438476562;-16.90696907043457;7.5579681396484375;-14.004867553710938;1.072845458984375
1445421769716;320.75689697265625;-101.48279571533203;-16.747079849243164;1.497467041015625;-15.711227416992188;2.9361114501953125
1445421769750;323.7197570800781;-101.76895141601562;-15.408881187438965;3.0076904296875;-14.4755859375;3.3087615966796875
1445421769782;328.977783203125;-101.24337768554688;-13.116317749023438;4.007965087890625;-11.259017944335938;0.8374786376953125
1445421769814;331.1082458496094;-99.82318115234375;-12.621561050415039;2.10546875;-10.121444702148438;-1.437652587890625
1445421769848;331.4507751464844;-99.26882934570312;-12.675119400024414;1.497467041015625;-9.807632446289062;-2.5556182861328125
1445421769882;333.06268310546875;-98.9139175415039;-12.256081581115723;1.8701171875;-7.1990509033203125;-3.3205413818359375
1445421769914;334.473876953125;-98.84548950195312;-11.690603256225586;0.536407470703125;-5.5711517333984375;-3.261688232421875
1445421769947;335.865966796875;-98.3921890258789;-10.38847541809082;-0.4834747314453125;-5.4338531494140625;-3.6343536376953125
1445421769981;333.1855163574219;-98.33859252929688;-9.619882583618164;-0.8757476806640625;-7.9835968017578125;-4.3011932373046875
1445421770013;331.09033203125;-98.2948226928711;-9.629460334777832;0.3206634521484375;-11.729736328125;-3.771636962890625
1445421770047;324.3304748535156;-98.34905242919922;-10.962712287902832;-0.640380859375;-12.47503662109375;-2.6144561767578125
1445421770081;314.808349609375;-98.17713928222656;-11.924068450927734;-3.8961944580078125;-15.730850219726562;-0.5354461669921875
1445421770112;310.38555908203125;-97.8364486694336;-11.698043823242188;-5.680999755859375;-14.946304321289062;3.0341796875
1445421770145;303.5238952636719;-96.9127197265625;-10.345122337341309;-3.0135955810546875;-13.710678100585938;5.0151214599609375
1445421770180;303.5898132324219;-96.8795166015625;-8.148666381835938;3.890289306640625;-10.631378173828125;6.1526947021484375
1445421770211;305.8066711425781;-96.70923614501953;-7.383630752563477;7.8129425048828125;-9.219223022460938;4.8189849853515625
