sep=;
timestamp;gyro-alpha;gyro-beta;gyro-gamma;accel-x;accel-y;accel-z
1445421577850;282.8235168457031;-157.05514526367188;34.81245040893555;-5.75946044921875;-3.2960052490234375;-7.243194580078125
1445421577883;283.0271301269531;-156.87184143066406;34.91532897949219;-5.7790679931640625;-3.452911376953125;-7.243194580078125
1445421577916;283.49859619140625;-156.55503845214844;35.109169006347656;-5.8379058837890625;-3.4921417236328125;-7.2824249267578125
1445421577949;283.9490661621094;-156.31741333007812;35.324710845947266;-5.87713623046875;-3.4136962890625;-7.10589599609375
1445421577981;284.0897216796875;-156.24172973632812;35.40929412841797;-5.955596923828125;-3.2960052490234375;-7.10589599609375
1445421578016;284.1254577636719;-156.2021484375;35.506404876708984;-5.99481201171875;-3.19793701171875;-7.0862884521484375
1445421578048;283.982421875;-156.26535034179688;35.49752426147461;-5.9163665771484375;-3.13909912109375;-7.125518798828125
1445421578082;283.8799743652344;-156.3212127685547;35.448394775390625;-5.75946044921875;-3.1783294677734375;-7.2039642333984375
1445421578114;283.7210388183594;-156.428955078125;35.28565979003906;-5.6613922119140625;-3.19793701171875;-7.184356689453125
1445421578147;283.627197265625;-156.4984588623047;35.19722366333008;-5.7202301025390625;-3.158721923828125;-7.3216400146484375
1445421578180;283.4227294921875;-156.65899658203125;35.02644729614258;-5.70062255859375;-3.217559814453125;-7.3804931640625
1445421578214;283.22607421875;-156.81488037109375;34.89236831665039;-5.7202301025390625;-3.1194915771484375;-7.4001007080078125
1445421578246;283.1273193359375;-156.91517639160156;34.79510498046875;-5.680999755859375;-3.0606536865234375;-7.3216400146484375
1445421578279;283.1076965332031;-156.9460906982422;34.749691009521484;-5.6025543212890625;-3.0410308837890625;-7.2824249267578125
1445421578312;283.10699462890625;-156.96792602539062;34.692325592041016;-5.7398529052734375;-3.0410308837890625;-7.3412628173828125
1445421578347;283.1015930175781;-156.97854614257812;34.64861297607422;-5.622161865234375;-3.158721923828125;-7.3216400146484375
1445421578379;283.1736145019531;-156.94314575195312;34.55144119262695;-5.6025543212890625;-3.217559814453125;-7.3216400146484375
1445421578412;283.2428894042969;-156.90354919433594;34.4533805847168;-5.563323974609375;-3.217559814453125;-7.4393310546875
1445421578444;283.2506103515625;-156.89820861816406;34.43473434448242;-5.5437164306640625;-3.2371673583984375;-7.5177764892578125
1445421578477;283.30023193359375;-156.8888397216797;34.3958854675293;-5.5437164306640625;-3.2960052490234375;-7.4589385986328125
1445421578510;283.3132019042969;-156.886474609375;34.39892578125;-5.6025543212890625;-3.19793701171875;-7.5177764892578125
1445421578543;283.2954406738281;-156.87600708007812;34.434139251708984;-5.64178466796875;-3.2371673583984375;-7.4393310546875
1445421578576;283.2223205566406;-156.84725952148438;34.47499084472656;-5.58294677734375;-3.13909912109375;-7.419708251953125
1445421578609;283.11260986328125;-156.8418731689453;34.51328659057617;-5.622161865234375;-3.1783294677734375;-7.3804931640625
1445421578642;283.0509338378906;-156.8495635986328;34.525028228759766;-5.58294677734375;-3.13909912109375;-7.4393310546875
1445421578675;282.9866027832031;-156.83604431152344;34.57223892211914;-5.64178466796875;-3.19793701171875;-7.4589385986328125
1445421578708;282.9819030761719;-156.8209991455078;34.60708999633789;-5.7398529052734375;-3.19793701171875;-7.4001007080078125
1445421578742;282.98699951171875;-156.79051208496094;34.68347930908203;-5.7202301025390625;-3.1783294677734375;-7.3804931640625
1445421578775;283.08782958984375;-156.73666381835938;34.71647262573242;-5.622161865234375;-3.2567901611328125;-7.3216400146484375
1445421578808;283.10382080078125;-156.73118591308594;34.719932556152344;-5.58294677734375;-3.13909912109375;-7.3412628173828125
1445421578840;283.01824951171875;-156.76962280273438;34.73200607299805;-5.6613922119140625;-3.13909912109375;-7.360870361328125
1445421578873;282.96600341796875;-156.7913360595703;34.72650909423828;-5.622161865234375;-3.13909912109375;-7.4001007080078125
1445421578906;282.8914489746094;-156.8223876953125;34.72700881958008;-5.622161865234375;-3.1194915771484375;-7.3804931640625
1445421578939;282.8607482910156;-156.83999633789062;34.707271575927734;-5.58294677734375;-3.099884033203125;-7.3804931640625
1445421578971;282.8233947753906;-156.85809326171875;34.686767578125;-5.58294677734375;-3.13909912109375;-7.3412628173828125
1445421579005;282.82916259765625;-156.86012268066406;34.65803527832031;-5.622161865234375;-3.13909912109375;-7.4589385986328125
1445421579038;282.9244384765625;-156.8238067626953;34.638912200927734;-5.622161865234375;-3.158721923828125;-7.4001007080078125
1445421579072;282.957275390625;-156.7695770263672;34.6384162902832;-5.8379058837890625;-3.158721923828125;-7.4001007080078125
1445421579105;283.0129089355469;-156.71873474121094;34.64308547973633;-5.7790679931640625;-3.217559814453125;-7.4589385986328125
1445421579137;283.3084716796875;-156.52349853515625;34.73304748535156;-5.955596923828125;-3.3548583984375;-7.3804931640625
1445421579170;283.5233154296875;-156.39796447753906;34.77513885498047;-5.680999755859375;-3.3744659423828125;-7.360870361328125
1445421579203;283.8818664550781;-156.1816864013672;34.78612518310547;-5.563323974609375;-3.3548583984375;-7.3804931640625
1445421579236;283.99688720703125;-156.17848205566406;34.65404510498047;-5.426025390625;-3.13909912109375;-7.4001007080078125
1445421579269;284.1115417480469;-156.1540069580078;34.567840576171875;-5.2691192626953125;-3.158721923828125;-7.2235870361328125
1445421579302;284.2855529785156;-156.1426544189453;34.243865966796875;-5.2102813720703125;-3.217559814453125;-7.2824249267578125
1445421579335;284.30865478515625;-156.19163513183594;33.94795227050781;-5.3475799560546875;-3.2567901611328125;-7.419708251953125
1445421579368;284.3672180175781;-156.16464233398438;33.832374572753906;-5.327972412109375;-3.394073486328125;-7.4001007080078125
1445421579401;284.49200439453125;-156.06781005859375;33.71001434326172;-5.3671875;-3.5509796142578125;-7.4393310546875
1445421579436;284.4479675292969;-156.07247924804688;33.6995849609375;-5.3671875;-3.4921417236328125;-7.5962371826171875
1445421579468;284.2883605957031;-156.1676483154297;33.724708557128906;-5.2887420654296875;-3.4725341796875;-7.5962371826171875
1445421579500;284.0691833496094;-156.28610229492188;33.874080657958984;-5.4064178466796875;-3.2567901611328125;-7.5177764892578125
1445421579537;283.955810546875;-156.3322296142578;34.01430892944336;-5.622161865234375;-3.1783294677734375;-7.3216400146484375
1445421579566;283.8031005859375;-156.39491271972656;34.31350326538086;-5.6613922119140625;-3.158721923828125;-7.302032470703125
1445421579601;283.5679626464844;-156.49636840820312;34.57562255859375;-5.70062255859375;-3.099884033203125;-7.3412628173828125
1445421579632;283.4505615234375;-156.54420471191406;34.69721984863281;-5.6613922119140625;-3.1194915771484375;-7.3412628173828125
1445421579665;283.20391845703125;-156.6320037841797;34.92217254638672;-5.7202301025390625;-3.13909912109375;-7.3412628173828125
1445421579698;282.9767761230469;-156.70606994628906;35.081939697265625;-5.70062255859375;-3.13909912109375;-7.2824249267578125
1445421579730;282.9308166503906;-156.71859741210938;35.12916946411133;-5.75946044921875;-3.1783294677734375;-7.302032470703125
1445421579764;282.94061279296875;-156.73159790039062;35.15376663208008;-5.75946044921875;-3.217559814453125;-7.302032470703125
1445421579796;282.9593811035156;-156.7462921142578;35.13716506958008;-5.75946044921875;-3.2371673583984375;-7.3412628173828125
1445421579830;282.9721984863281;-156.82066345214844;35.070072174072266;-5.70062255859375;-3.217559814453125;-7.3216400146484375
1445421579862;282.89447021484375;-156.93016052246094;34.97140884399414;-5.563323974609375;-3.13909912109375;-7.3412628173828125
1445421579896;282.8230285644531;-156.98666381835938;34.9285888671875;-5.426025390625;-3.08026123046875;-7.4785614013671875
1445421579930;282.70477294921875;-157.08334350585938;34.8563232421875;-5.4652557373046875;-3.08026123046875;-7.4393310546875
1445421579962;282.66168212890625;-157.1170196533203;34.87384796142578;-5.5437164306640625;-3.08026123046875;-7.3804931640625
1445421580000;282.72357177734375;-157.10061645507812;34.9378547668457;-5.64178466796875;-3.1194915771484375;-7.4001007080078125
1445421580028;282.7581787109375;-157.0881805419922;34.976844787597656;-5.64178466796875;-3.13909912109375;-7.3804931640625
1445421580063;282.77392578125;-157.08067321777344;35.0439567565918;-5.6613922119140625;-3.099884033203125;-7.3804931640625
1445421580096;282.75726318359375;-157.0778045654297;35.078651428222656;-5.70062255859375;-3.13909912109375;-7.3216400146484375
1445421580128;282.81256103515625;-157.0410919189453;35.09614562988281;-5.70062255859375;-3.1783294677734375;-7.3216400146484375
1445421580160;282.8609619140625;-157.02662658691406;35.02812576293945;-5.622161865234375;-3.2567901611328125;-7.4001007080078125
1445421580193;282.8739929199219;-157.02333068847656;34.9971923828125;-5.622161865234375;-3.19793701171875;-7.3804931640625
1445421580226;282.8529357910156;-157.04339599609375;34.93761444091797;-5.6613922119140625;-3.1783294677734375;-7.4393310546875
1445421580259;282.8486328125;-157.0494384765625;34.90520477294922;-5.64178466796875;-3.19793701171875;-7.4589385986328125
1445421580292;282.8545837402344;-157.04522705078125;34.85459899902344;-5.563323974609375;-3.19793701171875;-7.419708251953125
1445421580325;282.8529052734375;-157.03497314453125;34.81572341918945;-5.5437164306640625;-3.158721923828125;-7.4001007080078125
1445421580358;282.872314453125;-157.02352905273438;34.79884338378906;-5.5240936279296875;-3.13909912109375;-7.4001007080078125
1445421580391;282.76800537109375;-157.0552215576172;34.764522552490234;-5.6025543212890625;-3.08026123046875;-7.419708251953125
1445421580423;282.670166015625;-157.09414672851562;34.729896545410156;-5.5437164306640625;-3.1194915771484375;-7.4393310546875
1445421580458;282.673095703125;-157.09170532226562;34.721256256103516;-5.563323974609375;-3.13909912109375;-7.4001007080078125
1445421580490;282.6828308105469;-157.0911865234375;34.686519622802734;-5.5240936279296875;-3.13909912109375;-7.419708251953125
1445421580524;282.6851501464844;-157.09315490722656;34.66646194458008;-5.563323974609375;-3.13909912109375;-7.3804931640625
1445421580557;282.6539306640625;-157.11083984375;34.64769744873047;-5.504486083984375;-3.08026123046875;-7.4001007080078125
1445421580589;282.6195068359375;-157.12594604492188;34.622127532958984;-5.504486083984375;-3.1194915771484375;-7.3804931640625
1445421580622;282.6536560058594;-157.11575317382812;34.61016082763672;-5.4848785400390625;-3.1783294677734375;-7.419708251953125
1445421580655;282.73199462890625;-157.0894317626953;34.59344482421875;-5.5240936279296875;-3.158721923828125;-7.3804931640625
1445421580688;282.7867126464844;-157.0679168701172;34.57377243041992;-5.5437164306640625;-3.158721923828125;-7.4589385986328125
1445421580721;282.85467529296875;-157.04278564453125;34.552146911621094;-5.5240936279296875;-3.1194915771484375;-7.4393310546875
1445421580754;282.8705139160156;-157.0380859375;34.5194206237793;-5.4848785400390625;-3.1783294677734375;-7.4785614013671875
1445421580787;282.8861083984375;-157.02296447753906;34.50619888305664;-5.504486083984375;-3.158721923828125;-7.3804931640625
1445421580819;282.8934326171875;-157.01300048828125;34.50218200683594;-5.504486083984375;-3.1783294677734375;-7.3804931640625
1445421580853;282.843017578125;-157.0078582763672;34.499385833740234;-5.5437164306640625;-3.13909912109375;-7.419708251953125
1445421580886;282.8143310546875;-156.99749755859375;34.48496627807617;-5.58294677734375;-3.19793701171875;-7.4393310546875
1445421580918;282.677978515625;-157.03538513183594;34.49973678588867;-5.8379058837890625;-3.08026123046875;-7.635467529296875
1445421580951;282.53387451171875;-157.0721893310547;34.50297546386719;-5.64178466796875;-3.1194915771484375;-7.419708251953125
1445421580985;282.457275390625;-157.09693908691406;34.49660110473633;-5.58294677734375;-3.1194915771484375;-7.4981689453125
1445421581018;282.42645263671875;-157.1084442138672;34.47603225708008;-5.5437164306640625;-3.099884033203125;-7.4001007080078125
1445421581051;282.5063171386719;-157.07046508789062;34.48188781738281;-5.5240936279296875;-3.1194915771484375;-7.302032470703125
1445421581085;282.5085754394531;-157.0565948486328;34.470367431640625;-5.5437164306640625;-3.19793701171875;-7.360870361328125
1445421581118;282.69970703125;-156.96630859375;34.4240837097168;-5.5240936279296875;-3.1783294677734375;-7.3412628173828125
1445421581150;282.83038330078125;-156.9049530029297;34.321136474609375;-5.445648193359375;-3.099884033203125;-7.360870361328125
1445421581187;282.9327697753906;-156.85516357421875;34.24989318847656;-5.4064178466796875;-3.3548583984375;-7.4589385986328125
1445421581217;283.2688903808594;-156.6688995361328;34.12532043457031;-5.3671875;-3.3156280517578125;-7.4981689453125
1445421581249;283.598388671875;-156.44955444335938;34.11552047729492;-5.386810302734375;-3.335235595703125;-7.4001007080078125
1445421581283;283.72772216796875;-156.36378479003906;34.14126968383789;-5.3475799560546875;-3.3156280517578125;-7.4785614013671875
1445421581315;283.76605224609375;-156.2947540283203;34.28024673461914;-5.5240936279296875;-3.099884033203125;-7.360870361328125
1445421581349;283.5498046875;-156.30824279785156;34.489749908447266;-5.87713623046875;-3.158721923828125;-7.6550750732421875
1445421581382;283.62896728515625;-156.25392150878906;34.6439094543457;-5.896759033203125;-3.2567901611328125;-7.3804931640625
1445421581415;283.6946105957031;-156.39901733398438;34.90673065185547;-5.622161865234375;-3.2371673583984375;-7.3804931640625
1445421581447;283.65484619140625;-156.4969940185547;35.005035400390625;-5.504486083984375;-3.0606536865234375;-7.243194580078125
1445421581480;283.612548828125;-156.60995483398438;35.24021911621094;-5.5437164306640625;-3.19793701171875;-7.302032470703125
1445421581513;283.79083251953125;-156.48092651367188;35.41218948364258;-5.70062255859375;-3.335235595703125;-7.2824249267578125
1445421581549;283.8689270019531;-156.41366577148438;35.51274108886719;-5.64178466796875;-3.452911376953125;-7.4001007080078125
1445421581579;284.0321044921875;-156.32569885253906;35.555538177490234;-5.6613922119140625;-3.452911376953125;-7.419708251953125
1445421581613;284.0336608886719;-156.33338928222656;35.522090911865234;-5.70062255859375;-3.4333038330078125;-7.3412628173828125
1445421581647;284.0476379394531;-156.4191436767578;35.347862243652344;-5.622161865234375;-3.217559814453125;-7.3216400146484375
1445421581679;283.6938171386719;-156.740234375;35.13302993774414;-5.622161865234375;-3.02142333984375;-7.302032470703125
1445421581711;283.4569091796875;-156.9295654296875;35.07849884033203;-5.58294677734375;-2.90374755859375;-7.360870361328125
1445421581746;283.1034240722656;-157.19476318359375;34.99268341064453;-5.64178466796875;-2.9821929931640625;-7.3804931640625
1445421581777;282.77587890625;-157.40472412109375;34.86532974243164;-5.58294677734375;-2.90374755859375;-7.4001007080078125
1445421581811;282.62799072265625;-157.48516845703125;34.790157318115234;-5.6025543212890625;-2.9429779052734375;-7.4001007080078125
1445421581844;282.51788330078125;-157.54742431640625;34.66862106323242;-5.5240936279296875;-3.02142333984375;-7.419708251953125
1445421581876;282.50042724609375;-157.57284545898438;34.58962631225586;-5.4652557373046875;-3.0606536865234375;-7.5177764892578125
1445421581909;282.4986877441406;-157.57376098632812;34.556270599365234;-5.4652557373046875;-3.158721923828125;-7.4981689453125
1445421581942;282.6735534667969;-157.47523498535156;34.58175277709961;-5.5437164306640625;-3.2371673583984375;-7.4393310546875
1445421581974;282.7960205078125;-157.41915893554688;34.63408660888672;-5.5437164306640625;-3.3548583984375;-7.4001007080078125
1445421582009;282.9526672363281;-157.43101501464844;34.741371154785156;-5.622161865234375;-3.4333038330078125;-7.3216400146484375
1445421582040;282.7394714355469;-157.57696533203125;34.912559509277344;-5.7202301025390625;-3.1194915771484375;-7.3412628173828125
1445421582074;282.50457763671875;-157.63827514648438;34.995304107666016;-5.6025543212890625;-2.9233551025390625;-7.3804931640625
1445421582107;282.0475769042969;-157.67193603515625;35.11767578125;-5.5240936279296875;-2.90374755859375;-7.302032470703125
1445421582140;281.7705383300781;-157.6269989013672;35.129093170166016;-5.504486083984375;-2.9233551025390625;-7.3804931640625
1445421582174;281.69677734375;-157.6035614013672;35.08644104003906;-5.4848785400390625;-2.90374755859375;-7.5177764892578125
1445421582206;281.5369873046875;-157.63641357421875;34.9959716796875;-5.5437164306640625;-2.90374755859375;-7.5373992919921875
1445421582239;281.47174072265625;-157.71385192871094;35.0236701965332;-5.7398529052734375;-2.96258544921875;-7.4785614013671875
1445421582273;281.4935607910156;-157.74168395996094;35.09379959106445;-5.7202301025390625;-3.0018157958984375;-7.3216400146484375
1445421582305;281.5576171875;-157.7322998046875;35.21467590332031;-5.75946044921875;-3.0410308837890625;-7.302032470703125
1445421582338;281.6326599121094;-157.69313049316406;35.24235916137695;-5.7398529052734375;-3.158721923828125;-7.2824249267578125
1445421582371;281.8725891113281;-157.55523681640625;35.237613677978516;-5.7398529052734375;-3.2960052490234375;-7.2824249267578125
1445421582403;282.12091064453125;-157.39341735839844;35.149105072021484;-5.622161865234375;-3.335235595703125;-7.4001007080078125
1445421582437;282.17340087890625;-157.3505401611328;35.08729553222656;-5.4848785400390625;-3.1783294677734375;-7.4981689453125
1445421582470;282.1954345703125;-157.34884643554688;34.939632415771484;-5.504486083984375;-3.1194915771484375;-7.5373992919921875
1445421582503;282.2448425292969;-157.40536499023438;34.856468200683594;-5.563323974609375;-3.0410308837890625;-7.419708251953125
1445421582536;282.24053955078125;-157.4479217529297;34.815101623535156;-5.5437164306640625;-2.9821929931640625;-7.419708251953125
1445421582569;282.32257080078125;-157.51431274414062;34.776798248291016;-5.4652557373046875;-3.0018157958984375;-7.4981689453125
1445421582602;282.474365234375;-157.5628662109375;34.81565475463867;-5.5240936279296875;-2.96258544921875;-7.3804931640625
1445421582635;282.5408630371094;-157.57362365722656;34.893184661865234;-5.680999755859375;-3.099884033203125;-7.419708251953125
1445421582668;282.7623291015625;-157.54043579101562;35.05424118041992;-5.75946044921875;-3.13909912109375;-7.4785614013671875
1445421582701;282.8968200683594;-157.5706024169922;35.05735778808594;-5.5240936279296875;-3.0606536865234375;-7.360870361328125
1445421582734;282.9169921875;-157.60641479492188;35.04084777832031;-5.4652557373046875;-3.02142333984375;-7.4001007080078125
1445421582767;282.8503723144531;-157.68373107910156;35.08003616333008;-5.445648193359375;-2.884124755859375;-7.3804931640625
1445421582800;282.8930969238281;-157.6590118408203;35.14643478393555;-5.64178466796875;-3.0410308837890625;-7.302032470703125
1445421582835;283.01611328125;-157.55360412597656;35.28469467163086;-5.6613922119140625;-3.1194915771484375;-7.3216400146484375
1445421582866;283.1631774902344;-157.46591186523438;35.3918571472168;-5.7790679931640625;-3.099884033203125;-7.2235870361328125
1445421582899;283.1054992675781;-157.4932098388672;35.39875793457031;-5.7986907958984375;-3.02142333984375;-7.184356689453125
1445421582932;283.0760498046875;-157.50396728515625;35.31364059448242;-5.896759033203125;-3.19793701171875;-7.243194580078125
1445421582965;282.9089660644531;-157.59814453125;35.15110397338867;-5.75946044921875;-3.08026123046875;-7.302032470703125
1445421582997;282.7806396484375;-157.65892028808594;35.075294494628906;-5.445648193359375;-2.9821929931640625;-7.419708251953125
1445421583031;282.66546630859375;-157.7057647705078;34.939300537109375;-5.3671875;-3.0410308837890625;-7.4981689453125
1445421583065;282.6817932128906;-157.65492248535156;34.80142593383789;-5.445648193359375;-3.1194915771484375;-7.5570068359375
1445421583097;282.73541259765625;-157.6123046875;34.77730178833008;-5.426025390625;-3.0606536865234375;-7.4981689453125
1445421583129;282.8758850097656;-157.52520751953125;34.802734375;-5.504486083984375;-3.0606536865234375;-7.4785614013671875
1445421583162;283.0182189941406;-157.43768310546875;34.92806625366211;-5.6613922119140625;-3.08026123046875;-7.419708251953125
1445421583196;283.0355224609375;-157.4116973876953;35.015419006347656;-5.7398529052734375;-3.0606536865234375;-7.419708251953125
1445421583229;282.9703369140625;-157.38714599609375;35.19471740722656;-5.7986907958984375;-3.0018157958984375;-7.3216400146484375
1445421583262;282.8960876464844;-157.39100646972656;35.23393630981445;-5.70062255859375;-3.02142333984375;-7.302032470703125
1445421583295;282.8285217285156;-157.3500213623047;35.196868896484375;-5.6613922119140625;-3.099884033203125;-7.360870361328125
1445421583329;282.8300476074219;-157.29367065429688;35.07699203491211;-5.6613922119140625;-3.158721923828125;-7.360870361328125
1445421583364;282.8345031738281;-157.2763214111328;35.00997543334961;-5.622161865234375;-3.099884033203125;-7.419708251953125
1445421583394;282.6617431640625;-157.3665008544922;34.867103576660156;-5.5240936279296875;-3.08026123046875;-7.4393310546875
1445421583427;282.38433837890625;-157.54058837890625;34.693546295166016;-5.4652557373046875;-2.96258544921875;-7.3804931640625
1445421583459;282.26751708984375;-157.63287353515625;34.589515686035156;-5.4848785400390625;-3.0018157958984375;-7.4393310546875
1445421583508;282.1033020019531;-157.84121704101562;34.349388122558594;-5.386810302734375;-3.0606536865234375;-7.5373992919921875
1445421583526;282.1033020019531;-157.84121704101562;34.349388122558594;-5.308349609375;-3.099884033203125;-7.6158447265625
1445421583561;282.0904541015625;-157.93992614746094;34.189945220947266;-5.2887420654296875;-3.0018157958984375;-7.4981689453125
1445421583592;282.1551513671875;-157.9487762451172;34.17069625854492;-5.24951171875;-3.0410308837890625;-7.5766143798828125
1445421583624;282.26470947265625;-157.9007110595703;34.19784927368164;-5.426025390625;-3.099884033203125;-7.4785614013671875
1445421583658;282.5481872558594;-157.7461395263672;34.33538818359375;-5.504486083984375;-3.0606536865234375;-7.419708251953125
1445421583691;282.8102111816406;-157.53453063964844;34.55887222290039;-5.7790679931640625;-3.099884033203125;-7.3216400146484375
1445421583724;282.96917724609375;-157.39463806152344;34.68736267089844;-5.8575286865234375;-3.158721923828125;-7.3216400146484375
1445421583757;283.0520324707031;-157.22630310058594;34.85242462158203;-5.87713623046875;-3.158721923828125;-7.3412628173828125
1445421583789;283.0885925292969;-157.11331176757812;34.839298248291016;-5.7986907958984375;-3.2567901611328125;-7.3412628173828125
1445421583826;283.1020812988281;-157.07330322265625;34.80424118041992;-5.6613922119140625;-3.276397705078125;-7.4001007080078125
1445421583856;283.16314697265625;-157.01568603515625;34.69451141357422;-5.6025543212890625;-3.335235595703125;-7.4589385986328125
1445421583889;283.22808837890625;-157.0227508544922;34.53131103515625;-5.386810302734375;-3.2371673583984375;-7.4589385986328125
1445421583922;283.285400390625;-157.01678466796875;34.5046272277832;-5.445648193359375;-3.19793701171875;-7.4001007080078125
1445421583955;283.28021240234375;-157.03994750976562;34.52933120727539;-5.4652557373046875;-3.02142333984375;-7.4001007080078125
1445421583989;283.31103515625;-157.02919006347656;34.51506042480469;-5.445648193359375;-3.1194915771484375;-7.4001007080078125
1445421584021;283.35711669921875;-156.97731018066406;34.47269058227539;-5.4848785400390625;-3.217559814453125;-7.4981689453125
1445421584053;283.4047546386719;-156.9123992919922;34.529266357421875;-5.6025543212890625;-3.19793701171875;-7.419708251953125
1445421584088;283.3892822265625;-156.91915893554688;34.57009506225586;-5.563323974609375;-3.13909912109375;-7.419708251953125
1445421584120;283.32183837890625;-156.9843292236328;34.56533432006836;-5.4652557373046875;-3.1194915771484375;-7.4001007080078125
1445421584152;283.3020935058594;-157.02792358398438;34.524417877197266;-5.4064178466796875;-3.099884033203125;-7.4001007080078125
1445421584188;283.2789306640625;-157.0490264892578;34.50725555419922;-5.445648193359375;-3.099884033203125;-7.4981689453125
1445421584219;283.35260009765625;-157.02699279785156;34.533199310302734;-5.4652557373046875;-3.19793701171875;-7.4001007080078125
1445421584252;283.3982849121094;-157.00582885742188;34.579864501953125;-5.622161865234375;-3.217559814453125;-7.3804931640625
1445421584286;283.4347229003906;-156.9845733642578;34.693115234375;-5.70062255859375;-3.158721923828125;-7.3804931640625
1445421584318;283.4165344238281;-157.0291290283203;34.74379348754883;-5.7202301025390625;-3.1783294677734375;-7.360870361328125
1445421584351;283.3934020996094;-157.03810119628906;34.770381927490234;-5.680999755859375;-3.158721923828125;-7.3804931640625
1445421584383;283.3723449707031;-157.050537109375;34.76607894897461;-5.622161865234375;-3.158721923828125;-7.419708251953125
1445421584418;283.37384033203125;-157.0893096923828;34.662254333496094;-5.4848785400390625;-3.1783294677734375;-7.5177764892578125
1445421584451;283.37091064453125;-157.1198272705078;34.6307373046875;-5.4652557373046875;-3.13909912109375;-7.4393310546875
1445421584483;283.4373474121094;-157.13131713867188;34.60708999633789;-5.4652557373046875;-3.1783294677734375;-7.419708251953125
1445421584516;283.4334716796875;-157.132080078125;34.6453742980957;-5.622161865234375;-3.1194915771484375;-7.4589385986328125
1445421584549;283.4514465332031;-157.1239013671875;34.64909362792969;-5.563323974609375;-3.158721923828125;-7.419708251953125
1445421584582;283.43389892578125;-157.13522338867188;34.64963150024414;-5.58294677734375;-3.099884033203125;-7.4589385986328125
1445421584615;283.4078369140625;-157.1392822265625;34.67921829223633;-5.622161865234375;-3.099884033203125;-7.3804931640625
1445421584647;283.4158020019531;-157.13455200195312;34.6882438659668;-5.58294677734375;-3.1194915771484375;-7.3804931640625
1445421584681;283.4742736816406;-157.11492919921875;34.685977935791016;-5.58294677734375;-3.1783294677734375;-7.4393310546875
1445421584714;283.518798828125;-157.10009765625;34.67664337158203;-5.504486083984375;-3.1783294677734375;-7.360870361328125
1445421584747;283.5265808105469;-157.0991668701172;34.673606872558594;-5.504486083984375;-3.1194915771484375;-7.3412628173828125
1445421584780;283.53289794921875;-157.09674072265625;34.655067443847656;-5.504486083984375;-3.158721923828125;-7.4001007080078125
1445421584812;283.5399475097656;-157.09043884277344;34.64647674560547;-5.58294677734375;-3.1194915771484375;-7.4393310546875
1445421584846;283.4411926269531;-157.1178436279297;34.64011764526367;-5.5437164306640625;-3.08026123046875;-7.419708251953125
1445421584879;283.37982177734375;-157.1329345703125;34.64068603515625;-5.563323974609375;-3.099884033203125;-7.4001007080078125
1445421584912;283.36871337890625;-157.13037109375;34.636314392089844;-5.5240936279296875;-3.1783294677734375;-7.4393310546875
1445421584946;283.40020751953125;-157.1112060546875;34.6075553894043;-5.4848785400390625;-3.1783294677734375;-7.419708251953125
1445421584978;283.4004211425781;-157.09803771972656;34.604793548583984;-5.504486083984375;-3.13909912109375;-7.419708251953125
1445421585012;283.4215393066406;-157.08558654785156;34.60007858276367;-5.58294677734375;-3.19793701171875;-7.4001007080078125
1445421585044;283.443115234375;-157.06565856933594;34.6038818359375;-5.58294677734375;-3.1783294677734375;-7.4393310546875
1445421585077;283.43768310546875;-157.05882263183594;34.597442626953125;-5.5437164306640625;-3.158721923828125;-7.4393310546875
1445421585114;283.4494323730469;-157.05130004882812;34.5970344543457;-5.563323974609375;-3.1783294677734375;-7.4589385986328125
1445421585143;283.407470703125;-157.056396484375;34.6050910949707;-5.6025543212890625;-3.13909912109375;-7.4785614013671875
1445421585176;283.4067687988281;-157.04873657226562;34.612918853759766;-5.5437164306640625;-3.1194915771484375;-7.4001007080078125
1445421585209;283.3618469238281;-157.0509033203125;34.62234878540039;-5.5437164306640625;-3.1194915771484375;-7.419708251953125
1445421585241;283.2904052734375;-157.06878662109375;34.638145446777344;-5.6025543212890625;-3.1194915771484375;-7.4589385986328125
1445421585274;283.227783203125;-157.08447265625;34.64676284790039;-5.563323974609375;-3.158721923828125;-7.419708251953125
1445421585308;283.22930908203125;-157.07606506347656;34.63725662231445;-5.4848785400390625;-3.1783294677734375;-7.4001007080078125
1445421585342;283.21234130859375;-157.07664489746094;34.628662109375;-5.5437164306640625;-3.158721923828125;-7.419708251953125
1445421585375;283.23321533203125;-157.0626983642578;34.628929138183594;-5.64178466796875;-3.1783294677734375;-7.419708251953125
1445421585407;283.1864318847656;-157.06344604492188;34.64421844482422;-5.6025543212890625;-3.158721923828125;-7.4393310546875
1445421585440;283.21636962890625;-157.0375213623047;34.653865814208984;-5.5437164306640625;-3.217559814453125;-7.3412628173828125
1445421585473;283.19757080078125;-157.0414276123047;34.6546516418457;-5.563323974609375;-3.099884033203125;-7.4393310546875
1445421585505;283.1160888671875;-157.0611572265625;34.65312957763672;-5.5437164306640625;-3.13909912109375;-7.4001007080078125
1445421585540;283.060546875;-157.08029174804688;34.64788055419922;-5.4848785400390625;-3.08026123046875;-7.4001007080078125
1445421585572;283.040283203125;-157.09039306640625;34.63869857788086;-5.4848785400390625;-3.099884033203125;-7.419708251953125
1445421585605;283.0346984863281;-157.10198974609375;34.61492156982422;-5.504486083984375;-3.099884033203125;-7.419708251953125
1445421585639;282.9909973144531;-157.11863708496094;34.62275695800781;-5.563323974609375;-3.08026123046875;-7.419708251953125
1445421585671;282.9615783691406;-157.1319580078125;34.64685821533203;-5.6025543212890625;-3.099884033203125;-7.419708251953125
1445421585704;282.95294189453125;-157.13426208496094;34.654884338378906;-5.5437164306640625;-3.099884033203125;-7.4393310546875
1445421585737;282.9093933105469;-157.15155029296875;34.65741729736328;-5.5437164306640625;-3.099884033203125;-7.4589385986328125
1445421585770;282.8549499511719;-157.17559814453125;34.65943908691406;-5.64178466796875;-3.099884033203125;-7.5177764892578125
1445421585803;282.90911865234375;-157.15773010253906;34.670738220214844;-5.5437164306640625;-3.13909912109375;-7.419708251953125
1445421585836;282.9378967285156;-157.14694213867188;34.68052673339844;-5.58294677734375;-3.1194915771484375;-7.419708251953125
1445421585870;283.00555419921875;-157.11907958984375;34.701377868652344;-5.622161865234375;-3.1783294677734375;-7.419708251953125
1445421585902;283.0128479003906;-157.1123809814453;34.7163200378418;-5.563323974609375;-3.158721923828125;-7.419708251953125
1445421585935;283.0391845703125;-157.10409545898438;34.71424865722656;-5.58294677734375;-3.158721923828125;-7.3804931640625
1445421585968;283.05126953125;-157.10455322265625;34.702030181884766;-5.6025543212890625;-3.19793701171875;-7.3412628173828125
1445421586002;283.0614929199219;-157.10336303710938;34.69740676879883;-5.58294677734375;-3.158721923828125;-7.4393310546875
1445421586033;283.02447509765625;-157.1275634765625;34.67765808105469;-5.58294677734375;-3.13909912109375;-7.419708251953125
1445421586067;282.91888427734375;-157.18307495117188;34.63561248779297;-5.5240936279296875;-3.0606536865234375;-7.4785614013671875
1445421586101;282.84332275390625;-157.21774291992188;34.61767578125;-5.5240936279296875;-3.1194915771484375;-7.4393310546875
1445421586134;282.8359375;-157.22801208496094;34.59843444824219;-5.504486083984375;-3.1783294677734375;-7.4981689453125
1445421586167;282.81597900390625;-157.23733520507812;34.60466766357422;-5.504486083984375;-3.099884033203125;-7.419708251953125
1445421586208;282.8432922363281;-157.2310333251953;34.65464782714844;-5.58294677734375;-3.1194915771484375;-7.4393310546875
1445421586232;282.8311462402344;-157.23219299316406;34.68491744995117;-5.6025543212890625;-3.099884033203125;-7.419708251953125
1445421586265;282.7584533691406;-157.2425079345703;34.74261474609375;-5.64178466796875;-3.0606536865234375;-7.360870361328125
1445421586302;282.76287841796875;-157.23068237304688;34.76204299926758;-5.58294677734375;-3.1194915771484375;-7.3804931640625
1445421586334;282.77239990234375;-157.2086639404297;34.78305435180664;-5.563323974609375;-3.1783294677734375;-7.3804931640625
1445421586363;282.75982666015625;-157.20431518554688;34.78691101074219;-5.6025543212890625;-3.1194915771484375;-7.4001007080078125
1445421586398;282.6581726074219;-157.22459411621094;34.79792785644531;-5.6025543212890625;-3.08026123046875;-7.4589385986328125
1445421586429;282.5869445800781;-157.2418670654297;34.79764938354492;-5.64178466796875;-3.13909912109375;-7.419708251953125
1445421586464;282.5575866699219;-157.25120544433594;34.79694747924805;-5.6613922119140625;-3.099884033203125;-7.4589385986328125
1445421586496;282.49041748046875;-157.27545166015625;34.78092575073242;-5.58294677734375;-3.1194915771484375;-7.5177764892578125
1445421586532;282.54791259765625;-157.2581787109375;34.777244567871094;-5.563323974609375;-3.158721923828125;-7.4001007080078125
1445421586563;282.5809631347656;-157.2503204345703;34.76708984375;-5.58294677734375;-3.1194915771484375;-7.3804931640625
1445421586595;282.58056640625;-157.25955200195312;34.76133728027344;-5.58294677734375;-3.08026123046875;-7.4981689453125
1445421586630;282.6239013671875;-157.25405883789062;34.76482009887695;-5.58294677734375;-3.099884033203125;-7.3412628173828125
1445421586662;282.61383056640625;-157.26377868652344;34.76272201538086;-5.5240936279296875;-3.0606536865234375;-7.4785614013671875
1445421586699;282.6094055175781;-157.27694702148438;34.7435188293457;-5.6025543212890625;-3.08026123046875;-7.3804931640625
1445421586728;282.6898193359375;-157.25721740722656;34.72830581665039;-5.563323974609375;-3.099884033203125;-7.4001007080078125
1445421586764;282.72613525390625;-157.2476806640625;34.7095832824707;-5.5240936279296875;-3.158721923828125;-7.4393310546875
1445421586793;282.76324462890625;-157.23814392089844;34.676082611083984;-5.504486083984375;-3.099884033203125;-7.419708251953125
1445421586826;282.7709045410156;-157.24041748046875;34.653533935546875;-5.4652557373046875;-3.13909912109375;-7.4981689453125
1445421586858;282.7598876953125;-157.2335662841797;34.66649627685547;-5.4848785400390625;-3.099884033203125;-7.4393310546875
1445421586892;282.68603515625;-157.23690795898438;34.742733001708984;-5.58294677734375;-3.08026123046875;-7.4001007080078125
1445421586926;282.6769104003906;-157.22265625;34.77935028076172;-5.622161865234375;-3.13909912109375;-7.3804931640625
1445421586958;282.68084716796875;-157.18211364746094;34.84835433959961;-5.64178466796875;-3.08026123046875;-7.4001007080078125
1445421586991;282.70709228515625;-157.1412811279297;34.885902404785156;-5.64178466796875;-3.099884033203125;-7.4001007080078125
1445421587024;282.73321533203125;-157.12501525878906;34.89146041870117;-5.622161865234375;-3.099884033203125;-7.3804931640625
1445421587057;282.81585693359375;-157.08888244628906;34.86674880981445;-5.58294677734375;-3.158721923828125;-7.419708251953125
1445421587090;282.94427490234375;-157.03753662109375;34.864803314208984;-5.58294677734375;-3.19793701171875;-7.360870361328125
1445421587123;283.01177978515625;-157.00897216796875;34.853538513183594;-5.58294677734375;-3.19793701171875;-7.360870361328125
1445421587156;283.0838317871094;-156.99072265625;34.8376350402832;-5.58294677734375;-3.1783294677734375;-7.3412628173828125
1445421587188;283.0774841308594;-157.00149536132812;34.825862884521484;-5.64178466796875;-3.158721923828125;-7.419708251953125
1445421587222;283.02593994140625;-157.03871154785156;34.815757751464844;-5.58294677734375;-3.1194915771484375;-7.4393310546875
1445421587255;282.9101867675781;-157.10403442382812;34.79001235961914;-5.4652557373046875;-3.08026123046875;-7.4393310546875
1445421587290;282.85906982421875;-157.12240600585938;34.78759765625;-5.6025543212890625;-3.08026123046875;-7.4589385986328125
1445421587321;282.77239990234375;-157.13003540039062;34.816349029541016;-5.622161865234375;-3.158721923828125;-7.4785614013671875
1445421587354;282.76666259765625;-157.1094512939453;34.840576171875;-5.563323974609375;-3.1783294677734375;-7.4393310546875
1445421587387;282.7720642089844;-157.0823974609375;34.86317825317383;-5.6613922119140625;-3.099884033203125;-7.3412628173828125
1445421587420;282.71514892578125;-157.09088134765625;34.89045715332031;-5.6613922119140625;-3.1194915771484375;-7.360870361328125
1445421587453;282.6921691894531;-157.0941619873047;34.90476989746094;-5.64178466796875;-3.1194915771484375;-7.2824249267578125
1445421587485;282.65374755859375;-157.1034393310547;34.91865539550781;-5.622161865234375;-3.099884033203125;-7.3412628173828125
1445421587519;282.58935546875;-157.13133239746094;34.90576934814453;-5.622161865234375;-3.1194915771484375;-7.4001007080078125
1445421587553;282.54034423828125;-157.1562957763672;34.878265380859375;-5.5437164306640625;-3.1194915771484375;-7.4589385986328125
1445421587586;282.502685546875;-157.184326171875;34.834598541259766;-5.563323974609375;-3.1783294677734375;-7.4589385986328125
1445421587618;282.5748596191406;-157.1803436279297;34.79164505004883;-5.504486083984375;-3.158721923828125;-7.419708251953125
1445421587651;282.62359619140625;-157.1707305908203;34.78559112548828;-5.58294677734375;-3.1194915771484375;-7.4001007080078125
1445421587685;282.6510314941406;-157.17413330078125;34.7883415222168;-5.64178466796875;-3.13909912109375;-7.4393310546875
1445421587717;282.6705017089844;-157.1790008544922;34.78482437133789;-5.6025543212890625;-3.08026123046875;-7.4001007080078125
1445421587750;282.67315673828125;-157.1903076171875;34.76414108276367;-5.5437164306640625;-3.099884033203125;-7.419708251953125
1445421587787;282.65264892578125;-157.21694946289062;34.723392486572266;-5.5437164306640625;-3.099884033203125;-7.360870361328125
1445421587818;282.57635498046875;-157.25820922851562;34.698787689208984;-5.563323974609375;-3.0410308837890625;-7.4589385986328125
1445421587856;282.6429748535156;-157.25079345703125;34.64637756347656;-5.5437164306640625;-3.1783294677734375;-7.3804931640625
1445421587886;282.6896667480469;-157.23947143554688;34.62358856201172;-5.5240936279296875;-3.1783294677734375;-7.419708251953125
1445421587915;282.7132568359375;-157.2353057861328;34.58898162841797;-5.504486083984375;-3.13909912109375;-7.4393310546875
1445421587948;282.7348327636719;-157.22482299804688;34.58942794799805;-5.563323974609375;-3.13909912109375;-7.4393310546875
1445421587981;282.743408203125;-157.21209716796875;34.613609313964844;-5.563323974609375;-3.099884033203125;-7.3804931640625
1445421588014;282.7160949707031;-157.21871948242188;34.62876510620117;-5.6025543212890625;-3.08026123046875;-7.3804931640625
1445421588052;282.7528076171875;-157.196533203125;34.6712646484375;-5.563323974609375;-3.13909912109375;-7.4001007080078125
1445421588080;282.8086853027344;-157.18222045898438;34.670814514160156;-5.6025543212890625;-3.158721923828125;-7.5177764892578125
1445421588113;282.81396484375;-157.18313598632812;34.673248291015625;-5.622161865234375;-3.099884033203125;-7.419708251953125
1445421588146;282.77789306640625;-157.20242309570312;34.66630935668945;-5.5437164306640625;-3.13909912109375;-7.4393310546875
1445421588183;282.7628173828125;-157.21774291992188;34.644283294677734;-5.58294677734375;-3.1194915771484375;-7.4393310546875
1445421588213;282.74700927734375;-157.22900390625;34.62699890136719;-5.5437164306640625;-3.08026123046875;-7.4393310546875
1445421588246;282.7380676269531;-157.24423217773438;34.58736038208008;-5.5437164306640625;-3.13909912109375;-7.4393310546875
1445421588279;282.75872802734375;-157.24696350097656;34.56555938720703;-5.5240936279296875;-3.13909912109375;-7.3804931640625
1445421588312;282.7391357421875;-157.25955200195312;34.55739974975586;-5.5240936279296875;-3.099884033203125;-7.419708251953125
1445421588346;282.7060546875;-157.2794189453125;34.550838470458984;-5.4848785400390625;-3.099884033203125;-7.4589385986328125
1445421588379;282.624755859375;-157.31422424316406;34.56221008300781;-5.563323974609375;-3.0410308837890625;-7.4981689453125
1445421588410;282.62786865234375;-157.31321716308594;34.565738677978516;-5.5437164306640625;-3.1194915771484375;-7.4785614013671875
1445421588443;282.6695861816406;-157.30015563964844;34.57847595214844;-5.563323974609375;-3.13909912109375;-7.4001007080078125
1445421588476;282.69189453125;-157.2934112548828;34.58900833129883;-5.5240936279296875;-3.0606536865234375;-7.4981689453125
1445421588509;282.6754150390625;-157.3069610595703;34.582786560058594;-5.5437164306640625;-3.1194915771484375;-7.4393310546875
1445421588542;282.69073486328125;-157.2997589111328;34.599910736083984;-5.58294677734375;-3.08026123046875;-7.419708251953125
1445421588575;282.6857604980469;-157.29745483398438;34.6109504699707;-5.622161865234375;-3.099884033203125;-7.360870361328125
1445421588608;282.6871032714844;-157.28475952148438;34.64636993408203;-5.6025543212890625;-3.08026123046875;-7.3412628173828125
1445421588641;282.6720275878906;-157.2855987548828;34.66041564941406;-5.58294677734375;-3.0606536865234375;-7.4001007080078125
1445421588674;282.65625;-157.28622436523438;34.66770935058594;-5.622161865234375;-3.099884033203125;-7.4589385986328125
1445421588707;282.6260681152344;-157.290283203125;34.67573165893555;-5.563323974609375;-3.099884033203125;-7.4001007080078125
1445421588740;282.57891845703125;-157.3032684326172;34.662776947021484;-5.563323974609375;-3.08026123046875;-7.4589385986328125
1445421588774;282.55767822265625;-157.3115997314453;34.650760650634766;-5.5240936279296875;-3.099884033203125;-7.419708251953125
1445421588807;282.48077392578125;-157.33856201171875;34.626495361328125;-5.58294677734375;-3.1194915771484375;-7.4981689453125
1445421588842;282.52685546875;-157.31748962402344;34.61195373535156;-5.563323974609375;-3.158721923828125;-7.4785614013671875
1445421588872;282.4891662597656;-157.32630920410156;34.59129333496094;-5.58294677734375;-3.099884033203125;-7.4785614013671875
1445421588905;282.4735412597656;-157.33567810058594;34.54300308227539;-5.5240936279296875;-3.1194915771484375;-7.5373992919921875
1445421588937;282.4583740234375;-157.3365020751953;34.53116226196289;-5.5240936279296875;-3.158721923828125;-7.419708251953125
1445421588970;282.5237121582031;-157.3002166748047;34.53078079223633;-5.5437164306640625;-3.158721923828125;-7.4393310546875
1445421589003;282.57122802734375;-157.27720642089844;34.535301208496094;-5.5437164306640625;-3.13909912109375;-7.4393310546875
1445421589038;282.55584716796875;-157.27798461914062;34.548587799072266;-5.58294677734375;-3.099884033203125;-7.3804931640625
1445421589070;282.54156494140625;-157.2748565673828;34.58224105834961;-5.5240936279296875;-3.08026123046875;-7.4001007080078125
1445421589103;282.56744384765625;-157.267822265625;34.57563018798828;-5.504486083984375;-3.099884033203125;-7.419708251953125
1445421589136;282.56011962890625;-157.26437377929688;34.578346252441406;-5.504486083984375;-3.099884033203125;-7.4393310546875
1445421589169;282.59881591796875;-157.24423217773438;34.59757614135742;-5.58294677734375;-3.099884033203125;-7.4393310546875
1445421589202;282.6158752441406;-157.23703002929688;34.60593795776367;-5.6025543212890625;-3.158721923828125;-7.4981689453125
1445421589235;282.63934326171875;-157.22662353515625;34.618385314941406;-5.6025543212890625;-3.158721923828125;-7.4785614013671875
1445421589268;282.63665771484375;-157.22532653808594;34.6153450012207;-5.563323974609375;-3.1194915771484375;-7.4393310546875
1445421589301;282.6042175292969;-157.2391815185547;34.62059783935547;-5.5437164306640625;-3.0606536865234375;-7.3412628173828125
1445421589335;282.5383605957031;-157.26597595214844;34.61737823486328;-5.5437164306640625;-3.0606536865234375;-7.4393310546875
1445421589370;282.4761962890625;-157.29563903808594;34.58009338378906;-5.4848785400390625;-3.08026123046875;-7.4589385986328125
1445421589404;282.4797058105469;-157.2947235107422;34.57561111450195;-5.5240936279296875;-3.099884033203125;-7.4001007080078125
1445421589432;282.54180908203125;-157.2703094482422;34.58652114868164;-5.58294677734375;-3.158721923828125;-7.419708251953125
1445421589466;282.56732177734375;-157.24948120117188;34.618316650390625;-5.6025543212890625;-3.13909912109375;-7.4001007080078125
1445421589499;282.583984375;-157.2395477294922;34.625885009765625;-5.563323974609375;-3.158721923828125;-7.360870361328125
1445421589532;282.60064697265625;-157.22901916503906;34.62641143798828;-5.5240936279296875;-3.13909912109375;-7.419708251953125
1445421589565;282.62060546875;-157.22047424316406;34.62449264526367;-5.5437164306640625;-3.217559814453125;-7.3804931640625
1445421589598;282.69439697265625;-157.18936157226562;34.63086700439453;-5.58294677734375;-3.13909912109375;-7.3804931640625
1445421589631;282.68310546875;-157.19564819335938;34.624000549316406;-5.563323974609375;-3.13909912109375;-7.4589385986328125
1445421589664;282.6505126953125;-157.20718383789062;34.63249206542969;-5.622161865234375;-3.099884033203125;-7.4589385986328125
1445421589696;282.5621643066406;-157.2392120361328;34.64975357055664;-5.58294677734375;-3.08026123046875;-7.419708251953125
1445421589730;282.5577087402344;-157.2344512939453;34.68034744262695;-5.622161865234375;-3.1194915771484375;-7.360870361328125
1445421589765;282.57611083984375;-157.22650146484375;34.684486389160156;-5.563323974609375;-3.158721923828125;-7.3804931640625
1445421589795;282.6242370605469;-157.20867919921875;34.68111801147461;-5.563323974609375;-3.13909912109375;-7.3804931640625
1445421589830;282.6131896972656;-157.21583557128906;34.667396545410156;-5.563323974609375;-3.099884033203125;-7.419708251953125
1445421589862;282.62408447265625;-157.2134246826172;34.65911102294922;-5.5240936279296875;-3.1194915771484375;-7.4001007080078125
1445421589901;282.6164855957031;-157.21743774414062;34.65394592285156;-5.5437164306640625;-3.099884033203125;-7.3804931640625
1445421589927;282.5916748046875;-157.22750854492188;34.651493072509766;-5.5437164306640625;-3.099884033203125;-7.419708251953125
1445421589960;282.5911865234375;-157.22503662109375;34.66401290893555;-5.563323974609375;-3.13909912109375;-7.4001007080078125
1445421589999;282.66845703125;-157.1927032470703;34.67617416381836;-5.504486083984375;-3.099884033203125;-7.4001007080078125
1445421590032;282.729736328125;-157.16683959960938;34.68674087524414;-5.563323974609375;-3.1783294677734375;-7.3804931640625
1445421590061;282.83721923828125;-157.12149047851562;34.704830169677734;-5.58294677734375;-3.1783294677734375;-7.3412628173828125
1445421590093;282.83575439453125;-157.1210479736328;34.70948028564453;-5.622161865234375;-3.13909912109375;-7.360870361328125
1445421590126;282.744873046875;-157.1561279296875;34.70943832397461;-5.622161865234375;-3.02142333984375;-7.3216400146484375
1445421590159;282.6490478515625;-157.234375;34.63774871826172;-5.5240936279296875;-3.0410308837890625;-7.4785614013671875
1445421590193;282.56011962890625;-157.30528259277344;34.57708740234375;-5.5437164306640625;-3.0410308837890625;-7.4589385986328125
1445421590225;282.5103759765625;-157.3388214111328;34.5572395324707;-5.5240936279296875;-3.0606536865234375;-7.4785614013671875
1445421590258;282.421630859375;-157.37493896484375;34.544166564941406;-5.504486083984375;-3.0606536865234375;-7.4393310546875
1445421590291;282.369384765625;-157.38217163085938;34.5622444152832;-5.5437164306640625;-3.0606536865234375;-7.419708251953125
1445421590324;282.3044738769531;-157.3791961669922;34.592769622802734;-5.5240936279296875;-3.0606536865234375;-7.4589385986328125
1445421590357;282.25408935546875;-157.36524963378906;34.64503479003906;-5.622161865234375;-3.08026123046875;-7.4393310546875
1445421590390;282.23284912109375;-157.35862731933594;34.665733337402344;-5.5437164306640625;-3.158721923828125;-7.4001007080078125
1445421590423;282.2734680175781;-157.3265838623047;34.67542266845703;-5.5240936279296875;-3.1194915771484375;-7.4001007080078125
1445421590456;282.28155517578125;-157.32298278808594;34.69257354736328;-5.622161865234375;-3.1194915771484375;-7.3804931640625
1445421590490;282.286865234375;-157.32235717773438;34.695465087890625;-5.6613922119140625;-3.158721923828125;-7.4001007080078125
1445421590522;282.326171875;-157.31625366210938;34.69438552856445;-5.64178466796875;-3.1194915771484375;-7.419708251953125
1445421590555;282.2503967285156;-157.35385131835938;34.66521453857422;-5.563323974609375;-3.0606536865234375;-7.4785614013671875
1445421590588;282.21685791015625;-157.37063598632812;34.64421463012695;-5.504486083984375;-3.0606536865234375;-7.4589385986328125
1445421590621;282.20648193359375;-157.38722229003906;34.6114501953125;-5.4848785400390625;-3.099884033203125;-7.4393310546875
1445421590654;282.1770935058594;-157.40513610839844;34.59495544433594;-5.4848785400390625;-3.099884033203125;-7.3804931640625
1445421590687;282.25006103515625;-157.38064575195312;34.59163284301758;-5.563323974609375;-3.099884033203125;-7.419708251953125
1445421590719;282.24261474609375;-157.3927459716797;34.58953857421875;-5.5240936279296875;-3.02142333984375;-7.4589385986328125
1445421590753;282.21307373046875;-157.40902709960938;34.592559814453125;-5.6025543212890625;-3.08026123046875;-7.4001007080078125
1445421590786;282.27703857421875;-157.38861083984375;34.59114074707031;-5.5240936279296875;-3.13909912109375;-7.4001007080078125
1445421590819;282.3337097167969;-157.3811492919922;34.56007385253906;-5.5240936279296875;-3.158721923828125;-7.4589385986328125
1445421590856;282.41021728515625;-157.35134887695312;34.56071853637695;-5.563323974609375;-3.2371673583984375;-7.4001007080078125
1445421590885;282.52264404296875;-157.30340576171875;34.5555419921875;-5.5240936279296875;-3.217559814453125;-7.4393310546875
1445421590919;282.4329833984375;-157.330322265625;34.56782150268555;-5.58294677734375;-3.08026123046875;-7.4785614013671875
1445421590954;282.38299560546875;-157.3499755859375;34.56248474121094;-5.58294677734375;-3.0606536865234375;-7.5177764892578125
1445421590985;282.27398681640625;-157.38742065429688;34.573699951171875;-5.563323974609375;-3.0018157958984375;-7.4393310546875
1445421591016;282.243896484375;-157.39907836914062;34.56752395629883;-5.5240936279296875;-3.02142333984375;-7.4981689453125
1445421591050;282.26214599609375;-157.38951110839844;34.56538009643555;-5.5437164306640625;-3.08026123046875;-7.4785614013671875
1445421591083;282.4013366699219;-157.3286590576172;34.57518768310547;-5.58294677734375;-3.19793701171875;-7.4589385986328125
1445421591116;282.414306640625;-157.31784057617188;34.58207702636719;-5.563323974609375;-3.1783294677734375;-7.419708251953125
1445421591149;282.4757385253906;-157.28456115722656;34.593536376953125;-5.563323974609375;-3.13909912109375;-7.4001007080078125
1445421591183;282.49749755859375;-157.272705078125;34.60094451904297;-5.563323974609375;-3.13909912109375;-7.4589385986328125
1445421591215;282.47833251953125;-157.28103637695312;34.60719680786133;-5.58294677734375;-3.158721923828125;-7.4393310546875
1445421591248;282.46875;-157.29217529296875;34.59535598754883;-5.563323974609375;-3.158721923828125;-7.4393310546875
1445421591281;282.4393615722656;-157.30162048339844;34.5956916809082;-5.58294677734375;-3.099884033203125;-7.419708251953125
1445421591317;282.3503723144531;-157.3263397216797;34.613590240478516;-5.563323974609375;-3.0606536865234375;-7.360870361328125
1445421591347;282.289306640625;-157.33514404296875;34.640647888183594;-5.58294677734375;-3.099884033203125;-7.3804931640625
1445421591380;282.2125549316406;-157.35182189941406;34.66623306274414;-5.58294677734375;-3.0410308837890625;-7.419708251953125
1445421591413;282.19622802734375;-157.35682678222656;34.66599655151367;-5.563323974609375;-3.0606536865234375;-7.5177764892578125
1445421591446;282.22637939453125;-157.34844970703125;34.68048858642578;-5.5437164306640625;-3.0410308837890625;-7.4001007080078125
1445421591478;282.2639465332031;-157.3333740234375;34.69451904296875;-5.5240936279296875;-3.1194915771484375;-7.302032470703125
1445421591513;282.416748046875;-157.27349853515625;34.732017517089844;-5.58294677734375;-3.099884033203125;-7.360870361328125
1445421591546;282.601806640625;-157.2063751220703;34.75798034667969;-5.563323974609375;-3.1194915771484375;-7.3804931640625
1445421591578;282.69439697265625;-157.1768798828125;34.75746536254883;-5.563323974609375;-3.13909912109375;-7.3412628173828125
1445421591612;282.7944641113281;-157.1398468017578;34.78782653808594;-5.622161865234375;-3.1194915771484375;-7.3804931640625
1445421591644;282.81732177734375;-157.1310272216797;34.807716369628906;-5.58294677734375;-3.1783294677734375;-7.419708251953125
1445421591679;282.8448486328125;-157.1270751953125;34.820594787597656;-5.563323974609375;-3.099884033203125;-7.4001007080078125
1445421591710;282.79852294921875;-157.14413452148438;34.82939910888672;-5.504486083984375;-3.08026123046875;-7.4393310546875
1445421591744;282.752197265625;-157.1524658203125;34.849029541015625;-5.563323974609375;-3.0606536865234375;-7.4981689453125
1445421591776;282.742919921875;-157.15003967285156;34.86064910888672;-5.58294677734375;-3.08026123046875;-7.4393310546875
1445421591809;282.79290771484375;-157.11810302734375;34.87742233276367;-5.64178466796875;-3.19793701171875;-7.4589385986328125
1445421591843;282.802001953125;-157.10610961914062;34.89104461669922;-5.70062255859375;-3.158721923828125;-7.360870361328125
1445421591875;282.7835693359375;-157.11190795898438;34.90229797363281;-5.70062255859375;-3.13909912109375;-7.302032470703125
1445421591909;282.71282958984375;-157.16285705566406;34.8800048828125;-5.6613922119140625;-3.1194915771484375;-7.419708251953125
1445421591940;282.6725158691406;-157.20387268066406;34.848960876464844;-5.58294677734375;-3.099884033203125;-7.3804931640625
1445421591974;282.5408630371094;-157.30555725097656;34.77994918823242;-5.5437164306640625;-3.02142333984375;-7.4785614013671875
1445421592007;282.4924621582031;-157.37765502929688;34.70982360839844;-5.5437164306640625;-3.099884033203125;-7.4393310546875
1445421592040;282.4566345214844;-157.41180419921875;34.68251037597656;-5.5240936279296875;-3.08026123046875;-7.4393310546875
1445421592073;282.50909423828125;-157.4102783203125;34.65411376953125;-5.4848785400390625;-3.099884033203125;-7.4001007080078125
1445421592106;282.53631591796875;-157.4025115966797;34.64986038208008;-5.5240936279296875;-3.1194915771484375;-7.419708251953125
1445421592138;282.6064758300781;-157.37393188476562;34.646053314208984;-5.504486083984375;-3.1194915771484375;-7.4001007080078125
1445421592172;282.5148010253906;-157.3834686279297;34.63983917236328;-5.4848785400390625;-3.0606536865234375;-7.5177764892578125
1445421592204;282.5148010253906;-157.3834686279297;34.63983917236328;-5.5240936279296875;-3.158721923828125;-7.419708251953125
1445421592237;282.492431640625;-157.3291473388672;34.64910888671875;-5.5437164306640625;-3.158721923828125;-7.4589385986328125
1445421592271;282.5597839355469;-157.27371215820312;34.67219161987305;-5.6025543212890625;-3.158721923828125;-7.4001007080078125
1445421592304;282.57073974609375;-157.25721740722656;34.68502426147461;-5.6025543212890625;-3.099884033203125;-7.4393310546875
1445421592336;282.545654296875;-157.2533416748047;34.68569564819336;-5.58294677734375;-3.1194915771484375;-7.4589385986328125
1445421592370;282.5581359863281;-157.23941040039062;34.65364074707031;-5.5240936279296875;-3.1783294677734375;-7.4785614013671875
1445421592403;282.5552673339844;-157.24095153808594;34.62581253051758;-5.64178466796875;-3.1194915771484375;-7.4785614013671875
1445421592436;282.5298156738281;-157.24546813964844;34.61500930786133;-5.5437164306640625;-3.099884033203125;-7.3804931640625
1445421592469;282.4883117675781;-157.25872802734375;34.614501953125;-5.563323974609375;-3.13909912109375;-7.4001007080078125
1445421592502;282.45452880859375;-157.2769012451172;34.58740234375;-5.563323974609375;-3.099884033203125;-7.3804931640625
1445421592535;282.365234375;-157.32437133789062;34.55167770385742;-5.5240936279296875;-3.13909912109375;-7.4393310546875
1445421592569;282.3773498535156;-157.34432983398438;34.4936408996582;-5.4848785400390625;-3.158721923828125;-7.4981689453125
1445421592602;282.39990234375;-157.34280395507812;34.487220764160156;-5.504486083984375;-3.13909912109375;-7.4393310546875
1445421592635;282.47418212890625;-157.32113647460938;34.48324966430664;-5.4848785400390625;-3.13909912109375;-7.4001007080078125
1445421592667;282.47265625;-157.3206024169922;34.49360656738281;-5.5437164306640625;-3.08026123046875;-7.4589385986328125
1445421592700;282.47662353515625;-157.31375122070312;34.53156280517578;-5.6025543212890625;-3.13909912109375;-7.4785614013671875
1445421592733;282.47711181640625;-157.29185485839844;34.58109664916992;-5.622161865234375;-3.1194915771484375;-7.419708251953125
1445421592766;282.49072265625;-157.26959228515625;34.605812072753906;-5.5437164306640625;-3.19793701171875;-7.4001007080078125
1445421592800;282.59576416015625;-157.22402954101562;34.61090850830078;-5.58294677734375;-3.1783294677734375;-7.419708251953125
1445421592834;282.56005859375;-157.24305725097656;34.59272003173828;-5.563323974609375;-3.13909912109375;-7.4785614013671875
1445421592865;282.5665588378906;-157.2465057373047;34.57560729980469;-5.4652557373046875;-3.1194915771484375;-7.4393310546875
1445421592899;282.5773620605469;-157.2619171142578;34.52021789550781;-5.4652557373046875;-3.158721923828125;-7.4589385986328125
1445421592931;282.5369873046875;-157.2838897705078;34.5041618347168;-5.504486083984375;-3.099884033203125;-7.4393310546875
1445421592964;282.495361328125;-157.3107147216797;34.488677978515625;-5.504486083984375;-3.099884033203125;-7.419708251953125
1445421592997;282.5435485839844;-157.30560302734375;34.47943115234375;-5.504486083984375;-3.1194915771484375;-7.4785614013671875
1445421593029;282.57464599609375;-157.29757690429688;34.47392654418945;-5.563323974609375;-3.158721923828125;-7.4785614013671875
1445421593066;282.6269836425781;-157.27615356445312;34.48894500732422;-5.504486083984375;-3.1194915771484375;-7.4393310546875
1445421593098;282.62841796875;-157.2675018310547;34.53126525878906;-5.58294677734375;-3.08026123046875;-7.4001007080078125
1445421593129;282.6363830566406;-157.25721740722656;34.554595947265625;-5.622161865234375;-3.1194915771484375;-7.360870361328125
1445421593162;282.6517639160156;-157.24098205566406;34.579559326171875;-5.6025543212890625;-3.099884033203125;-7.4393310546875
1445421593195;282.54931640625;-157.28076171875;34.58081817626953;-5.622161865234375;-3.0606536865234375;-7.5177764892578125
1445421593229;282.5408935546875;-157.2845458984375;34.576358795166016;-5.58294677734375;-3.02142333984375;-7.419708251953125
1445421593262;282.4483642578125;-157.32090759277344;34.57858657836914;-5.6025543212890625;-3.02142333984375;-7.3804931640625
1445421593295;282.372802734375;-157.34927368164062;34.538700103759766;-5.504486083984375;-3.0606536865234375;-7.4785614013671875
1445421593327;282.3524169921875;-157.3551025390625;34.52072525024414;-5.504486083984375;-3.099884033203125;-7.4589385986328125
1445421593360;282.28582763671875;-157.37855529785156;34.47282028198242;-5.504486083984375;-3.0606536865234375;-7.4981689453125
1445421593393;282.2542419433594;-157.38864135742188;34.46215057373047;-5.4652557373046875;-3.099884033203125;-7.4785614013671875
1445421593426;282.2645263671875;-157.3867645263672;34.44210433959961;-5.4848785400390625;-3.099884033203125;-7.4785614013671875
1445421593459;282.2845458984375;-157.3832550048828;34.444034576416016;-5.5437164306640625;-3.099884033203125;-7.4981689453125
1445421593492;282.24755859375;-157.400390625;34.44681167602539;-5.5437164306640625;-3.1194915771484375;-7.4785614013671875
1445421593525;282.3285217285156;-157.37632751464844;34.47089385986328;-5.563323974609375;-3.158721923828125;-7.4589385986328125
1445421593558;282.4185791015625;-157.34494018554688;34.49882888793945;-5.563323974609375;-3.13909912109375;-7.4001007080078125
1445421593593;282.4257507324219;-157.33741760253906;34.519752502441406;-5.563323974609375;-3.08026123046875;-7.360870361328125
1445421593624;282.5098876953125;-157.29705810546875;34.54142379760742;-5.5437164306640625;-3.158721923828125;-7.3804931640625
1445421593657;282.50616455078125;-157.29571533203125;34.54375457763672;-5.5240936279296875;-3.08026123046875;-7.4785614013671875
1445421593690;282.4877624511719;-157.30084228515625;34.512428283691406;-5.504486083984375;-3.1783294677734375;-7.4393310546875
1445421593723;282.4783020019531;-157.30941772460938;34.45832443237305;-5.504486083984375;-3.158721923828125;-7.5177764892578125
1445421593756;282.4959716796875;-157.30487060546875;34.44373321533203;-5.445648193359375;-3.158721923828125;-7.4001007080078125
1445421593789;282.5156555175781;-157.29898071289062;34.423030853271484;-5.5240936279296875;-3.13909912109375;-7.4393310546875
1445421593822;282.5455017089844;-157.28248596191406;34.41958236694336;-5.4848785400390625;-3.158721923828125;-7.419708251953125
1445421593854;282.5355224609375;-157.28048706054688;34.42600631713867;-5.5437164306640625;-3.08026123046875;-7.4393310546875
1445421593887;282.47576904296875;-157.2869415283203;34.45463180541992;-5.563323974609375;-3.099884033203125;-7.419708251953125
1445421593922;282.4062805175781;-157.31004333496094;34.45014953613281;-5.563323974609375;-3.08026123046875;-7.5373992919921875
1445421593954;282.37646484375;-157.3162078857422;34.46308517456055;-5.5437164306640625;-3.13909912109375;-7.3804931640625
1445421593987;282.43988037109375;-157.2874755859375;34.486061096191406;-5.6025543212890625;-3.13909912109375;-7.3412628173828125
1445421594020;282.4541015625;-157.28675842285156;34.49186325073242;-5.5437164306640625;-3.13909912109375;-7.419708251953125
1445421594053;282.4407043457031;-157.29844665527344;34.48802185058594;-5.5437164306640625;-3.099884033203125;-7.419708251953125
1445421594086;282.4102478027344;-157.3114471435547;34.498374938964844;-5.6025543212890625;-3.0606536865234375;-7.4001007080078125
1445421594120;282.3467102050781;-157.33587646484375;34.50197982788086;-5.58294677734375;-3.099884033203125;-7.4785614013671875
1445421594152;282.3190612792969;-157.34445190429688;34.50575637817383;-5.563323974609375;-3.08026123046875;-7.4393310546875
1445421594185;282.2664794921875;-157.3564453125;34.506038665771484;-5.504486083984375;-3.099884033203125;-7.4001007080078125
1445421594219;282.25238037109375;-157.35707092285156;34.507598876953125;-5.5437164306640625;-3.0606536865234375;-7.4589385986328125
1445421594252;282.18011474609375;-157.37570190429688;34.528656005859375;-5.563323974609375;-3.099884033203125;-7.4981689453125
1445421594284;282.21612548828125;-157.3634033203125;34.53276062011719;-5.58294677734375;-3.1194915771484375;-7.5177764892578125
1445421594321;282.28912353515625;-157.33670043945312;34.53472900390625;-5.6025543212890625;-3.158721923828125;-7.5177764892578125
1445421594349;282.36761474609375;-157.30609130859375;34.559268951416016;-5.64178466796875;-3.13909912109375;-7.360870361328125
1445421594383;282.3173828125;-157.32337951660156;34.577083587646484;-5.58294677734375;-3.0606536865234375;-7.419708251953125
1445421594416;282.27313232421875;-157.3435821533203;34.56634521484375;-5.563323974609375;-3.0018157958984375;-7.4001007080078125
1445421594449;282.18939208984375;-157.37448120117188;34.556941986083984;-5.563323974609375;-3.099884033203125;-7.4001007080078125
1445421594482;282.17791748046875;-157.37844848632812;34.55351257324219;-5.5437164306640625;-3.1194915771484375;-7.3804931640625
1445421594514;282.2405090332031;-157.35513305664062;34.54378890991211;-5.563323974609375;-3.158721923828125;-7.4393310546875
1445421594548;282.3149719238281;-157.33078002929688;34.52748489379883;-5.504486083984375;-3.1194915771484375;-7.419708251953125
1445421594581;282.31488037109375;-157.33334350585938;34.517581939697266;-5.4848785400390625;-3.0606536865234375;-7.5373992919921875
1445421594614;282.2690734863281;-157.361328125;34.494388580322266;-5.4652557373046875;-3.08026123046875;-7.4981689453125
1445421594646;282.3128356933594;-157.35142517089844;34.48916244506836;-5.5240936279296875;-3.13909912109375;-7.4589385986328125
1445421594680;282.32720947265625;-157.3479461669922;34.49306106567383;-5.58294677734375;-3.13909912109375;-7.4785614013671875
1445421594714;282.3581848144531;-157.34298706054688;34.49758529663086;-5.563323974609375;-3.099884033203125;-7.4589385986328125
1445421594746;282.36737060546875;-157.34706115722656;34.500022888183594;-5.5437164306640625;-3.08026123046875;-7.419708251953125
1445421594780;282.33905029296875;-157.35467529296875;34.511619567871094;-5.622161865234375;-3.08026123046875;-7.419708251953125
1445421594812;282.1976318359375;-157.40533447265625;34.450313568115234;-5.5240936279296875;-2.96258544921875;-7.4393310546875
1445421594845;282.2269592285156;-157.37022399902344;34.54167175292969;-5.8575286865234375;-3.2567901611328125;-7.4785614013671875
1445421594878;282.28704833984375;-157.3307647705078;34.637596130371094;-5.7986907958984375;-3.2960052490234375;-7.3804931640625
1445421594913;282.14691162109375;-157.3201904296875;34.73560333251953;-5.5437164306640625;-3.0410308837890625;-7.419708251953125
1445421594944;282.1641540527344;-157.2808074951172;34.76060104370117;-5.64178466796875;-3.1783294677734375;-7.4785614013671875
1445421594977;282.08282470703125;-157.28536987304688;34.80440139770508;-5.58294677734375;-3.099884033203125;-7.419708251953125
1445421595011;282.01971435546875;-157.36553955078125;34.76578903198242;-5.5437164306640625;-3.1194915771484375;-7.360870361328125
1445421595043;281.93524169921875;-157.46682739257812;34.687808990478516;-5.386810302734375;-3.0606536865234375;-7.5766143798828125
1445421595075;281.82366943359375;-157.6055450439453;34.570430755615234;-5.308349609375;-3.0018157958984375;-7.5373992919921875
1445421595108;281.7257080078125;-157.68409729003906;34.47822189331055;-5.4064178466796875;-2.9821929931640625;-7.5373992919921875
1445421595144;281.73388671875;-157.6894073486328;34.455894470214844;-5.445648193359375;-3.0018157958984375;-7.5570068359375
1445421595176;281.77655029296875;-157.67259216308594;34.48965835571289;-5.445648193359375;-3.0018157958984375;-7.5373992919921875
1445421595208;281.8641052246094;-157.64097595214844;34.57585144042969;-5.58294677734375;-3.1194915771484375;-7.4393310546875
1445421595241;282.1192321777344;-157.56634521484375;34.939144134521484;-5.680999755859375;-3.13909912109375;-7.419708251953125
1445421595274;282.308349609375;-157.55233764648438;35.4609260559082;-5.680999755859375;-2.9821929931640625;-7.243194580078125
1445421595306;282.3272399902344;-157.60287475585938;35.65675735473633;-5.6025543212890625;-2.9233551025390625;-7.2235870361328125
1445421595341;282.34326171875;-157.7404327392578;35.974605560302734;-5.7398529052734375;-2.9233551025390625;-7.2039642333984375
1445421595373;282.5987854003906;-157.75413513183594;36.229679107666016;-5.7790679931640625;-3.1783294677734375;-7.2039642333984375
1445421595406;282.83465576171875;-157.69442749023438;36.305843353271484;-6.0928802490234375;-3.4725341796875;-7.2824249267578125
1445421595439;283.2970275878906;-157.62115478515625;36.640113830566406;-6.0536651611328125;-3.3744659423828125;-7.125518798828125
1445421595472;283.18389892578125;-157.8761749267578;36.75166320800781;-5.70062255859375;-2.884124755859375;-7.10589599609375
1445421595507;282.97613525390625;-158.068115234375;36.62996292114258;-5.386810302734375;-2.5703125;-7.184356689453125
1445421595538;282.5625;-158.4016571044922;36.34632873535156;-5.4652557373046875;-2.5507049560546875;-7.2039642333984375
1445421595572;282.376220703125;-158.4130859375;36.067047119140625;-5.8575286865234375;-2.84490966796875;-7.2824249267578125
1445421595603;282.3375549316406;-158.31491088867188;35.99007797241211;-5.99481201171875;-2.9233551025390625;-7.302032470703125
1445421595637;282.20123291015625;-158.12579345703125;35.861846923828125;-5.81829833984375;-2.9821929931640625;-7.3216400146484375
1445421595670;282.2298583984375;-158.02932739257812;35.718292236328125;-5.6025543212890625;-3.2371673583984375;-7.4981689453125
1445421595703;282.2431640625;-157.96725463867188;35.3941764831543;-5.4652557373046875;-3.13909912109375;-7.4785614013671875
1445421595736;282.0908203125;-158.0230712890625;35.228336334228516;-5.426025390625;-2.825286865234375;-7.4001007080078125
1445421595769;282.1346435546875;-157.97911071777344;35.11048126220703;-5.5437164306640625;-2.96258544921875;-7.419708251953125
1445421595802;282.2149963378906;-157.89535522460938;34.930240631103516;-5.64178466796875;-2.9821929931640625;-7.3412628173828125
1445421595834;282.27734375;-157.79656982421875;34.8743782043457;-5.622161865234375;-2.9821929931640625;-7.4393310546875
1445421595868;282.4883728027344;-157.6424560546875;34.84817123413086;-5.64178466796875;-3.217559814453125;-7.5177764892578125
1445421595901;282.8284912109375;-157.41281127929688;34.93461227416992;-5.75946044921875;-3.1783294677734375;-7.3412628173828125
1445421595934;283.0403747558594;-157.27610778808594;34.999061584472656;-5.680999755859375;-3.19793701171875;-7.360870361328125
1445421595968;283.069091796875;-157.23211669921875;35.04087448120117;-5.7398529052734375;-3.1783294677734375;-7.360870361328125
1445421596000;283.02069091796875;-157.16432189941406;35.11134338378906;-5.8379058837890625;-3.1783294677734375;-7.302032470703125
1445421596033;282.80078125;-157.27857971191406;35.100040435791016;-5.680999755859375;-3.08026123046875;-7.2824249267578125
1445421596066;282.6546936035156;-157.38070678710938;35.061180114746094;-5.58294677734375;-3.0018157958984375;-7.3412628173828125
1445421596101;282.4232482910156;-157.55496215820312;34.95322036743164;-5.622161865234375;-3.08026123046875;-7.419708251953125
1445421596132;282.37066650390625;-157.61492919921875;34.873409271240234;-5.4652557373046875;-3.0018157958984375;-7.4393310546875
1445421596165;282.2027282714844;-157.75778198242188;34.67144775390625;-5.4064178466796875;-2.9233551025390625;-7.4981689453125
1445421596199;282.07916259765625;-157.8306884765625;34.461124420166016;-5.386810302734375;-2.96258544921875;-7.5766143798828125
1445421596231;282.1246337890625;-157.7890625;34.37016296386719;-5.386810302734375;-3.217559814453125;-7.4981689453125
1445421596264;282.455810546875;-157.56613159179688;34.28014373779297;-5.3671875;-3.276397705078125;-7.5570068359375
1445421596297;282.649658203125;-157.43191528320312;34.34304428100586;-5.386810302734375;-3.099884033203125;-7.419708251953125
1445421596330;282.7114562988281;-157.3878173828125;34.41352462768555;-5.4652557373046875;-3.0410308837890625;-7.360870361328125
1445421596363;282.8447570800781;-157.2456817626953;34.60664367675781;-5.6025543212890625;-3.0410308837890625;-7.360870361328125
1445421596396;282.9241943359375;-157.11351013183594;34.733863830566406;-5.7986907958984375;-3.1783294677734375;-7.2824249267578125
1445421596430;282.921875;-157.0990753173828;34.76042938232422;-5.70062255859375;-3.13909912109375;-7.3412628173828125
1445421596462;282.7663879394531;-157.23577880859375;34.75861740112305;-5.563323974609375;-3.0018157958984375;-7.4001007080078125
1445421596496;282.7439880371094;-157.28826904296875;34.749412536621094;-5.6613922119140625;-3.1783294677734375;-7.4393310546875
1445421596537;282.82379150390625;-157.30796813964844;34.72964096069336;-5.6613922119140625;-3.19793701171875;-7.4001007080078125
1445421596562;282.87982177734375;-157.32073974609375;34.70110321044922;-5.6025543212890625;-3.217559814453125;-7.419708251953125
1445421596594;282.9530029296875;-157.3177490234375;34.67662811279297;-5.504486083984375;-3.2960052490234375;-7.4393310546875
1445421596627;283.0816650390625;-157.2996826171875;34.640411376953125;-5.4652557373046875;-3.19793701171875;-7.4001007080078125
1445421596663;283.1255798339844;-157.32664489746094;34.606143951416016;-5.4652557373046875;-3.158721923828125;-7.4393310546875
1445421596698;283.13128662109375;-157.35211181640625;34.58453369140625;-5.4652557373046875;-3.13909912109375;-7.4981689453125
1445421596726;283.1615295410156;-157.37994384765625;34.618534088134766;-5.4848785400390625;-3.02142333984375;-7.4001007080078125
1445421596759;283.1188659667969;-157.40907287597656;34.66461944580078;-5.58294677734375;-2.96258544921875;-7.3216400146484375
1445421596792;282.97412109375;-157.47042846679688;34.780521392822266;-5.6613922119140625;-2.90374755859375;-7.4393310546875
1445421596825;282.81884765625;-157.50112915039062;34.904518127441406;-5.7398529052734375;-2.96258544921875;-7.360870361328125
1445421596857;282.7807312011719;-157.4888916015625;34.94656753540039;-5.58294677734375;-3.0410308837890625;-7.3412628173828125
1445421596891;282.7503662109375;-157.45030212402344;34.963375091552734;-5.6025543212890625;-3.099884033203125;-7.4001007080078125
1445421596924;282.76104736328125;-157.4129180908203;34.95893096923828;-5.622161865234375;-3.1194915771484375;-7.4001007080078125
1445421596957;282.80169677734375;-157.3834686279297;34.94688034057617;-5.64178466796875;-3.158721923828125;-7.360870361328125
1445421596989;282.83868408203125;-157.3754425048828;34.90326690673828;-5.6025543212890625;-3.158721923828125;-7.4001007080078125
1445421597023;282.8157958984375;-157.42835998535156;34.83642578125;-5.5437164306640625;-3.08026123046875;-7.4589385986328125
1445421597057;282.8194885253906;-157.44017028808594;34.829612731933594;-5.58294677734375;-3.1194915771484375;-7.4981689453125
1445421597089;282.8378601074219;-157.4473876953125;34.81499481201172;-5.563323974609375;-3.0606536865234375;-7.4589385986328125
1445421597122;282.847412109375;-157.4520263671875;34.80328369140625;-5.58294677734375;-3.08026123046875;-7.3804931640625
1445421597155;282.8502502441406;-157.46531677246094;34.81539535522461;-5.6025543212890625;-3.0410308837890625;-7.419708251953125
1445421597189;282.9007568359375;-157.45912170410156;34.83051681518555;-5.6025543212890625;-3.1194915771484375;-7.419708251953125
1445421597220;282.9446716308594;-157.45069885253906;34.81899642944336;-5.563323974609375;-3.158721923828125;-7.5373992919921875
1445421597254;283.0406188964844;-157.43324279785156;34.76990509033203;-5.563323974609375;-3.158721923828125;-7.5177764892578125
1445421597287;283.1104736328125;-157.42193603515625;34.76301193237305;-5.6025543212890625;-3.1194915771484375;-7.4001007080078125
1445421597320;283.1363525390625;-157.4169158935547;34.77262496948242;-5.6025543212890625;-3.1194915771484375;-7.4393310546875
1445421597353;283.1561279296875;-157.4151611328125;34.762027740478516;-5.64178466796875;-3.158721923828125;-7.5177764892578125
1445421597386;283.1626281738281;-157.4154815673828;34.758514404296875;-5.622161865234375;-3.1194915771484375;-7.4001007080078125
1445421597421;283.1753234863281;-157.4193878173828;34.75676727294922;-5.58294677734375;-3.099884033203125;-7.4001007080078125
1445421597452;283.14776611328125;-157.42645263671875;34.76119613647461;-5.5437164306640625;-3.099884033203125;-7.4001007080078125
1445421597485;283.1783447265625;-157.41558837890625;34.74991226196289;-5.5240936279296875;-3.1194915771484375;-7.4589385986328125
1445421597521;283.21044921875;-157.399169921875;34.751102447509766;-5.5437164306640625;-3.13909912109375;-7.4001007080078125
1445421597551;283.201416015625;-157.3820037841797;34.7946662902832;-5.622161865234375;-3.0606536865234375;-7.3216400146484375
1445421597585;283.0757141113281;-157.4159698486328;34.8033561706543;-5.622161865234375;-3.02142333984375;-7.4981689453125
1445421597617;283.0613098144531;-157.4185791015625;34.80634307861328;-5.622161865234375;-3.099884033203125;-7.4393310546875
1445421597650;283.08209228515625;-157.4107666015625;34.79625701904297;-5.5437164306640625;-3.13909912109375;-7.4393310546875
1445421597683;283.0902099609375;-157.41275024414062;34.78752899169922;-5.58294677734375;-3.1194915771484375;-7.4001007080078125
1445421597715;283.06243896484375;-157.435546875;34.78805923461914;-5.58294677734375;-3.0410308837890625;-7.3804931640625
1445421597749;282.9804382324219;-157.47836303710938;34.78940963745117;-5.622161865234375;-3.0410308837890625;-7.3804931640625
1445421597782;282.92974853515625;-157.5030517578125;34.780452728271484;-5.6025543212890625;-3.0606536865234375;-7.4589385986328125
1445421597815;282.9039001464844;-157.52059936523438;34.744415283203125;-5.4848785400390625;-3.08026123046875;-7.4785614013671875
1445421597849;283.0348205566406;-157.46534729003906;34.735626220703125;-5.5240936279296875;-3.13909912109375;-7.360870361328125
1445421597881;283.1088562011719;-157.4307403564453;34.748504638671875;-5.504486083984375;-3.099884033203125;-7.360870361328125
1445421597915;283.1615905761719;-157.40240478515625;34.768165588378906;-5.5437164306640625;-3.099884033203125;-7.4001007080078125
1445421597947;283.16217041015625;-157.39639282226562;34.78711700439453;-5.622161865234375;-3.13909912109375;-7.4001007080078125
1445421597986;283.1795349121094;-157.38796997070312;34.80274963378906;-5.563323974609375;-3.08026123046875;-7.360870361328125
1445421598014;283.1534118652344;-157.39474487304688;34.80752182006836;-5.563323974609375;-3.0410308837890625;-7.3804931640625
1445421598047;283.12408447265625;-157.40560913085938;34.807861328125;-5.6025543212890625;-3.0410308837890625;-7.3804931640625
1445421598079;283.0071716308594;-157.44735717773438;34.80964279174805;-5.622161865234375;-3.0018157958984375;-7.419708251953125
1445421598113;282.92730712890625;-157.47767639160156;34.80382537841797;-5.6025543212890625;-3.0018157958984375;-7.4589385986328125
1445421598146;282.74273681640625;-157.5484619140625;34.78107452392578;-5.5240936279296875;-3.02142333984375;-7.4589385986328125
1445421598180;282.7398376464844;-157.5670928955078;34.73798751831055;-5.445648193359375;-3.0606536865234375;-7.5177764892578125
1445421598211;282.7332763671875;-157.57546997070312;34.71072769165039;-5.4848785400390625;-3.0606536865234375;-7.4981689453125
1445421598251;282.7619323730469;-157.5642547607422;34.72186279296875;-5.5437164306640625;-3.1194915771484375;-7.4393310546875
1445421598289;282.74139404296875;-157.56309509277344;34.75435256958008;-5.622161865234375;-3.0606536865234375;-7.419708251953125
1445421598310;282.74139404296875;-157.56309509277344;34.75435256958008;-5.6613922119140625;-3.02142333984375;-7.4785614013671875
1445421598343;282.6423645019531;-157.58351135253906;34.78668975830078;-5.622161865234375;-3.02142333984375;-7.4785614013671875
1445421598376;282.71478271484375;-157.55682373046875;34.81439208984375;-5.680999755859375;-3.13909912109375;-7.4393310546875
1445421598410;282.757080078125;-157.5440216064453;34.84761428833008;-5.64178466796875;-3.0606536865234375;-7.4589385986328125
1445421598442;282.7533874511719;-157.55096435546875;34.836116790771484;-5.6025543212890625;-3.08026123046875;-7.5177764892578125
1445421598474;282.804443359375;-157.54116821289062;34.827274322509766;-5.58294677734375;-3.099884033203125;-7.419708251953125
1445421598507;282.7839050292969;-157.5526885986328;34.822181701660156;-5.622161865234375;-3.0410308837890625;-7.419708251953125
1445421598541;282.6662902832031;-157.58673095703125;34.8203125;-5.622161865234375;-3.0606536865234375;-7.4589385986328125
1445421598574;282.66912841796875;-157.5785369873047;34.79309844970703;-5.58294677734375;-3.1194915771484375;-7.4589385986328125
1445421598608;282.68756103515625;-157.5704345703125;34.76972579956055;-5.563323974609375;-3.1194915771484375;-7.4393310546875
1445421598641;282.674072265625;-157.56845092773438;34.75863265991211;-5.6025543212890625;-3.08026123046875;-7.4001007080078125
1445421598673;282.63726806640625;-157.57493591308594;34.74921417236328;-5.5240936279296875;-3.0410308837890625;-7.4001007080078125
1445421598708;282.634033203125;-157.57540893554688;34.74388885498047;-5.4848785400390625;-3.02142333984375;-7.4785614013671875
1445421598739;282.5868225097656;-157.5903778076172;34.735660552978516;-5.5437164306640625;-2.9821929931640625;-7.4393310546875
1445421598772;282.56988525390625;-157.59291076660156;34.74647521972656;-5.6025543212890625;-3.0410308837890625;-7.360870361328125
1445421598805;282.5650329589844;-157.5824432373047;34.77497100830078;-5.5240936279296875;-3.02142333984375;-7.3216400146484375
1445421598838;282.4908142089844;-157.60403442382812;34.76747131347656;-5.5240936279296875;-3.0410308837890625;-7.5177764892578125
1445421598871;282.46533203125;-157.61199951171875;34.75214385986328;-5.5240936279296875;-3.08026123046875;-7.4393310546875
1445421598904;282.51324462890625;-157.58737182617188;34.740577697753906;-5.5437164306640625;-3.13909912109375;-7.4001007080078125
1445421598937;282.6301574707031;-157.53512573242188;34.73569107055664;-5.58294677734375;-3.19793701171875;-7.419708251953125
1445421598972;282.63861083984375;-157.52902221679688;34.73675537109375;-5.563323974609375;-3.13909912109375;-7.4981689453125
1445421599003;282.6584167480469;-157.525390625;34.723228454589844;-5.504486083984375;-3.1194915771484375;-7.4589385986328125
1445421599036;282.6258544921875;-157.53607177734375;34.74165725708008;-5.6025543212890625;-3.0606536865234375;-7.4001007080078125
1445421599070;282.57421875;-157.5525360107422;34.743045806884766;-5.6025543212890625;-3.0606536865234375;-7.4589385986328125
1445421599102;282.5213317871094;-157.5757598876953;34.725582122802734;-5.5437164306640625;-3.0410308837890625;-7.419708251953125
1445421599135;282.4591064453125;-157.60308837890625;34.70810317993164;-5.5240936279296875;-2.96258544921875;-7.360870361328125
1445421599169;282.444091796875;-157.6058807373047;34.706642150878906;-5.5437164306640625;-3.0018157958984375;-7.3412628173828125
1445421599200;282.45562744140625;-157.6029052734375;34.68635177612305;-5.504486083984375;-3.0410308837890625;-7.419708251953125
1445421599234;282.5715637207031;-157.56948852539062;34.666080474853516;-5.4652557373046875;-3.099884033203125;-7.4393310546875
1445421599268;282.6066589355469;-157.55584716796875;34.673484802246094;-5.5437164306640625;-3.0606536865234375;-7.4393310546875
1445421599300;282.78179931640625;-157.48648071289062;34.69596481323242;-5.58294677734375;-3.1783294677734375;-7.4393310546875
1445421599335;282.8621520996094;-157.45358276367188;34.71794509887695;-5.58294677734375;-3.13909912109375;-7.3804931640625
1445421599368;282.999267578125;-157.39218139648438;34.74888610839844;-5.6025543212890625;-3.158721923828125;-7.3804931640625
1445421599400;283.075439453125;-157.34872436523438;34.777462005615234;-5.6025543212890625;-3.13909912109375;-7.3804931640625
1445421599432;283.05548095703125;-157.3554229736328;34.78181838989258;-5.58294677734375;-3.0410308837890625;-7.4785614013671875
1445421599465;282.9068603515625;-157.41351318359375;34.78029251098633;-5.58294677734375;-3.0410308837890625;-7.4393310546875
1445421599498;282.856201171875;-157.4506072998047;34.771385192871094;-5.6025543212890625;-3.0606536865234375;-7.4393310546875
1445421599534;282.80230712890625;-157.49256896972656;34.76491165161133;-5.64178466796875;-3.0018157958984375;-7.4393310546875
1445421599563;282.73297119140625;-157.54193115234375;34.75491714477539;-5.622161865234375;-3.02142333984375;-7.3804931640625
1445421599598;282.6873474121094;-157.55686950683594;34.76884078979492;-5.622161865234375;-2.96258544921875;-7.4393310546875
1445421599630;282.6113586425781;-157.59597778320312;34.7415771484375;-5.58294677734375;-2.9429779052734375;-7.5177764892578125
1445421599664;282.6446533203125;-157.5863037109375;34.70534133911133;-5.58294677734375;-3.0018157958984375;-7.5962371826171875
1445421599696;282.6946105957031;-157.563232421875;34.78619384765625;-5.70062255859375;-3.0018157958984375;-7.4393310546875
1445421599729;282.9806823730469;-157.32815551757812;35.14420700073242;-5.81829833984375;-3.158721923828125;-7.243194580078125
1445421599763;283.25244140625;-157.0684814453125;35.41777038574219;-5.81829833984375;-3.217559814453125;-7.2628021240234375
1445421599795;283.2928161621094;-157.015625;35.45368576049805;-5.70062255859375;-3.3548583984375;-7.3412628173828125
1445421599829;283.3157653808594;-157.02880859375;35.35401153564453;-5.5437164306640625;-3.2371673583984375;-7.4393310546875
1445421599863;283.1811218261719;-157.2649688720703;35.25886154174805;-5.504486083984375;-3.1194915771484375;-7.3804931640625
1445421599894;283.161865234375;-157.36148071289062;35.248695373535156;-5.58294677734375;-3.1194915771484375;-7.2824249267578125
1445421599926;283.1178283691406;-157.50146484375;35.22288131713867;-5.70062255859375;-3.13909912109375;-7.3216400146484375
1445421599960;283.0680236816406;-157.55697631835938;35.193641662597656;-5.7398529052734375;-3.13909912109375;-7.2824249267578125
1445421599993;282.93792724609375;-157.59976196289062;35.02956771850586;-5.64178466796875;-3.13909912109375;-7.3804931640625
1445421600026;282.75390625;-157.58197021484375;34.80677795410156;-5.504486083984375;-3.08026123046875;-7.4981689453125
1445421600061;282.6647033691406;-157.5721893310547;34.73572540283203;-5.70062255859375;-2.9233551025390625;-7.4785614013671875
1445421600092;282.36224365234375;-157.61532592773438;34.73675537109375;-5.8575286865234375;-2.96258544921875;-7.5373992919921875
1445421600124;281.96044921875;-157.68878173828125;35.13068389892578;-6.073272705078125;-2.8645172119140625;-7.4589385986328125
1445421600157;281.5838623046875;-157.80711364746094;35.397727966308594;-6.0928802490234375;-2.84490966796875;-7.3804931640625
1445421600191;280.84234619140625;-158.10203552246094;35.66002655029297;-5.93597412109375;-3.099884033203125;-7.5177764892578125
1445421600224;280.4478454589844;-158.4002685546875;35.608543395996094;-5.190673828125;-3.1194915771484375;-7.6550750732421875
1445421600257;280.41131591796875;-158.56173706054688;35.47748565673828;-4.876861572265625;-2.9429779052734375;-7.4785614013671875
1445421600289;280.4720153808594;-158.88787841796875;34.89275360107422;-4.8964691162109375;-2.9233551025390625;-7.5373992919921875
1445421600323;280.470458984375;-159.00950622558594;34.49882125854492;-4.8964691162109375;-2.6095428466796875;-7.5766143798828125
1445421600355;280.4921569824219;-159.08641052246094;33.83877944946289;-5.2102813720703125;-2.6291656494140625;-7.5373992919921875
1445421600389;281.04888916015625;-158.83689880371094;33.40089797973633;-5.3671875;-3.13909912109375;-7.5962371826171875
1445421600422;281.3994140625;-158.4816436767578;33.27672576904297;-5.4848785400390625;-3.158721923828125;-7.5570068359375
1445421600455;281.617919921875;-158.23255920410156;33.2952880859375;-5.504486083984375;-3.2567901611328125;-7.5570068359375
1445421600488;281.8834228515625;-157.8891143798828;33.47816467285156;-5.64178466796875;-3.2371673583984375;-7.4785614013671875
1445421600521;281.9598083496094;-157.78871154785156;33.57972717285156;-5.622161865234375;-3.1194915771484375;-7.4001007080078125
1445421600555;281.9527587890625;-157.70819091796875;33.765625;-5.563323974609375;-3.0606536865234375;-7.5177764892578125
1445421600587;281.8122863769531;-157.757080078125;33.87867736816406;-5.58294677734375;-3.0410308837890625;-7.4785614013671875
1445421600619;281.7302551269531;-157.77725219726562;33.91917037963867;-5.6613922119140625;-3.0606536865234375;-7.5177764892578125
1445421600653;281.5545349121094;-157.81790161132812;33.9798698425293;-5.58294677734375;-3.0606536865234375;-7.5177764892578125
1445421600686;281.408935546875;-157.8997344970703;33.95266342163086;-5.426025390625;-3.1194915771484375;-7.6746826171875
1445421600718;281.32550048828125;-157.97280883789062;33.96332550048828;-5.4064178466796875;-3.0606536865234375;-7.5766143798828125
1445421600752;281.237060546875;-158.0667724609375;33.96346664428711;-5.308349609375;-3.08026123046875;-7.6158447265625
1445421600784;281.2361145019531;-158.0633087158203;33.98940658569336;-5.2691192626953125;-3.0606536865234375;-7.635467529296875
1445421600818;281.2455749511719;-158.04794311523438;34.0352897644043;-5.327972412109375;-3.02142333984375;-7.5962371826171875
1445421600851;281.3263854980469;-157.996826171875;34.186004638671875;-5.504486083984375;-3.02142333984375;-7.5177764892578125
1445421600884;281.4001770019531;-157.96815490722656;34.25966262817383;-5.6025543212890625;-3.0606536865234375;-7.5570068359375
1445421600918;281.4666442871094;-157.93397521972656;34.408782958984375;-5.58294677734375;-3.0606536865234375;-7.4785614013671875
1445421600950;281.47955322265625;-157.9273223876953;34.52906799316406;-5.70062255859375;-2.9821929931640625;-7.4785614013671875
1445421600983;281.43768310546875;-157.93988037109375;34.57439422607422;-5.64178466796875;-2.9429779052734375;-7.4589385986328125
1445421601016;281.43206787109375;-157.95135498046875;34.59450912475586;-5.5437164306640625;-3.0018157958984375;-7.4589385986328125
1445421601049;281.35870361328125;-158.0037841796875;34.590797424316406;-5.6025543212890625;-2.90374755859375;-7.5570068359375
1445421601082;281.34613037109375;-158.00672912597656;34.59314727783203;-5.5240936279296875;-2.9233551025390625;-7.4589385986328125
1445421601116;281.3537292480469;-157.97755432128906;34.579002380371094;-5.386810302734375;-3.0018157958984375;-7.5373992919921875
1445421601148;281.42608642578125;-157.92904663085938;34.602603912353516;-5.4064178466796875;-3.13909912109375;-7.4589385986328125
1445421601181;281.6862487792969;-157.79217529296875;34.73508834838867;-5.4064178466796875;-3.1783294677734375;-7.4393310546875
1445421601214;282.1420593261719;-157.6003875732422;34.9659309387207;-5.5240936279296875;-3.3744659423828125;-7.3804931640625
1445421601247;282.35333251953125;-157.51168823242188;35.11213684082031;-5.75946044921875;-3.276397705078125;-7.184356689453125
1445421601279;282.68353271484375;-157.36109924316406;35.44648361206055;-5.8575286865234375;-3.2567901611328125;-7.2628021240234375
1445421601313;282.7989807128906;-157.28187561035156;35.75877380371094;-5.93597412109375;-3.1194915771484375;-7.2039642333984375
1445421601349;282.7891845703125;-157.2608642578125;35.93381118774414;-5.8379058837890625;-3.02142333984375;-7.3412628173828125
1445421601379;282.7286071777344;-157.29315185546875;35.961631774902344;-5.8379058837890625;-2.9821929931640625;-7.4589385986328125
1445421601413;282.6199951171875;-157.35134887695312;35.99049758911133;-5.81829833984375;-2.9429779052734375;-7.3804931640625
1445421601446;282.50067138671875;-157.41082763671875;35.98417663574219;-5.81829833984375;-2.84490966796875;-7.4393310546875
1445421601481;282.2991027832031;-157.52928161621094;36.0023078918457;-5.7986907958984375;-2.84490966796875;-7.3412628173828125
1445421601511;282.1109924316406;-157.6112823486328;35.99812316894531;-5.7790679931640625;-2.9233551025390625;-7.3412628173828125
1445421601544;282.0695495605469;-157.6205596923828;35.97653579711914;-5.7398529052734375;-3.0018157958984375;-7.3216400146484375
1445421601577;281.9830322265625;-157.63319396972656;35.94635009765625;-5.7790679931640625;-3.0018157958984375;-7.302032470703125
1445421601610;281.9206848144531;-157.64822387695312;35.91334915161133;-5.7398529052734375;-3.0606536865234375;-7.3412628173828125
1445421601643;281.84832763671875;-157.65786743164062;35.851863861083984;-5.70062255859375;-3.02142333984375;-7.2824249267578125
1445421601676;281.70989990234375;-157.7050323486328;35.786964416503906;-5.680999755859375;-2.9821929931640625;-7.4393310546875
1445421601709;281.57269287109375;-157.75360107421875;35.758888244628906;-5.70062255859375;-2.9233551025390625;-7.3216400146484375
1445421601742;281.4482421875;-157.79733276367188;35.732200622558594;-5.7398529052734375;-2.90374755859375;-7.3412628173828125
1445421601775;281.47735595703125;-157.7645263671875;35.7354621887207;-5.8379058837890625;-3.0018157958984375;-7.360870361328125
1445421601808;281.5184631347656;-157.71994018554688;35.739776611328125;-5.81829833984375;-3.1194915771484375;-7.2628021240234375
1445421601842;281.7247314453125;-157.5921630859375;35.71607971191406;-5.70062255859375;-3.13909912109375;-7.3412628173828125
1445421601874;282.05364990234375;-157.40403747558594;35.67534637451172;-5.7202301025390625;-3.2567901611328125;-7.3412628173828125
1445421601907;282.3006896972656;-157.27735900878906;35.646751403808594;-5.7202301025390625;-3.3156280517578125;-7.360870361328125
1445421601940;282.76495361328125;-157.03392028808594;35.584590911865234;-5.6613922119140625;-3.2371673583984375;-7.3412628173828125
1445421601972;282.9531555175781;-156.93157958984375;35.509891510009766;-5.386810302734375;-3.1783294677734375;-7.3216400146484375
1445421602006;283.3090515136719;-156.73092651367188;35.383888244628906;-5.327972412109375;-3.158721923828125;-7.360870361328125
1445421602039;283.476318359375;-156.5939178466797;35.390628814697266;-5.680999755859375;-3.1194915771484375;-7.3412628173828125
1445421602072;283.5422668457031;-156.53858947753906;35.41454315185547;-5.75946044921875;-3.1194915771484375;-7.2824249267578125
1445421602105;283.64300537109375;-156.43463134765625;35.4693603515625;-5.7986907958984375;-3.1194915771484375;-7.302032470703125
1445421602138;283.7009582519531;-156.30746459960938;35.49977111816406;-6.0340423583984375;-3.1194915771484375;-7.10589599609375
1445421602171;283.7888488769531;-156.24453735351562;35.48625946044922;-5.93597412109375;-3.276397705078125;-7.184356689453125
1445421602204;283.98431396484375;-156.21401977539062;35.29949951171875;-5.8575286865234375;-3.3744659423828125;-7.243194580078125
1445421602237;284.0119323730469;-156.33969116210938;34.96049499511719;-5.445648193359375;-3.276397705078125;-7.3412628173828125
1445421602271;284.0147705078125;-156.37445068359375;34.79888153076172;-5.24951171875;-3.2960052490234375;-7.419708251953125
1445421602303;284.05328369140625;-156.37376403808594;34.595481872558594;-5.1710662841796875;-3.3156280517578125;-7.5570068359375
1445421602335;284.071044921875;-156.36605834960938;34.54585647583008;-5.24951171875;-3.3548583984375;-7.5766143798828125
1445421602369;284.1753234863281;-156.31521606445312;34.552513122558594;-5.2887420654296875;-3.3156280517578125;-7.4785614013671875
1445421602402;284.2577819824219;-156.25961303710938;34.692596435546875;-5.622161865234375;-3.276397705078125;-7.3804931640625
1445421602439;284.3045654296875;-156.2469024658203;34.882789611816406;-5.81829833984375;-3.2567901611328125;-7.302032470703125
1445421602468;284.27728271484375;-156.2750701904297;34.964515686035156;-5.87713623046875;-3.3156280517578125;-7.3216400146484375
1445421602501;284.09698486328125;-156.3857421875;35.05333709716797;-5.7398529052734375;-3.2567901611328125;-7.3412628173828125
1445421602535;283.9731140136719;-156.46604919433594;35.069480895996094;-5.70062255859375;-3.2567901611328125;-7.3412628173828125
1445421602567;283.76055908203125;-156.64666748046875;35.060123443603516;-5.70062255859375;-3.19793701171875;-7.4001007080078125
1445421602601;283.69891357421875;-156.71731567382812;35.035179138183594;-5.680999755859375;-3.2371673583984375;-7.4001007080078125
1445421602633;283.6296691894531;-156.84619140625;34.94318771362305;-5.680999755859375;-3.1783294677734375;-7.3804931640625
1445421602666;283.4820556640625;-157.04656982421875;34.811885833740234;-5.622161865234375;-3.0410308837890625;-7.360870361328125
1445421602699;283.4036865234375;-157.14541625976562;34.72755813598633;-5.6025543212890625;-2.96258544921875;-7.3216400146484375
1445421602732;283.1382141113281;-157.33599853515625;34.5934944152832;-5.563323974609375;-2.9233551025390625;-7.3412628173828125
1445421602764;282.9862976074219;-157.45408630371094;34.42927169799805;-5.5240936279296875;-3.0606536865234375;-7.360870361328125
1445421602799;282.974365234375;-157.48312377929688;34.33596420288086;-5.4652557373046875;-3.1194915771484375;-7.419708251953125
1445421602830;282.95062255859375;-157.55401611328125;34.127620697021484;-5.426025390625;-3.13909912109375;-7.4981689453125
1445421602864;282.9715881347656;-157.623291015625;33.88683319091797;-5.2887420654296875;-3.1194915771484375;-7.5373992919921875
1445421602897;283.0009765625;-157.6460418701172;33.7842903137207;-5.2102813720703125;-3.158721923828125;-7.5766143798828125
1445421602929;283.0794372558594;-157.6654052734375;33.62126922607422;-5.1710662841796875;-3.1783294677734375;-7.5373992919921875
1445421602963;283.0999755859375;-157.66265869140625;33.54492950439453;-5.190673828125;-3.1194915771484375;-7.5962371826171875
1445421602997;283.07891845703125;-157.6580047607422;33.55545425415039;-5.327972412109375;-3.0410308837890625;-7.5766143798828125
1445421603030;283.00543212890625;-157.6226348876953;33.70237350463867;-5.3671875;-3.02142333984375;-7.5177764892578125
1445421603062;283.0260314941406;-157.5774383544922;33.82415771484375;-5.58294677734375;-3.158721923828125;-7.4001007080078125
1445421603095;283.1431579589844;-157.47573852539062;34.0660400390625;-5.70062255859375;-3.1783294677734375;-7.4589385986328125
1445421603130;283.24969482421875;-157.4145965576172;34.26130676269531;-5.680999755859375;-3.1783294677734375;-7.419708251953125
1445421603163;283.3094787597656;-157.3903350830078;34.307342529296875;-5.563323974609375;-3.3156280517578125;-7.4393310546875
1445421603199;283.4376220703125;-157.36627197265625;34.32482147216797;-5.5437164306640625;-3.276397705078125;-7.4981689453125
1445421603229;283.41180419921875;-157.43270874023438;34.296478271484375;-5.4848785400390625;-3.158721923828125;-7.5177764892578125
1445421603260;283.3384704589844;-157.47996520996094;34.27122497558594;-5.3671875;-2.9429779052734375;-7.5373992919921875
1445421603293;283.0924072265625;-157.53494262695312;34.299354553222656;-5.426025390625;-2.884124755859375;-7.5373992919921875
1445421603326;283.03070068359375;-157.52467346191406;34.33791732788086;-5.622161865234375;-2.9821929931640625;-7.4785614013671875
1445421603359;282.98809814453125;-157.49713134765625;34.44384765625;-5.6025543212890625;-3.0018157958984375;-7.4393310546875
1445421603392;283.03076171875;-157.46478271484375;34.577491760253906;-5.680999755859375;-3.0410308837890625;-7.360870361328125
1445421603425;283.1361999511719;-157.40748596191406;34.64781188964844;-5.7398529052734375;-3.13909912109375;-7.302032470703125
1445421603458;283.13958740234375;-157.40875244140625;34.63644027709961;-5.7202301025390625;-3.13909912109375;-7.360870361328125
1445421603491;283.004150390625;-157.47474670410156;34.54304504394531;-5.622161865234375;-2.9821929931640625;-7.3216400146484375
1445421603524;282.9385986328125;-157.49765014648438;34.496116638183594;-5.64178466796875;-3.3744659423828125;-7.4589385986328125
1445421603557;283.1138916015625;-157.48001098632812;34.28937530517578;-5.386810302734375;-3.19793701171875;-7.5177764892578125
1445421603591;283.1700134277344;-157.54185485839844;34.019500732421875;-5.1514434814453125;-3.2960052490234375;-7.6158447265625
1445421603623;283.24212646484375;-157.5189971923828;33.93264389038086;-5.2299041748046875;-3.276397705078125;-7.5962371826171875
1445421603657;283.38079833984375;-157.4221954345703;33.87765884399414;-5.327972412109375;-3.2371673583984375;-7.5962371826171875
1445421603688;283.52093505859375;-157.33155822753906;33.8925895690918;-5.445648193359375;-3.2371673583984375;-7.5766143798828125
1445421603721;283.58282470703125;-157.31224060058594;33.908363342285156;-5.4652557373046875;-3.19793701171875;-7.5570068359375
1445421603755;283.5872802734375;-157.33645629882812;33.99497604370117;-5.64178466796875;-3.08026123046875;-7.4589385986328125
1445421603788;283.6507263183594;-157.3191375732422;34.08185577392578;-5.4848785400390625;-3.19793701171875;-7.302032470703125
1445421603821;283.7174987792969;-157.28128051757812;34.12267303466797;-5.4848785400390625;-3.2567901611328125;-7.4001007080078125
1445421603855;283.7551574707031;-157.24209594726562;34.18547439575195;-5.445648193359375;-3.19793701171875;-7.419708251953125
1445421603888;283.7594299316406;-157.20265197753906;34.236934661865234;-5.386810302734375;-3.1783294677734375;-7.4393310546875
1445421603920;283.7093505859375;-157.1908416748047;34.27558517456055;-5.4848785400390625;-3.08026123046875;-7.4001007080078125
1445421603953;283.55548095703125;-157.20159912109375;34.36013412475586;-5.6025543212890625;-3.0018157958984375;-7.419708251953125
1445421603991;283.4505920410156;-157.2346954345703;34.40225601196289;-5.7398529052734375;-3.02142333984375;-7.419708251953125
1445421604020;283.31787109375;-157.2946319580078;34.47303009033203;-5.70062255859375;-3.0410308837890625;-7.4785614013671875
1445421604051;283.2362060546875;-157.33697509765625;34.47476577758789;-5.5240936279296875;-2.96258544921875;-7.419708251953125
1445421604084;283.0729064941406;-157.41969299316406;34.43821716308594;-5.4652557373046875;-3.0606536865234375;-7.4785614013671875
1445421604119;283.0972900390625;-157.40713500976562;34.381099700927734;-5.5240936279296875;-3.158721923828125;-7.5373992919921875
1445421604150;283.1216735839844;-157.4208984375;34.292301177978516;-5.4064178466796875;-3.08026123046875;-7.5373992919921875
1445421604185;283.07373046875;-157.45285034179688;34.24203872680664;-5.3671875;-3.02142333984375;-7.5177764892578125
1445421604218;283.06378173828125;-157.4178009033203;34.24467468261719;-5.5437164306640625;-3.08026123046875;-7.419708251953125
1445421604250;283.2242736816406;-157.35459899902344;34.22346115112305;-5.6613922119140625;-3.3156280517578125;-7.4981689453125
1445421604285;283.265625;-157.37115478515625;34.155418395996094;-5.5240936279296875;-3.2960052490234375;-7.4981689453125
1445421604316;283.18975830078125;-157.4358673095703;34.05973434448242;-5.2887420654296875;-3.08026123046875;-7.4589385986328125
1445421604349;283.1769104003906;-157.4496307373047;34.02869415283203;-5.3475799560546875;-3.19793701171875;-7.5177764892578125
1445421604383;283.204833984375;-157.4507293701172;33.9334716796875;-5.3475799560546875;-3.13909912109375;-7.5177764892578125
1445421604415;283.14141845703125;-157.4517364501953;33.86772537231445;-5.3475799560546875;-3.0606536865234375;-7.5373992919921875
1445421604448;283.124755859375;-157.43800354003906;33.84378433227539;-5.426025390625;-3.08026123046875;-7.4981689453125
1445421604481;283.1026611328125;-157.38148498535156;33.856536865234375;-5.504486083984375;-3.13909912109375;-7.5373992919921875
1445421604514;283.0115966796875;-157.32591247558594;33.87885665893555;-5.4652557373046875;-3.099884033203125;-7.4589385986328125
1445421604547;282.9323425292969;-157.30401611328125;33.874568939208984;-5.4652557373046875;-3.0606536865234375;-7.419708251953125
1445421604580;282.7505798339844;-157.25440979003906;33.89725112915039;-5.622161865234375;-3.099884033203125;-7.4393310546875
1445421604613;282.678955078125;-157.22708129882812;33.92350769042969;-5.426025390625;-3.158721923828125;-7.3412628173828125
1445421604646;282.6317138671875;-157.1306915283203;33.8603401184082;-5.327972412109375;-3.2567901611328125;-7.4589385986328125
1445421604679;282.5366516113281;-157.17953491210938;33.60940170288086;-5.0926055908203125;-3.19793701171875;-7.5962371826171875
1445421604712;282.5244445800781;-157.2295684814453;33.463714599609375;-5.190673828125;-3.0606536865234375;-7.5766143798828125
1445421604746;282.449462890625;-157.32273864746094;33.38215255737305;-5.308349609375;-3.08026123046875;-7.5962371826171875
1445421604779;282.52557373046875;-157.3726348876953;33.46125793457031;-5.426025390625;-3.099884033203125;-7.5373992919921875
1445421604811;282.5767517089844;-157.38739013671875;33.54182434082031;-5.504486083984375;-3.08026123046875;-7.4001007080078125
1445421604844;282.6534423828125;-157.3997344970703;33.72581100463867;-5.5437164306640625;-3.08026123046875;-7.419708251953125
1445421604879;282.75030517578125;-157.35626220703125;33.853858947753906;-5.563323974609375;-3.217559814453125;-7.4001007080078125
1445421604910;282.86358642578125;-157.29302978515625;33.87226104736328;-5.504486083984375;-3.335235595703125;-7.4785614013671875
1445421604944;282.9967041015625;-157.2128143310547;33.86385726928711;-5.4064178466796875;-3.2960052490234375;-7.5570068359375
1445421604976;283.01898193359375;-157.21067810058594;33.83303451538086;-5.2887420654296875;-3.276397705078125;-7.4981689453125
1445421605009;283.1292724609375;-157.2197265625;33.76656723022461;-5.3671875;-3.276397705078125;-7.4589385986328125
1445421605042;283.1932678222656;-157.25558471679688;33.69733428955078;-5.308349609375;-3.2371673583984375;-7.5373992919921875
1445421605075;283.18621826171875;-157.2734375;33.68037414550781;-5.24951171875;-3.099884033203125;-7.5766143798828125
1445421605107;283.0331726074219;-157.33377075195312;33.73020553588867;-5.308349609375;-3.02142333984375;-7.4785614013671875
1445421605141;282.8228759765625;-157.3690643310547;33.89588165283203;-5.504486083984375;-3.0018157958984375;-7.4393310546875
1445421605175;282.72979736328125;-157.36502075195312;33.99443054199219;-5.58294677734375;-3.0018157958984375;-7.4589385986328125
1445421605207;282.6420593261719;-157.3206329345703;34.176177978515625;-5.64178466796875;-3.08026123046875;-7.3804931640625
1445421605240;282.70947265625;-157.2725830078125;34.30774688720703;-5.64178466796875;-3.1194915771484375;-7.360870361328125
1445421605276;282.7911376953125;-157.24237060546875;34.332855224609375;-5.5437164306640625;-3.158721923828125;-7.360870361328125
1445421605306;282.9822082519531;-157.1887664794922;34.33573532104492;-5.6613922119140625;-3.19793701171875;-7.4785614013671875
1445421605340;282.9657897949219;-157.27835083007812;34.23527145385742;-5.426025390625;-3.13909912109375;-7.419708251953125
1445421605372;282.9388122558594;-157.29977416992188;34.18977737426758;-5.3671875;-3.1194915771484375;-7.419708251953125
1445421605405;282.9373779296875;-157.26133728027344;34.162689208984375;-5.680999755859375;-3.2371673583984375;-7.4785614013671875
1445421605437;282.9993591308594;-157.2539520263672;34.124874114990234;-5.4064178466796875;-3.2371673583984375;-7.5177764892578125
1445421605472;282.9695739746094;-157.348388671875;33.974124908447266;-5.2691192626953125;-3.158721923828125;-7.4785614013671875
1445421605505;282.964599609375;-157.3175811767578;33.98059844970703;-5.327972412109375;-3.099884033203125;-7.4785614013671875
1445421605539;282.94989013671875;-157.32192993164062;34.0222282409668;-5.5240936279296875;-3.1194915771484375;-7.5766143798828125
1445421605570;282.95465087890625;-157.32249450683594;34.031463623046875;-5.4848785400390625;-3.13909912109375;-7.5177764892578125
1445421605603;282.87060546875;-157.3426971435547;34.035343170166016;-5.426025390625;-3.02142333984375;-7.5177764892578125
1445421605637;282.859130859375;-157.34246826171875;34.066383361816406;-5.58294677734375;-3.158721923828125;-7.4981689453125
1445421605669;282.8807678222656;-157.314208984375;34.139122009277344;-5.58294677734375;-3.158721923828125;-7.4393310546875
1445421605702;282.8685302734375;-157.3054656982422;34.147796630859375;-5.5437164306640625;-3.13909912109375;-7.5177764892578125
1445421605736;282.8197326660156;-157.32705688476562;34.133331298828125;-5.5240936279296875;-3.1194915771484375;-7.4393310546875
1445421605768;282.7574462890625;-157.37551879882812;34.10758972167969;-5.4652557373046875;-3.1194915771484375;-7.4785614013671875
1445421605800;282.73126220703125;-157.39065551757812;34.10013961791992;-5.563323974609375;-3.1783294677734375;-7.4981689453125
1445421605835;282.7062683105469;-157.40711975097656;34.104347229003906;-5.5240936279296875;-3.099884033203125;-7.4785614013671875
1445421605867;282.65191650390625;-157.45127868652344;34.100341796875;-5.445648193359375;-3.0606536865234375;-7.4589385986328125
1445421605901;282.63427734375;-157.45559692382812;34.10413360595703;-5.426025390625;-3.099884033203125;-7.5177764892578125
1445421605933;282.5982360839844;-157.469970703125;34.107177734375;-5.4652557373046875;-3.0606536865234375;-7.4785614013671875
1445421605965;282.5927734375;-157.4753875732422;34.11203384399414;-5.445648193359375;-3.1194915771484375;-7.4981689453125
1445421605998;282.7117919921875;-157.44570922851562;34.10224151611328;-5.5240936279296875;-3.1783294677734375;-7.4589385986328125
1445421606032;282.8096008300781;-157.42149353027344;34.12009048461914;-5.5437164306640625;-3.1194915771484375;-7.419708251953125
1445421606068;282.6932067871094;-157.46932983398438;34.15581512451172;-5.680999755859375;-3.0018157958984375;-7.4981689453125
1445421606098;282.706787109375;-157.45811462402344;34.1984977722168;-5.6613922119140625;-3.1783294677734375;-7.4785614013671875
1445421606130;282.67315673828125;-157.4433135986328;34.36393356323242;-5.680999755859375;-3.0410308837890625;-7.419708251953125
1445421606164;282.57977294921875;-157.40304565429688;34.56557846069336;-5.7398529052734375;-3.217559814453125;-7.4001007080078125
1445421606196;282.57977294921875;-157.38507080078125;34.712825775146484;-5.7398529052734375;-3.276397705078125;-7.5373992919921875
1445421606231;282.3713684082031;-157.5061798095703;34.93389129638672;-5.58294677734375;-3.0606536865234375;-7.3804931640625
1445421606263;282.2907409667969;-157.5745391845703;34.98094177246094;-5.504486083984375;-3.1194915771484375;-7.4785614013671875
1445421606298;282.354248046875;-157.625;34.960655212402344;-5.445648193359375;-3.19793701171875;-7.5177764892578125
1445421606329;282.5260925292969;-157.65182495117188;34.851356506347656;-5.386810302734375;-3.0606536865234375;-7.3804931640625
1445421606362;282.5018615722656;-157.70065307617188;34.795528411865234;-5.4064178466796875;-2.884124755859375;-7.5177764892578125
1445421606396;282.4302062988281;-157.7344207763672;34.79328155517578;-5.426025390625;-2.9429779052734375;-7.360870361328125
1445421606430;282.4170227050781;-157.64405822753906;34.85004425048828;-5.563323974609375;-3.0606536865234375;-7.3216400146484375
1445421606463;282.3494873046875;-157.60479736328125;34.88755416870117;-5.5437164306640625;-3.02142333984375;-7.3804931640625
1445421606494;282.19268798828125;-157.56967163085938;34.958133697509766;-5.563323974609375;-3.0018157958984375;-7.3412628173828125
1445421606527;282.09979248046875;-157.58572387695312;34.99580764770508;-5.504486083984375;-3.02142333984375;-7.4393310546875
1445421606559;282.0716552734375;-157.6286163330078;35.0261344909668;-5.4848785400390625;-3.099884033203125;-7.4589385986328125
1445421606592;282.0960693359375;-157.67791748046875;34.97394943237305;-5.4064178466796875;-3.02142333984375;-7.5962371826171875
1445421606627;282.164306640625;-157.69122314453125;34.93145751953125;-5.2887420654296875;-3.099884033203125;-7.5177764892578125
1445421606659;282.45391845703125;-157.7157745361328;34.783103942871094;-5.308349609375;-3.1194915771484375;-7.4785614013671875
1445421606691;282.5981140136719;-157.7808380126953;34.61381530761719;-5.5240936279296875;-2.9429779052734375;-7.302032470703125
1445421606725;282.61297607421875;-157.7860870361328;34.58134078979492;-5.7202301025390625;-2.96258544921875;-7.3216400146484375
1445421606758;282.67138671875;-157.69264221191406;34.445838928222656;-5.6025543212890625;-3.1194915771484375;-7.4393310546875
1445421606792;282.76220703125;-157.5162811279297;34.20426940917969;-5.64178466796875;-3.2371673583984375;-7.5373992919921875
1445421606826;282.7801513671875;-157.463134765625;34.11765670776367;-5.3475799560546875;-3.0018157958984375;-7.4001007080078125
1445421606857;282.739013671875;-157.48719787597656;33.95180892944336;-5.4652557373046875;-3.0606536865234375;-7.4981689453125
1445421606890;282.7830505371094;-157.5316162109375;33.829833984375;-5.5240936279296875;-3.158721923828125;-7.5570068359375
1445421606922;282.7789611816406;-157.583984375;33.86168670654297;-5.563323974609375;-3.099884033203125;-7.360870361328125
1445421606956;282.529296875;-157.8381805419922;34.03053665161133;-5.563323974609375;-2.9233551025390625;-7.4393310546875
1445421606990;282.41949462890625;-157.9726104736328;33.95579147338867;-5.386810302734375;-3.13909912109375;-7.7139129638671875
1445421607022;282.43682861328125;-157.97315979003906;33.90382766723633;-5.4652557373046875;-3.19793701171875;-7.7139129638671875
1445421607055;282.53839111328125;-157.90281677246094;33.9277229309082;-5.426025390625;-3.2371673583984375;-7.6158447265625
1445421607088;282.5397033691406;-157.87147521972656;33.9671516418457;-5.445648193359375;-3.08026123046875;-7.5570068359375
1445421607121;282.344482421875;-157.83175659179688;34.151554107666016;-5.563323974609375;-2.9233551025390625;-7.419708251953125
1445421607155;282.10687255859375;-157.82937622070312;34.30203628540039;-5.680999755859375;-2.90374755859375;-7.3804931640625
1445421607187;282.0172424316406;-157.85047912597656;34.3166618347168;-5.6025543212890625;-2.9429779052734375;-7.4589385986328125
1445421607220;281.8724365234375;-157.93496704101562;34.30962371826172;-5.622161865234375;-2.90374755859375;-7.4785614013671875
1445421607255;281.81939697265625;-157.98428344726562;34.283504486083984;-5.58294677734375;-3.0018157958984375;-7.4785614013671875
1445421607296;282.004638671875;-157.97149658203125;34.27845764160156;-5.58294677734375;-3.099884033203125;-7.5177764892578125
1445421607318;282.0823974609375;-157.9413299560547;34.274009704589844;-5.5240936279296875;-3.158721923828125;-7.4981689453125
1445421607356;282.1463623046875;-157.9024200439453;34.2237663269043;-5.4652557373046875;-3.13909912109375;-7.4981689453125
1445421607393;282.18353271484375;-157.88748168945312;34.13875961303711;-5.3671875;-3.1194915771484375;-7.5177764892578125
1445421607418;282.1877136230469;-157.8966522216797;34.09117889404297;-5.386810302734375;-3.0606536865234375;-7.4981689453125
1445421607456;282.20526123046875;-157.90647888183594;34.02947235107422;-5.426025390625;-3.08026123046875;-7.5177764892578125
1445421607492;282.20977783203125;-157.91159057617188;34.0237922668457;-5.4848785400390625;-3.0606536865234375;-7.5177764892578125
1445421607517;282.20721435546875;-157.91033935546875;34.03919982910156;-5.4652557373046875;-3.0606536865234375;-7.4981689453125
1445421607558;282.14227294921875;-157.92796325683594;34.06441116333008;-5.4848785400390625;-3.1194915771484375;-7.5177764892578125
1445421607590;282.1656799316406;-157.9088897705078;34.105384826660156;-5.5240936279296875;-3.19793701171875;-7.4785614013671875
1445421607616;282.03314208984375;-157.9044952392578;34.21392822265625;-5.680999755859375;-3.099884033203125;-7.5177764892578125
1445421607655;281.90533447265625;-157.83074951171875;34.32695770263672;-5.4848785400390625;-3.08026123046875;-7.4785614013671875
1445421607690;281.8551330566406;-157.80075073242188;34.35382080078125;-5.445648193359375;-3.0606536865234375;-7.419708251953125
1445421607714;281.7586669921875;-157.79071044921875;34.344486236572266;-5.5437164306640625;-3.13909912109375;-7.4589385986328125
1445421607752;281.7447509765625;-157.79342651367188;34.34947204589844;-5.58294677734375;-3.1194915771484375;-7.419708251953125
1445421607781;281.6793518066406;-157.80128479003906;34.422019958496094;-5.5240936279296875;-3.08026123046875;-7.4393310546875
1445421607823;281.48260498046875;-157.84475708007812;34.45882034301758;-5.58294677734375;-2.9821929931640625;-7.419708251953125
1445421607848;281.35589599609375;-157.87294006347656;34.482608795166016;-5.7398529052734375;-2.9821929931640625;-7.5962371826171875
1445421607949;280.95147705078125;-157.7415008544922;35.927791595458984;-6.2301788330078125;-3.19793701171875;-7.2039642333984375
1445421607958;280.80023193359375;-157.74853515625;36.19753646850586;-6.014434814453125;-3.4136962890625;-7.6158447265625
1445421607982;280.6140441894531;-157.77523803710938;36.5151481628418;-5.75946044921875;-3.452911376953125;-7.694305419921875
1445421608015;280.3678894042969;-157.88584899902344;36.853797912597656;-5.6613922119140625;-3.19793701171875;-7.4001007080078125
1445421608049;279.42730712890625;-158.38107299804688;37.37307357788086;-5.4848785400390625;-3.02142333984375;-7.811981201171875
1445421608082;278.67816162109375;-158.89862060546875;37.913902282714844;-5.327972412109375;-2.825286865234375;-7.3804931640625
1445421608115;278.48504638671875;-159.14926147460938;38.136619567871094;-5.386810302734375;-2.7272186279296875;-7.360870361328125
1445421608147;278.21783447265625;-159.52243041992188;38.53818130493164;-5.504486083984375;-2.766448974609375;-7.4001007080078125
1445421608183;278.2900390625;-159.6559600830078;38.93716812133789;-6.0536651611328125;-2.825286865234375;-7.4001007080078125
1445421608213;278.255859375;-159.7994384765625;39.223228454589844;-6.249786376953125;-2.197662353515625;-6.8901519775390625
1445421608246;277.640625;-160.2733612060547;40.02318572998047;-6.3478546142578125;-1.9819183349609375;-6.87054443359375
1445421608280;277.09375;-160.65850830078125;40.607582092285156;-6.4066925048828125;-2.079986572265625;-7.066680908203125
1445421608313;276.9555358886719;-160.84283447265625;40.76127624511719;-6.3282470703125;-2.0407562255859375;-6.9686126708984375
1445421608347;276.7867736816406;-161.279541015625;40.91603469848633;-6.642059326171875;-2.0603790283203125;-6.792083740234375
1445421608379;276.60711669921875;-161.5967254638672;40.840023040771484;-6.700897216796875;-2.276123046875;-6.92938232421875
1445421608412;276.53564453125;-161.6550750732422;40.831268310546875;-6.700897216796875;-2.3545684814453125;-6.92938232421875
1445421608446;276.3780517578125;-161.75135803222656;40.7777099609375;-6.4263153076171875;-2.2957305908203125;-6.81170654296875
1445421608478;276.26141357421875;-161.80357360839844;40.545101165771484;-6.132110595703125;-2.1780548095703125;-6.9489898681640625
1445421608512;276.0636291503906;-161.83091735839844;39.65518569946289;-6.1125030517578125;-2.276123046875;-6.98822021484375
1445421608543;276.13885498046875;-161.7364044189453;38.652259826660156;-6.1517181396484375;-2.2368927001953125;-6.6351776123046875
