sep=;
timestamp;gyro-alpha;gyro-beta;gyro-gamma;accel-x;accel-y;accel-z
1445509732970;121.74456787109375;-122.42488861083984;5.35925817489624;0.7717742919921875;-8.238555908203125;-0.751190185546875
1445509733002;115.61585998535156;-130.53329467773438;2.7216622829437256;3.2430419921875;-5.8849639892578125;0.562896728515625
1445509733036;113.19012451171875;-133.6588897705078;1.2488930225372314;2.929229736328125;-4.904296875;0.641357421875
1445509733069;109.70068359375;-137.74484252929688;-1.546048879623413;2.5958099365234375;-1.8642425537109375;0.1706390380859375
1445509733101;108.41253662109375;-137.66900634765625;-2.158806085586548;1.53668212890625;-0.824737548828125;-2.7125244140625
1445509733135;108.2530517578125;-136.18516540527344;-2.0832483768463135;2.0858612060546875;-1.962310791015625;-4.3208160400390625
1445509733168;107.5848388671875;-130.52589416503906;-1.197701096534729;5.086700439453125;-8.728897094726562;-3.8108673095703125
1445509733200;108.20722961425781;-127.13824462890625;0.010586793534457684;3.1645965576171875;-14.573654174804688;-1.6337890625
1445509733234;112.21540832519531;-119.70990753173828;3.0104262828826904;2.164306640625;-12.47503662109375;-2.4771575927734375
1445509733266;116.17417907714844;-112.03784942626953;4.120779991149902;1.18365478515625;-9.081939697265625;-0.6531219482421875
1445509733299;118.64297485351562;-108.19941711425781;3.8258681297302246;1.47784423828125;-10.847137451171875;-0.1039581298828125
1445509733332;123.96697998046875;-100.90967559814453;2.3284103870391846;2.0074005126953125;-12.396575927734375;-0.9669342041015625
1445509733365;127.78485107421875;-95.11860656738281;1.7811475992202759;0.654083251953125;-10.729446411132812;-1.12384033203125
1445509733400;128.50033569335938;-92.56059265136719;1.8628902435302734;-0.3069610595703125;-10.7686767578125;-1.378814697265625
1445509733431;130.8251190185547;-88.77437591552734;1.713808298110962;-2.91552734375;-11.004043579101562;-0.3785400390625
1445509733463;134.7693634033203;-85.28702545166016;2.588914394378662;-0.0519866943359375;-9.395751953125;-1.75146484375
1445509733497;136.0560302734375;-83.86214447021484;2.7974178791046143;2.43890380859375;-9.199615478515625;-2.2221832275390625
1445509733531;137.49073791503906;-81.62983703613281;2.5523757934570312;0.7717742919921875;-9.513427734375;-1.319976806640625
1445509733564;139.394775390625;-79.80760955810547;1.5877031087875366;-0.34619140625;-9.533035278320312;-0.1627960205078125
1445509733596;139.39573669433594;-78.84759521484375;0.8781302571296692;-0.9934234619140625;-10.396026611328125;0.30792236328125
1445509733631;138.05685424804688;-76.59857940673828;-0.9299078583717346;-0.2481231689453125;-11.121719360351562;0.445220947265625
1445509733663;137.3444366455078;-75.33356475830078;-1.999520182609558;1.928955078125;-15.593551635742188;0.7394256591796875
1445509733698;136.61521911621094;-72.9476089477539;-3.7274348735809326;2.242767333984375;-15.868133544921875;-0.4177703857421875
1445509733730;136.1398162841797;-73.38456726074219;-4.2422308921813965;2.0858612060546875;-14.102935791015625;-2.6732940673828125
1445509733765;134.25790405273438;-78.29608917236328;-3.319394588470459;1.9485626220703125;-12.769241333007812;-4.968048095703125
1445509733798;132.88644409179688;-81.91107940673828;-2.680582284927368;1.556304931640625;-13.828353881835938;-5.61529541015625
1445509733827;132.65380859375;-90.67814636230469;-1.0220775604248047;0.595245361328125;-17.907913208007812;-2.7321319580078125
1445509733864;134.1381072998047;-95.12158203125;0.4703526198863983;1.438629150390625;-15.3189697265625;4.544403076171875
1445509733893;133.9085693359375;-101.2710952758789;2.9510653018951416;2.183929443359375;-12.631942749023438;5.3093109130859375
1445509733927;130.59214782714844;-106.4167709350586;5.25278377532959;0.7521514892578125;-10.494094848632812;2.3477020263671875
1445509733959;127.42739868164062;-110.41553497314453;6.333484649658203;0.5560302734375;-11.239395141601562;-1.7906951904296875
1445509733992;117.39036560058594;-120.1954574584961;5.656821250915527;0.595245361328125;-11.690505981445312;-2.281036376953125
1445509734027;112.62677001953125;-125.18733978271484;4.248446941375732;2.0270233154296875;-7.2775115966796875;1.50433349609375
1445509734059;106.16375732421875;-133.5056610107422;0.7670770287513733;2.9488525390625;-4.3747406005859375;1.8573760986328125
1445509734091;102.8037109375;-138.44781494140625;-2.6261675357818604;2.8311614990234375;-0.74627685546875;1.56317138671875
1445509734124;102.05596923828125;-139.68714904785156;-3.4991018772125244;2.2623748779296875;0.50897216796875;-0.751190185546875
1445509734157;102.74594116210938;-139.3011016845703;-2.79801607131958;2.360443115234375;0.0970916748046875;-2.908660888671875
1445509734190;104.29698181152344;-135.241455078125;-1.6424022912979126;4.007965087890625;-3.2567901611328125;-6.98822021484375
1445509734223;104.56304931640625;-132.5243682861328;-0.7580825686454773;4.439453125;-8.277786254882812;-6.1252288818359375
1445509734256;107.62045288085938;-126.4561538696289;1.721261739730835;3.890289306640625;-11.572830200195312;-3.5558929443359375
1445509734289;110.89804077148438;-119.63602447509766;3.454984426498413;3.262664794921875;-8.925033569335938;-1.261138916015625
1445509734322;113.96429443359375;-115.8049545288086;3.8129782676696777;3.1645965576171875;-10.278350830078125;-0.4177703857421875
1445509734355;120.91177368164062;-107.5086669921875;3.784404754638672;1.6347503662109375;-12.220062255859375;0.4256134033203125
1445509734389;124.18916320800781;-103.22447967529297;3.939643621444702;-0.150054931640625;-12.435806274414062;-0.88848876953125
1445509734421;128.06796264648438;-95.25798034667969;4.505497455596924;-0.3657989501953125;-12.41619873046875;-0.82965087890625
1445509734454;129.64418029785156;-91.39786529541016;4.449849605560303;-1.8760223388671875;-11.259017944335938;-0.77081298828125
1445509734487;130.6759033203125;-89.7688980102539;4.368875503540039;-1.8956451416015625;-10.415634155273438;-0.1039581298828125
1445509734521;134.6338653564453;-85.53968811035156;4.943343639373779;0.34027099609375;-10.042984008789062;-0.94732666015625
1445509734553;137.38162231445312;-82.04932403564453;4.809189319610596;2.164306640625;-8.866195678710938;-1.5553436279296875
1445509734588;137.83163452148438;-80.88259887695312;4.58369779586792;0.4579620361328125;-8.787734985351562;-1.202301025390625
1445509734620;139.60122680664062;-79.28047943115234;3.872985601425171;-0.85614013671875;-8.650436401367188;-0.4177703857421875
1445509734652;139.18740844726562;-77.98311614990234;2.7420101165771484;-0.640380859375;-9.788009643554688;-0.2608642578125
1445509734687;138.66635131835938;-77.30573272705078;2.1685714721679688;-0.718841552734375;-9.866470336914062;-0.3393096923828125
1445509734718;138.0861358642578;-75.46981048583984;1.232467770576477;1.2032623291015625;-13.318405151367188;1.38665771484375
1445509734754;138.0946044921875;-74.38777923583984;0.900800883769989;3.4784088134765625;-15.358184814453125;-1.12384033203125
1445509734784;138.4795379638672;-73.56269073486328;0.20576845109462738;2.55657958984375;-15.5543212890625;-2.4183197021484375
1445509734818;137.53163146972656;-76.14430236816406;0.4766673147678375;0.0068511962890625;-13.828353881835938;-3.9677734375
1445509734852;136.60934448242188;-78.89655303955078;1.0058175325393677;-1.3072357177734375;-13.749893188476562;-3.6735687255859375
1445509734883;136.17356872558594;-85.69454956054688;2.2047810554504395;-2.032928466796875;-14.259841918945312;-2.5948486328125
1445509734916;138.58181762695312;-92.1845703125;4.0186238288879395;-0.85614013671875;-13.377243041992188;-0.2804718017578125
1445509734949;138.6083221435547;-94.62109375;4.796260356903076;-0.01275634765625;-11.415924072265625;1.582794189453125
1445509734982;136.32969665527344;-98.87445831298828;5.811143398284912;1.732818603515625;-8.179718017578125;3.6225738525390625
1445509735015;132.4549560546875;-103.62293243408203;6.90472412109375;0.8894500732421875;-10.121444702148438;-2.1241302490234375
1445509735048;129.2112579345703;-107.2508773803711;6.81427526473999;2.125091552734375;-11.259017944335938;-2.32025146484375
1445509735082;121.57057189941406;-114.68379211425781;5.755128383636475;1.222869873046875;-7.9051361083984375;1.50433349609375
1445509735115;116.40306091308594;-119.77963256835938;4.600499153137207;1.0071258544921875;-2.9233551025390625;2.46539306640625
1445509735149;114.602783203125;-120.61200714111328;4.07665491104126;1.2817230224609375;-1.7465667724609375;2.4850006103515625
1445509735181;113.04678344726562;-119.39505004882812;3.8578338623046875;1.9485626220703125;-0.765899658203125;1.7789306640625
1445509735214;112.89126586914062;-117.54026794433594;3.928128480911255;1.7720489501953125;-3.9236297607421875;-2.8694305419921875
1445509735246;112.56185913085938;-113.18441772460938;4.565088272094727;0.22259521484375;-9.748779296875;-7.4981689453125
1445509735280;111.69140625;-112.07766723632812;3.329897403717041;6.0477447509765625;-13.828353881835938;-10.479385375976562
1445509735313;110.43896484375;-111.49724578857422;2.6935858726501465;2.2035369873046875;-11.180557250976562;-7.5766143798828125
1445509735345;113.17927551269531;-110.77479553222656;3.654391288757324;5.949676513671875;-12.612335205078125;-0.005889892578125
1445509735379;119.43061828613281;-107.6153793334961;4.723938941955566;3.4784088134765625;-8.003204345703125;4.6424713134765625
1445509735411;123.57574462890625;-105.310546875;4.522641658782959;2.32122802734375;-8.120880126953125;5.681976318359375
1445509735445;125.03369140625;-99.89620208740234;3.5516843795776367;-0.2481231689453125;-13.436080932617188;4.6816864013671875
1445509735479;122.6849365234375;-97.13954162597656;3.3131816387176514;-2.484039306640625;-11.729736328125;1.2297515869140625
1445509735510;122.43087768554688;-95.44367980957031;3.4037623405456543;-3.0135955810546875;-11.043258666992188;-1.3592071533203125
1445509735544;125.58366394042969;-91.41473388671875;4.777978420257568;-1.8760223388671875;-10.474472045898438;-0.6727447509765625
1445509735577;127.95742797851562;-89.33275604248047;5.643926620483398;2.0858612060546875;-8.571990966796875;-1.319976806640625
1445509735610;130.75413513183594;-85.26738739013672;5.7048869132995605;2.8899993896484375;-8.728897094726562;-1.2219085693359375
1445509735642;132.5562286376953;-82.5018310546875;5.004213333129883;-0.6207733154296875;-10.670608520507812;-1.084625244140625
1445509735676;134.11097717285156;-81.34046936035156;4.755555629730225;-0.7580718994140625;-10.8275146484375;-1.574951171875
1445509735708;135.75238037109375;-79.62490844726562;4.319461822509766;-1.5818328857421875;-10.611770629882812;-0.751190185546875
1445509735741;135.8069610595703;-79.08690643310547;3.9574639797210693;0.026458740234375;-10.02337646484375;0.8571014404296875
1445509735774;136.61529541015625;-77.62471771240234;2.603929042816162;0.8109893798828125;-11.16094970703125;1.9750518798828125
1445509735807;137.37876892089844;-75.6173095703125;1.1924165487289429;2.0858612060546875;-15.083602905273438;2.1123504638671875
1445509735841;137.8346710205078;-74.95864868164062;0.19919605553150177;1.791656494140625;-16.338851928710938;0.1706390380859375
1445509735873;137.58319091796875;-75.69730377197266;-0.06539224833250046;1.36016845703125;-15.730850219726562;-1.12384033203125
1445509735906;136.2388916015625;-79.44917297363281;0.055520910769701004;0.6148681640625;-12.690780639648438;-3.28131103515625
1445509735940;135.34210205078125;-82.24574279785156;0.4648677706718445;0.1441497802734375;-12.847686767578125;-3.830474853515625
1445509735973;134.7882080078125;-89.16493225097656;1.5431058406829834;-0.1108245849609375;-15.063995361328125;-2.4183197021484375
1445509736005;135.8700408935547;-96.5550537109375;2.6512198448181152;0.8502197265625;-14.80902099609375;1.3474273681640625
1445509736038;136.23033142089844;-99.6234359741211;3.32887601852417;1.8897247314453125;-11.27862548828125;1.700469970703125
1445509736071;137.92962646484375;-104.94918823242188;6.410585403442383;0.6933135986328125;-10.925582885742188;-1.1042327880859375
1445509736104;136.9805145263672;-108.3821029663086;8.03635311126709;1.0267486572265625;-11.21978759765625;-2.08489990234375
1445509736138;128.39915466308594;-116.74980926513672;8.086343765258789;0.22259521484375;-10.788284301757812;-1.4180450439453125
1445509736170;120.03012084960938;-127.04209899902344;5.544364929199219;-0.640380859375;-7.669769287109375;-0.1627960205078125
1445509736204;116.67965698242188;-131.47052001953125;3.4425244331359863;2.5173492431640625;-4.590484619140625;0.2294769287109375
1445509736236;111.82357788085938;-138.0002899169922;-0.9983851313591003;2.164306640625;-3.5117645263671875;0.445220947265625
1445509736270;109.5010986328125;-141.2765350341797;-3.4963595867156982;2.2035369873046875;-1.6681060791015625;0.01373291015625
1445509736302;109.03472900390625;-141.66334533691406;-3.7072176933288574;1.8897247314453125;-2.0407562255859375;-3.6343536376953125
1445509736336;108.43223571777344;-140.6258087158203;-4.022826194763184;1.5170745849609375;-2.766448974609375;-5.1641845703125
1445509736369;105.91285705566406;-136.99307250976562;-5.716200351715088;3.6745452880859375;-9.3369140625;-2.8302001953125
1445509736403;104.29415893554688;-134.7841796875;-5.812651634216309;3.7137603759765625;-11.16094970703125;-1.261138916015625
1445509736436;105.20561218261719;-128.9532012939453;-2.600020170211792;3.2822723388671875;-9.709564208984375;-1.378814697265625
1445509736467;106.82228088378906;-125.36524963378906;-0.6263101100921631;4.3413848876953125;-10.8275146484375;-0.88848876953125
1445509736503;112.40945434570312;-117.65631103515625;1.665058970451355;3.321502685546875;-10.670608520507812;-0.2608642578125
1445509736533;119.614013671875;-109.17733001708984;2.55888295173645;1.0071258544921875;-11.33746337890625;-0.0254974365234375
1445509736566;122.71272277832031;-105.09245300292969;2.638312578201294;-0.3069610595703125;-11.376693725585938;-1.6337890625
1445509736600;125.49974060058594;-98.63642120361328;2.197165012359619;-0.718841552734375;-10.866744995117188;-2.006439208984375
1445509736632;125.0198974609375;-95.18755340576172;1.1322661638259888;-2.307525634765625;-10.121444702148438;-1.18267822265625
1445509736665;126.06588745117188;-93.64473724365234;1.3741899728775024;-3.3862457275390625;-9.768402099609375;-0.9080963134765625
1445509736700;130.3759307861328;-89.2531509399414;2.983964204788208;-0.542327880859375;-9.670333862304688;-2.14373779296875
1445509736732;131.37600708007812;-85.7885513305664;3.1717798709869385;2.10546875;-9.866470336914062;-2.457550048828125
1445509736765;131.545166015625;-84.61202239990234;2.901646137237549;0.1441497802734375;-11.141326904296875;-1.06500244140625
1445509736797;131.92689514160156;-82.59042358398438;1.8030030727386475;0.1245269775390625;-11.78857421875;-0.300079345703125
1445509736830;129.30026245117188;-81.04534912109375;0.31281739473342896;-0.8757476806640625;-12.063156127929688;-0.3981475830078125
1445509736863;127.63583374023438;-80.457275390625;-0.5373064279556274;-0.9934234619140625;-12.435806274414062;-0.77081298828125
1445509736898;125.81317138671875;-79.51054382324219;-2.344440460205078;-0.1304473876953125;-15.6131591796875;-0.7119598388671875
1445509736929;125.04934692382812;-79.69470977783203;-3.2119429111480713;1.9485626220703125;-13.436080932617188;-3.3597564697265625
1445509736962;124.16838073730469;-81.30512237548828;-2.7569241523742676;2.7919464111328125;-13.2791748046875;-3.8108673095703125
1445509736997;121.83601379394531;-86.96930694580078;-1.245816946029663;2.61541748046875;-14.063705444335938;-4.0070037841796875
1445509737029;120.69259643554688;-90.84101104736328;-0.672724187374115;1.3209381103515625;-16.06427001953125;-0.1039581298828125
1445509737061;120.95809936523438;-99.71455383300781;1.1539685726165771;0.8109893798828125;-16.593826293945312;1.7985382080078125
1445509737096;122.87063598632812;-104.78299713134766;4.579415321350098;0.7521514892578125;-12.043548583984375;2.092742919921875
1445509737127;121.21063232421875;-107.16499328613281;5.4597601890563965;0.8306121826171875;-9.984146118164062;0.8571014404296875
1445509737160;112.78131103515625;-115.59368133544922;5.171878337860107;0.0853118896484375;-9.866470336914062;-0.300079345703125
1445509737194;103.9122314453125;-126.14210510253906;2.618726968765259;0.0068511962890625;-8.846572875976562;-0.6138916015625
1445509737230;100.48812866210938;-131.18295288085938;0.5400967001914978;2.49774169921875;-5.9438018798828125;-0.1627960205078125
1445509737260;95.55810546875;-139.1930389404297;-4.222598552703857;2.752716064453125;-4.865081787109375;0.4844512939453125
1445509737292;93.013916015625;-143.5509490966797;-7.5226054191589355;3.3018798828125;-2.472259521484375;1.2297515869140625
1445509737325;92.67083740234375;-144.6837921142578;-7.878958702087402;3.0861358642578125;-1.3150634765625;0.07257080078125
1445509737358;92.37091064453125;-144.40798950195312;-7.0872015953063965;2.3996734619140625;-1.452362060546875;-4.163909912109375
1445509737391;91.93740844726562;-143.15199279785156;-6.602097034454346;1.6543731689453125;-3.2960052490234375;-7.1451263427734375
1445509737424;90.8990478515625;-138.32814025878906;-5.490178108215332;2.7723236083984375;-5.9241943359375;-8.576904296875
1445509737457;91.5906982421875;-133.29818725585938;-2.9983339309692383;3.556854248046875;-13.063430786132812;-3.261688232421875
1445509737491;92.68081665039062;-130.76602172851562;-1.273218035697937;4.32177734375;-6.3360748291015625;-1.8691558837890625
1445509737524;97.65631103515625;-124.2062759399414;2.271470546722412;4.6159820556640625;-7.179443359375;-0.82965087890625
1445509737556;107.6439208984375;-115.97863006591797;4.643044948577881;2.1446990966796875;-11.651275634765625;0.58251953125
1445509737589;112.748046875;-111.22103881835938;5.726067543029785;-1.09149169921875;-12.847686767578125;0.386383056640625
1445509737622;119.81069946289062;-102.14881134033203;7.336733818054199;-2.17022705078125;-11.729736328125;-2.281036376953125
1445509737655;122.97293090820312;-95.70677947998047;7.106410503387451;-2.032928466796875;-10.788284301757812;-2.32025146484375
1445509737688;123.62249755859375;-94.15778350830078;6.387638092041016;-1.738739013671875;-10.8275146484375;-0.2020263671875
1445509737722;124.09805297851562;-92.05781555175781;5.356407642364502;-1.6406707763671875;-10.219512939453125;-1.1042327880859375
1445509737754;128.50367736816406;-88.2029037475586;5.748634338378906;-1.4445343017578125;-9.317291259765625;-2.4379425048828125
1445509737787;130.26495361328125;-86.35042572021484;5.938906669616699;0.026458740234375;-9.219223022460938;-1.1042327880859375
1445509737820;131.9209442138672;-83.95244598388672;5.807288646697998;-0.718841552734375;-9.631103515625;-0.2608642578125
1445509737853;132.98619079589844;-83.18741607666016;5.5660295486450195;-0.3657989501953125;-9.768402099609375;0.445220947265625
1445509737886;132.51080322265625;-82.51469421386719;4.5371809005737305;-0.228515625;-9.434967041015625;-0.7119598388671875
1445509737920;131.1508331298828;-81.16246032714844;3.0308003425598145;-0.7580718994140625;-10.905975341796875;0.4844512939453125
1445509737952;130.819091796875;-80.16761016845703;2.047602415084839;2.10546875;-14.573654174804688;0.935546875
1445509737986;130.11062622070312;-77.97618865966797;0.22108867764472961;1.105194091796875;-16.986099243164062;0.24908447265625
1445509738021;128.87734985351562;-77.62535858154297;-0.9516854882240295;2.55657958984375;-15.417037963867188;-3.22247314453125
1445509738050;128.09303283691406;-79.0453109741211;-1.2083944082260132;2.32122802734375;-13.926422119140625;-3.712799072265625
1445509738083;126.21517944335938;-83.5643081665039;-1.0068780183792114;0.4383392333984375;-12.828079223632812;-5.1445770263671875
1445509738117;124.69219970703125;-91.17431640625;-0.0680030882358551;-0.6796112060546875;-15.201278686523438;-4.026611328125
1445509738151;125.76055908203125;-95.32178497314453;1.0190238952636719;-0.4442596435546875;-16.025039672851562;-1.3984375
1445509738183;127.16786193847656;-101.28996276855469;3.3426949977874756;1.6543731689453125;-12.35736083984375;1.7985382080078125
1445509738217;126.40177917480469;-106.10113525390625;5.110028266906738;1.1444244384765625;-9.317291259765625;3.6225738525390625
1445509738249;124.46322631835938;-109.13713073730469;5.643476486206055;0.16375732421875;-10.101821899414062;-0.182403564453125
1445509738282;117.07070922851562;-117.36043548583984;5.25113582611084;1.0267486572265625;-10.690231323242188;-3.144012451171875
1445509738316;113.17929077148438;-121.88493347167969;4.345068454742432;0.026458740234375;-9.748779296875;-0.6138916015625
1445509738348;106.84951782226562;-130.6902313232422;1.8572520017623901;1.7132110595703125;-7.7874603271484375;-0.515838623046875
1445509738381;102.51272583007812;-137.8478240966797;-1.319164514541626;3.3999481201171875;-4.4924163818359375;-0.2020263671875
1445509738415;101.14285278320312;-140.22032165527344;-2.6594746112823486;3.0861358642578125;-3.217559814453125;0.1706390380859375
1445509738447;99.92391967773438;-142.07699584960938;-3.3865792751312256;2.49774169921875;-1.82501220703125;-0.6531219482421875
1445509738480;99.90521240234375;-140.55657958984375;-2.728696584701538;2.066253662109375;-1.94268798828125;-4.0658416748046875
1445509738513;99.834716796875;-138.26173400878906;-2.5688459873199463;1.9093475341796875;-2.6291656494140625;-6.92938232421875
1445509738547;100.3499755859375;-131.6140899658203;-0.38242000341415405;3.5372467041015625;-12.9849853515625;-6.9686126708984375
1445509738580;102.82562255859375;-125.32721710205078;2.3104050159454346;2.125091552734375;-14.024490356445312;-3.536285400390625
1445509738612;103.65570068359375;-122.59512329101562;3.2261037826538086;2.10546875;-7.9835968017578125;-3.3205413818359375
1445509738647;108.81013488769531;-116.3584213256836;4.3537211418151855;3.92950439453125;-7.4148101806640625;-0.123565673828125
1445509738678;112.88665771484375;-112.76433563232422;4.199357509613037;1.5955352783203125;-12.59271240234375;-0.5942840576171875
1445509738711;120.83746337890625;-105.0175552368164;4.831242084503174;0.3991241455078125;-12.59271240234375;-1.319976806640625
1445509738744;125.64628601074219;-97.99238586425781;5.820981502532959;-0.58154296875;-10.003753662109375;-1.2415313720703125
1445509738780;126.91632080078125;-95.57467651367188;5.673766613006592;-2.0721588134765625;-10.415634155273438;-1.6533966064453125
1445509738810;126.64215087890625;-93.1218032836914;4.483994960784912;-2.28790283203125;-10.160659790039062;-1.261138916015625
1445509738843;128.0985870361328;-90.4941177368164;4.264632701873779;-3.36663818359375;-10.003753662109375;-0.1039581298828125
1445509738876;130.25503540039062;-88.68817901611328;4.827794075012207;-1.7583465576171875;-10.160659790039062;-1.4768829345703125
1445509738909;133.23341369628906;-85.45413208007812;5.082634925842285;2.1446990966796875;-9.650726318359375;-1.7318572998046875
1445509738943;134.9894256591797;-83.48149108886719;4.607395172119141;0.2029876708984375;-10.14105224609375;-1.4180450439453125
1445509738975;136.02194213867188;-82.68773651123047;4.245290756225586;-0.3657989501953125;-9.709564208984375;-0.4766082763671875
1445509739008;136.12118530273438;-81.28023529052734;3.2405827045440674;-1.1307220458984375;-9.944915771484375;0.4844512939453125
1445509739041;135.68603515625;-80.58333587646484;2.5729894638061523;0.22259521484375;-12.29852294921875;0.386383056640625
1445509739074;135.19003295898438;-78.53459167480469;0.6056458950042725;1.2817230224609375;-12.9261474609375;0.641357421875
1445509739107;135.50701904296875;-76.24637603759766;-1.2496668100357056;1.2621002197265625;-16.18194580078125;0.7198028564453125
1445509739141;135.4131622314453;-75.66221618652344;-1.7801809310913086;1.41900634765625;-13.534149169921875;-2.3006439208984375
1445509739173;134.07553100585938;-77.50690460205078;-1.8003720045089722;1.1444244384765625;-12.847686767578125;-3.595123291015625
1445509739206;131.4602813720703;-82.71019744873047;-0.9596523642539978;0.28143310546875;-14.75018310546875;-5.595672607421875
1445509739243;130.79066467285156;-86.64108276367188;-0.4135493338108063;-0.9934234619140625;-16.436920166015625;-2.5948486328125
1445509739272;136.4996795654297;-94.7637939453125;2.3268449306488037;0.0656890869140625;-16.201568603515625;0.8571014404296875
1445509739305;140.00656127929688;-100.10970306396484;4.9591145515441895;3.2430419921875;-11.945480346679688;3.857940673828125
1445509739338;139.9124298095703;-102.10586547851562;5.694299697875977;3.262664794921875;-10.31756591796875;2.3673248291015625
1445509739371;135.1767120361328;-108.56520080566406;6.459995269775391;0.3206634521484375;-10.925582885742188;-1.810302734375
1445509739404;131.02401733398438;-113.44514465332031;5.689175128936768;0.1441497802734375;-10.160659790039062;-1.4180450439453125
1445509739436;123.96965026855469;-123.15809631347656;2.9246938228607178;0.1245269775390625;-9.081939697265625;-0.4766082763671875
1445509739470;119.563232421875;-131.96922302246094;-0.7955445051193237;2.2819976806640625;-5.8653564453125;-0.1431732177734375
1445509739505;118.16696166992188;-135.4403533935547;-2.7854557037353516;2.360443115234375;-4.865081787109375;0.052947998046875
1445509739537;116.764892578125;-139.87228393554688;-5.644863605499268;2.8507843017578125;-2.9233551025390625;0.1510162353515625
1445509739570;117.03265380859375;-141.0511932373047;-5.937739372253418;2.4585113525390625;-2.4134063720703125;-1.1630706787109375
1445509739605;117.73658752441406;-140.88406372070312;-5.433036804199219;2.301605224609375;-2.256500244140625;-5.0661163330078125
1445509739636;119.68359375;-138.52345275878906;-4.159195423126221;2.67425537109375;-3.452911376953125;-6.615570068359375
1445509739668;121.33786010742188;-132.8504638671875;-2.052449941635132;1.0071258544921875;-11.141326904296875;-6.92938232421875
1445509739701;121.94210815429688;-129.86648559570312;0.047775473445653915;0.16375732421875;-15.162063598632812;-9.224136352539062
1445509739736;124.21263122558594;-124.39340209960938;3.672189950942993;2.32122802734375;-11.925857543945312;-3.477447509765625
1445509739767;125.40835571289062;-122.03146362304688;5.17267370223999;4.7336578369140625;-6.0026397705078125;-1.12384033203125
1445509739801;132.77906799316406;-115.97706604003906;8.419967651367188;5.145538330078125;-6.944091796875;0.30792236328125
1445509739834;144.8434600830078;-107.36331176757812;9.323007583618164;2.301605224609375;-12.121994018554688;0.4648284912109375
1445509739866;150.7200164794922;-102.7265396118164;9.698890686035156;-0.4638671875;-12.376968383789062;-0.6138916015625
1445509739899;159.61749267578125;-94.6021499633789;10.339628219604492;-1.3660736083984375;-11.062881469726562;-0.123565673828125
1445509739933;166.40109252929688;-88.01337432861328;10.31958293914795;-2.8174591064453125;-10.396026611328125;0.7198028564453125
1445509739965;169.13502502441406;-86.03704833984375;10.015971183776855;-3.42547607421875;-10.670608520507812;0.5432891845703125
1445509739998;175.0933074951172;-83.49986267089844;8.929909706115723;-4.425750732421875;-10.494094848632812;-0.064727783203125
1445509740031;185.19744873046875;-80.14543151855469;8.19399356842041;-2.974365234375;-10.396026611328125;0.19024658203125
1445509740064;189.87750244140625;-78.42214965820312;7.786394119262695;-1.4837646484375;-10.180282592773438;-1.810302734375
1445509740097;195.3189697265625;-76.30107116699219;6.520389080047607;0.654083251953125;-9.00347900390625;-0.7315826416015625
1445509740131;199.244873046875;-75.38575744628906;5.3877177238464355;-3.7785186767578125;-8.846572875976562;0.19024658203125
1445509740163;200.8072509765625;-75.35906982421875;4.769054412841797;-3.54315185546875;-8.983871459960938;-0.1431732177734375
1445509740198;203.39404296875;-75.99189758300781;3.2488458156585693;-1.9348602294921875;-9.886077880859375;-0.4962158203125
1445509740229;204.49786376953125;-76.35464477539062;2.386589527130127;-0.85614013671875;-10.611770629882812;0.13140869140625
1445509740263;207.14471435546875;-76.79705047607422;0.9121983051300049;0.1441497802734375;-10.8863525390625;0.4256134033203125
1445509740298;210.75250244140625;-77.11241149902344;-0.6213979721069336;1.928955078125;-13.298797607421875;1.4062652587890625
1445509740330;212.4661865234375;-77.50184631347656;-1.2292022705078125;0.5167999267578125;-13.55377197265625;0.759033203125
1445509740363;215.16903686523438;-79.04801940917969;-1.8865299224853516;2.1446990966796875;-12.828079223632812;-1.437652587890625
1445509740398;218.63009643554688;-82.07855224609375;-2.5899829864501953;2.635040283203125;-10.8863525390625;-2.7321319580078125
1445509740427;221.6572265625;-84.32711029052734;-3.068418264389038;2.3996734619140625;-10.042984008789062;-1.5357208251953125
1445509740460;230.69003295898438;-87.98966217041016;-3.8850884437561035;2.0858612060546875;-10.101821899414062;1.26898193359375
1445509740493;237.928466796875;-90.0061264038086;-4.772536277770996;2.32122802734375;-8.905410766601562;0.4059906005859375
1445509740526;240.27288818359375;-90.72532653808594;-5.770349502563477;3.1253662109375;-8.395462036132812;-0.241241455078125
1445509740559;244.54879760742188;-92.2051010131836;-8.153586387634277;1.497467041015625;-7.7678375244140625;0.1706390380859375
1445509740592;247.50311279296875;-92.88292694091797;-9.028892517089844;-0.0716094970703125;-6.5322113037109375;0.58251953125
1445509740625;253.1646728515625;-93.48580169677734;-10.365057945251465;0.04608154296875;-6.238006591796875;0.386383056640625
1445509740657;257.880615234375;-93.10331726074219;-11.595121383666992;-0.0716094970703125;-6.355682373046875;-0.1431732177734375
1445509740692;260.0076904296875;-92.83039855957031;-12.118268966674805;-0.4442596435546875;-6.5714263916015625;-0.5550537109375
1445509740725;263.07843017578125;-91.88999938964844;-12.828679084777832;-0.777679443359375;-7.3363494873046875;-1.496490478515625
1445509740757;265.61798095703125;-90.58882904052734;-12.594019889831543;-1.522979736328125;-9.258453369140625;-3.653961181640625
1445509740790;267.35675048828125;-89.94416046142578;-12.22189712524414;-0.836517333984375;-10.219512939453125;-4.59539794921875
1445509740824;270.7812805175781;-88.52304077148438;-11.495983123779297;2.32122802734375;-12.043548583984375;-5.3406982421875
1445509740856;274.1895751953125;-87.78811645507812;-10.658496856689453;3.1842041015625;-14.044097900390625;-3.7520294189453125
1445509740890;276.4160461425781;-87.89155578613281;-10.219472885131836;3.7922210693359375;-16.868408203125;-0.5942840576171875
1445509740922;282.78790283203125;-87.55743408203125;-9.677103996276855;1.850494384765625;-11.33746337890625;1.249359130859375
1445509740956;286.5967712402344;-88.47684478759766;-9.672323226928711;-1.6406707763671875;-9.081939697265625;5.799652099609375
1445509740988;294.800537109375;-90.28433227539062;-8.841093063354492;-1.3856964111328125;-10.8275146484375;3.9363861083984375
1445509741021;296.2208251953125;-88.23756408691406;-7.979822158813477;-0.718841552734375;-10.866744995117188;3.4852752685546875
1445509741087;298.447265625;-83.85772705078125;-7.113521575927734;-1.0718841552734375;-10.101821899414062;-2.281036376953125
1445509741054;296.1806945800781;-86.5699462890625;-7.4648919105529785;-1.2680206298828125;-9.984146118164062;0.621734619140625
1445509741120;302.2027282714844;-83.25753021240234;-7.142104625701904;-1.1307220458984375;-9.493820190429688;-0.6531219482421875
1445509741153;301.8170166015625;-82.68110656738281;-7.062708854675293;-1.464141845703125;-9.631103515625;-0.8492584228515625
1445509741187;299.9377746582031;-81.58943176269531;-6.718874454498291;-2.5821075439453125;-10.19989013671875;-1.8691558837890625
1445509741219;299.21807861328125;-81.29129791259766;-6.484469890594482;-1.6602783203125;-9.866470336914062;-2.26141357421875
1445509741252;298.7271728515625;-81.14488220214844;-6.063625335693359;-1.346466064453125;-9.807632446289062;-2.37908935546875
1445509741286;298.4062805175781;-82.44559478759766;-5.797115325927734;-0.7972869873046875;-8.473922729492188;-2.9282684326171875
1445509741318;298.325439453125;-85.22601318359375;-6.677246570587158;1.3797760009765625;-7.0029296875;0.4648284912109375
1445509741352;298.4678955078125;-86.37994384765625;-7.730896949768066;2.3408355712890625;-7.0813751220703125;0.9747772216796875
1445509741384;299.73626708984375;-89.62549591064453;-9.983771324157715;2.2623748779296875;-8.1993408203125;-1.3592071533203125
1445509741417;301.11187744140625;-91.92649841308594;-10.82780647277832;-1.20916748046875;-8.4935302734375;-1.7318572998046875
1445509741450;303.2914733886719;-95.85685729980469;-11.920799255371094;-2.4448089599609375;-8.630828857421875;-1.2219085693359375
1445509741483;302.16796875;-101.48794555664062;-13.067232131958008;-3.503936767578125;-9.140777587890625;-6.478271484375
1445509741516;299.5665283203125;-105.11914825439453;-14.067859649658203;-0.5619354248046875;-16.69189453125;-3.536285400390625
1445509741549;298.5352783203125;-113.02350616455078;-14.358481407165527;2.7723236083984375;-22.6739501953125;-1.6141815185546875
1445509741582;299.0388488769531;-119.71583557128906;-12.018281936645508;4.635589599609375;-18.496322631835938;-2.1045074462890625
1445509741615;297.8612365722656;-122.44499206542969;-10.96133804321289;4.066802978515625;-19.1435546875;-3.6343536376953125
1445509741648;296.0390625;-126.2694091796875;-10.274373054504395;1.7132110595703125;-10.847137451171875;-1.5553436279296875
1445509741681;293.85809326171875;-127.54315185546875;-10.440032005310059;2.301605224609375;-6.120330810546875;0.386383056640625
1445509741714;293.58233642578125;-127.0038833618164;-9.944782257080078;2.8311614990234375;-4.2570648193359375;0.9747772216796875
1445509741748;294.7391052246094;-123.94987487792969;-8.912075996398926;2.988067626953125;-1.628875732421875;0.4059906005859375
1445509741780;295.7879638671875;-121.44145965576172;-8.531431198120117;1.8897247314453125;-2.021148681640625;0.24908447265625
1445509741813;297.7510986328125;-114.95028686523438;-8.40269947052002;1.0659637451171875;-3.5313720703125;-0.064727783203125
1445509741846;300.4329528808594;-109.33645629882812;-8.700695991516113;-0.032379150390625;-9.944915771484375;-3.4970550537109375
1445509741880;301.39630126953125;-108.38844299316406;-9.065431594848633;0.1441497802734375;-12.455429077148438;-5.4583892822265625
1445509741915;299.3089599609375;-107.23384857177734;-10.3424711227417;0.3795013427734375;-10.494094848632812;-3.653961181640625
1445509741950;301.7748107910156;-104.37183380126953;-8.938552856445312;0.8894500732421875;-9.00347900390625;-2.32025146484375
1445509741979;303.79302978515625;-103.19884490966797;-8.035805702209473;2.0858612060546875;-9.68994140625;-2.1633453369140625
1445509742017;304.3562927246094;-99.5911636352539;-7.425925254821777;2.988067626953125;-12.553482055664062;-3.7324066162109375
1445509742049;302.9296569824219;-95.1836929321289;-7.3304548263549805;3.3999481201171875;-17.633331298828125;-2.5359954833984375
1445509742077;303.8639831542969;-93.98755645751953;-6.735894203186035;3.2430419921875;-17.633331298828125;-1.574951171875
1445509742110;309.6993408203125;-93.9267349243164;-5.608850002288818;-1.0522613525390625;-16.456527709960938;-1.810302734375
1445509742145;312.1143798828125;-95.76057434082031;-5.272369384765625;-3.30780029296875;-6.55181884765625;8.525894165039062
1445509742176;318.65740966796875;-97.88847351074219;-3.5773215293884277;-3.6412200927734375;-10.042984008789062;8.800491333007812
1445509742210;316.1134033203125;-94.68669891357422;-2.9098713397979736;0.22259521484375;-12.318130493164062;2.2888641357421875
1445509742241;312.3177490234375;-91.74703216552734;-3.032092809677124;1.615142822265625;-9.709564208984375;-3.45782470703125
1445509742275;312.2197265625;-89.06922149658203;-3.631814956665039;0.6933135986328125;-9.611495971679688;-3.085174560546875
1445509742308;311.60565185546875;-88.08517456054688;-4.243220806121826;-0.8757476806640625;-9.415359497070312;-2.8890380859375
1445509742341;309.9463195800781;-87.51033782958984;-4.2764506340026855;-2.2486724853515625;-9.591873168945312;-2.908660888671875
1445509742374;308.54693603515625;-87.16513061523438;-3.7237658500671387;-2.621337890625;-9.180007934570312;-3.39898681640625
1445509742407;308.2508239746094;-87.6139144897461;-3.736894130706787;-0.287353515625;-7.68939208984375;-0.5550537109375
1445509742441;307.8523254394531;-88.58296966552734;-4.34316873550415;0.026458740234375;-7.826690673828125;-0.4569854736328125
1445509742473;308.34625244140625;-90.28717041015625;-5.295161247253418;-0.3657989501953125;-7.552093505859375;0.24908447265625
1445509742507;308.4778137207031;-91.12627410888672;-5.679306983947754;-1.4445343017578125;-9.160385131835938;-0.2216339111328125
1445509742539;309.90338134765625;-93.23798370361328;-6.1361541748046875;-1.1895599365234375;-9.434967041015625;-1.712249755859375
1445509742572;310.6508483886719;-96.57343292236328;-7.22896671295166;0.4383392333984375;-10.7686767578125;-4.8699798583984375
1445509742608;310.8825378417969;-98.66783142089844;-8.117833137512207;0.2029876708984375;-9.552658081054688;-4.53656005859375
1445509742638;308.5597229003906;-105.81591033935547;-11.28248405456543;0.3206634521484375;-9.670333862304688;-4.8307647705078125
1445509742671;305.2152099609375;-114.32038116455078;-14.162211418151855;-0.267730712890625;-16.436920166015625;-2.8105926513671875
1445509742705;304.3296813964844;-118.07948303222656;-13.990788459777832;0.359893798828125;-21.418701171875;-0.064727783203125
1445509742741;301.6689147949219;-123.80491638183594;-13.067822456359863;2.360443115234375;-16.456527709960938;-1.9279937744140625
1445509742771;300.84967041015625;-127.16082000732422;-12.673894882202148;3.4195709228515625;-9.493820190429688;-1.00616455078125
1445509742804;301.08319091796875;-127.5226821899414;-12.03590202331543;2.7723236083984375;-6.296844482421875;-0.3981475830078125
1445509742837;300.5957336425781;-125.82106018066406;-11.167850494384766;1.438629150390625;-4.9435272216796875;0.445220947265625
1445509742871;300.5089111328125;-123.88871002197266;-10.829827308654785;2.242767333984375;-4.1786041259765625;-0.751190185546875
1445509742903;301.932861328125;-118.5059814453125;-10.27903938293457;2.419281005859375;-4.590484619140625;-1.319976806640625
1445509742936;303.651611328125;-113.36323547363281;-10.565979957580566;0.869842529296875;-7.7286224365234375;-3.5558929443359375
1445509742971;303.52056884765625;-110.90780639648438;-10.584677696228027;0.0853118896484375;-9.238845825195312;-3.9481658935546875
1445509743001;302.3921813964844;-109.96212005615234;-10.362797737121582;0.04608154296875;-9.081939697265625;-3.9481658935546875
1445509743034;299.62738037109375;-106.54986572265625;-9.547860145568848;1.046356201171875;-8.356246948242188;-2.9282684326171875
1445509743067;300.3189697265625;-104.85187530517578;-8.69405460357666;1.732818603515625;-8.650436401367188;-2.065277099609375
1445509743100;303.4158630371094;-102.17660522460938;-6.93085241317749;1.9093475341796875;-9.984146118164062;-1.75146484375
1445509743133;302.349365234375;-98.93391418457031;-5.615897178649902;2.242767333984375;-10.278350830078125;-1.5945587158203125
1445509743167;301.2607421875;-96.55796813964844;-5.414680004119873;3.7725982666015625;-12.749618530273438;-4.9876708984375
1445509743200;304.072265625;-94.52256774902344;-6.043155193328857;4.8709564208984375;-14.495208740234375;-0.82965087890625
1445509743233;306.362548828125;-93.47403717041016;-6.9830193519592285;2.7723236083984375;-23.92919921875;-0.2216339111328125
1445509743265;307.66973876953125;-92.70321655273438;-6.633388519287109;-4.3473052978515625;-18.417861938476562;-2.6144561767578125
1445509743300;311.108642578125;-94.72885131835938;-4.295041561126709;-6.583221435546875;-7.7286224365234375;5.93695068359375
1445509743331;312.6392822265625;-94.98802947998047;-3.0274298191070557;-0.8169097900390625;-10.847137451171875;5.466217041015625
1445509743365;310.767578125;-91.97927856445312;-1.998401165008545;1.2817230224609375;-12.141616821289062;2.0338897705078125
1445509743398;305.71246337890625;-87.565673828125;-2.144744873046875;3.262664794921875;-9.788009643554688;-2.7909698486328125
1445509743430;305.977294921875;-86.92589569091797;-2.9111931324005127;0.6737060546875;-8.709274291992188;-3.9481658935546875
1445509743465;306.20281982421875;-87.02457427978516;-4.1441192626953125;-1.287628173828125;-8.5523681640625;-3.7520294189453125
1445509743497;305.4770812988281;-87.95770263671875;-4.02982234954834;-3.229339599609375;-8.062042236328125;-2.575225830078125
1445509743529;305.1518859863281;-88.6118392944336;-4.026167869567871;-2.5624847412109375;-7.552093505859375;-1.75146484375
1445509743562;304.1009826660156;-90.22987365722656;-4.81793212890625;-0.5619354248046875;-6.9636993408203125;-0.0254974365234375
1445509743596;302.8726806640625;-92.13948059082031;-5.966156005859375;-0.0716094970703125;-7.669769287109375;-0.4373779296875
1445509743628;302.7962341308594;-92.887451171875;-6.15127420425415;-0.8169097900390625;-8.787734985351562;0.1706390380859375
1445509743664;304.247802734375;-94.4157485961914;-5.624456882476807;-3.033203125;-10.807907104492188;-3.7520294189453125
1445509743693;304.5572509765625;-96.52916717529297;-5.739544868469238;-1.169952392578125;-11.043258666992188;-8.812255859375
1445509743727;302.4923095703125;-103.71894073486328;-8.339183807373047;1.5170745849609375;-12.200454711914062;-7.5766143798828125
1445509743760;300.1162109375;-112.92765808105469;-11.84877872467041;3.831451416015625;-17.31951904296875;-2.9871063232421875
1445509743795;298.6938781738281;-116.81444549560547;-11.965736389160156;-0.7580718994140625;-18.57476806640625;0.58251953125
1445509743826;296.51416015625;-121.92367553710938;-10.297947883605957;0.34027099609375;-16.044662475585938;0.19024658203125
1445509743859;295.4776306152344;-124.91959381103516;-10.098542213439941;3.63531494140625;-9.356521606445312;0.07257080078125
1445509743892;295.8114013671875;-125.3775863647461;-9.664047241210938;2.811553955078125;-6.3360748291015625;0.13140869140625
1445509743926;297.4407653808594;-123.16128540039062;-8.401933670043945;1.046356201171875;-3.6098175048828125;1.32781982421875
1445509743958;299.45477294921875;-118.23670196533203;-8.036125183105469;0.7717742919921875;-4.39434814453125;0.3471527099609375
1445509743992;298.4709167480469;-114.6376724243164;-8.760581970214844;0.6148681640625;-5.4534759521484375;-0.1627960205078125
1445509744024;292.13067626953125;-107.20423126220703;-10.044271469116211;0.0068511962890625;-7.3951873779296875;-0.5354461669921875
1445509744057;288.7114562988281;-104.34903717041016;-10.218656539916992;2.988067626953125;-11.062881469726562;-7.0274505615234375
1445509744090;287.9793395996094;-102.31660461425781;-9.257254600524902;2.7919464111328125;-10.513702392578125;-5.987945556640625
1445509744123;288.330078125;-98.10095977783203;-7.470630645751953;2.38006591796875;-10.474472045898438;-3.889312744140625
1445509744156;288.70941162109375;-96.76222229003906;-6.850390434265137;2.183929443359375;-9.219223022460938;-1.810302734375
1445509744190;290.4347229003906;-95.27642822265625;-5.821628570556641;1.5955352783203125;-9.434967041015625;-1.12384033203125
1445509744222;290.483154296875;-93.47832489013672;-5.093789100646973;4.3021697998046875;-17.14300537109375;-0.5550537109375
1445509744257;290.0853271484375;-92.2719497680664;-5.095095634460449;4.89056396484375;-14.98553466796875;-2.065277099609375
1445509744288;292.74835205078125;-91.84365844726562;-5.597404479980469;1.438629150390625;-22.4385986328125;-7.2628021240234375
1445509744321;295.84735107421875;-92.7538070678711;-4.9843549728393555;-6.4066925048828125;-10.847137451171875;2.2888641357421875
1445509744354;298.44976806640625;-95.7526626586914;-2.8821499347686768;-7.3089141845703125;-8.787734985351562;6.5645751953125
1445509744387;300.082763671875;-94.43680572509766;-0.9286834597587585;-1.2680206298828125;-11.21978759765625;5.5054473876953125
1445509744421;295.94769287109375;-90.48150634765625;-0.8295691609382629;1.928955078125;-11.141326904296875;-3.0067291259765625
1445509744454;294.7494201660156;-88.6841812133789;-1.2832317352294922;2.811553955078125;-9.807632446289062;-2.575225830078125
1445509744486;295.6418151855469;-87.25252532958984;-2.273406744003296;1.1444244384765625;-9.199615478515625;-2.32025146484375
1445509744520;295.05474853515625;-86.54287719726562;-2.5950303077697754;-1.9348602294921875;-8.748504638671875;-2.9871063232421875
1445509744553;293.6778259277344;-85.40223693847656;-2.279688596725464;-2.856689453125;-8.532760620117188;-3.3009185791015625
1445509744586;292.28741455078125;-86.06809997558594;-2.3447940349578857;-2.150604248046875;-7.610931396484375;-2.6536865234375
1445509744621;291.0660400390625;-86.60749053955078;-2.8329317569732666;-0.895355224609375;-7.552093505859375;-1.3395843505859375
1445509744655;289.6546325683594;-87.82432556152344;-3.945136547088623;-0.1304473876953125;-7.257904052734375;0.2294769287109375
1445509744685;290.2063293457031;-89.2968521118164;-4.849042892456055;-0.836517333984375;-9.00347900390625;-1.12384033203125
1445509744718;291.13818359375;-90.49446868896484;-5.210082530975342;-1.3268585205078125;-9.219223022460938;-2.7713623046875
1445509744751;292.189697265625;-95.94406127929688;-6.731892108917236;0.359893798828125;-9.533035278320312;-6.9097747802734375
1445509744783;290.26800537109375;-104.40116119384766;-10.04006576538086;2.0858612060546875;-11.004043579101562;-4.5169525146484375
1445509744816;289.21807861328125;-108.7334213256836;-11.545135498046875;1.615142822265625;-14.161773681640625;-2.7713623046875
1445509744849;288.2940979003906;-116.16032409667969;-11.196528434753418;-0.8169097900390625;-20.183059692382812;0.1510162353515625
1445509744883;287.48516845703125;-118.71397399902344;-10.245569229125977;2.5173492431640625;-17.966766357421875;-2.0456695556640625
1445509744916;285.2346496582031;-122.23558044433594;-9.498312950134277;4.066802978515625;-13.592987060546875;-2.339874267578125
1445509744950;282.7247314453125;-122.77949523925781;-9.195573806762695;0.04608154296875;-4.4532012939453125;-0.88848876953125
1445509744983;281.41943359375;-121.95014953613281;-9.175929069519043;1.6347503662109375;-4.6297149658203125;1.190521240234375
1445509745014;280.70050048828125;-119.19764709472656;-8.388228416442871;2.7919464111328125;-4.6297149658203125;0.759033203125
1445509745047;281.172607421875;-114.91702270507812;-7.944070816040039;3.2822723388671875;-4.963134765625;-0.7119598388671875
1445509745081;280.6883850097656;-112.55950927734375;-8.395474433898926;2.2819976806640625;-5.8653564453125;-3.595123291015625
1445509745115;279.193359375;-108.42534637451172;-9.456365585327148;1.2032623291015625;-7.5128631591796875;-3.4970550537109375
1445509745147;280.9668884277344;-106.56031799316406;-8.664907455444336;0.418731689453125;-9.395751953125;-4.6150054931640625
1445509745179;281.42205810546875;-105.15388488769531;-8.001049041748047;0.04608154296875;-10.7098388671875;-6.439056396484375
1445509745213;280.632568359375;-101.85943603515625;-6.417923450469971;0.34027099609375;-10.31756591796875;-6.164459228515625
1445509745245;280.8603210449219;-100.69376373291016;-5.77044153213501;1.47784423828125;-8.4346923828125;-5.0661163330078125
1445509745279;281.202880859375;-99.2444839477539;-5.292599201202393;2.4585113525390625;-8.630828857421875;-6.223297119140625
1445509745314;284.109375;-98.39009857177734;-5.656744480133057;4.8513336181640625;-16.633056640625;1.3474273681640625
1445509745344;285.4521179199219;-97.74227142333984;-4.853518962860107;2.360443115234375;-15.593551635742188;5.1327972412109375
1445509745377;285.992431640625;-95.08211517333984;-4.848811626434326;1.98779296875;-18.417861938476562;3.9363861083984375
1445509745410;284.1458435058594;-94.32743072509766;-4.120795249938965;-3.54315185546875;-11.768951416015625;1.50433349609375
1445509745444;283.57061767578125;-93.71466827392578;-2.9361541271209717;-4.935699462890625;-11.945480346679688;3.38720703125
1445509745477;287.5081787109375;-89.97540283203125;-0.33694541454315186;-1.6995086669921875;-13.2203369140625;5.799652099609375
1445509745510;295.4271240234375;-84.4253158569336;1.0466002225875854;2.125091552734375;-10.513702392578125;0.641357421875
1445509745542;297.37603759765625;-81.59827423095703;0.4011300802230835;4.8709564208984375;-8.82696533203125;-2.908660888671875
1445509745575;300.8716735839844;-79.02579498291016;-1.7988873720169067;1.0071258544921875;-7.9051361083984375;-0.0843353271484375
1445509745608;301.61676025390625;-78.21997833251953;-2.7379138469696045;-3.30780029296875;-7.9835968017578125;1.50433349609375
1445509745641;301.06304931640625;-75.97425842285156;-3.6089460849761963;-4.2296142578125;-8.846572875976562;0.562896728515625
1445509745675;302.17718505859375;-73.59343719482422;-4.408696174621582;-0.718841552734375;-9.68994140625;-0.123565673828125
1445509745707;302.9408264160156;-72.91024780273438;-5.0610880851745605;-0.8757476806640625;-11.10211181640625;-0.8492584228515625
1445509745740;303.7498474121094;-72.88140869140625;-6.2595953941345215;-3.0135955810546875;-11.121719360351562;-0.3393096923828125
1445509745773;302.50341796875;-73.49280548095703;-6.027730464935303;-4.1707763671875;-13.024200439453125;-0.4373779296875
1445509745806;300.8805236816406;-74.49535369873047;-5.12548828125;-3.60198974609375;-15.848526000976562;-0.6138916015625
1445509745840;297.0755920410156;-79.6681900024414;-3.6662282943725586;-0.9345855712890625;-14.632492065429688;-3.2420806884765625
1445509745873;295.58465576171875;-83.95819091796875;-3.602348804473877;2.693878173828125;-12.318130493164062;-0.868865966796875
1445509745905;294.7032165527344;-93.47740936279297;-3.342435121536255;3.3607330322265625;-13.828353881835938;0.562896728515625
1445509745938;297.94415283203125;-101.38394165039062;-2.856494426727295;5.5574188232421875;-17.241073608398438;3.1322479248046875
1445509745972;299.5557861328125;-106.7707290649414;-2.746410369873047;2.242767333984375;-12.631942749023438;3.1126251220703125
1445509746004;299.2478942871094;-108.8363037109375;-2.22333025932312;-0.8169097900390625;-11.16094970703125;1.50433349609375
1445509746037;296.8256530761719;-113.6423110961914;-0.8038799166679382;-3.170501708984375;-8.4935302734375;1.0924530029296875
1445509746071;294.8002014160156;-115.93694305419922;-1.0327856540679932;-1.6602783203125;-6.2576141357421875;1.7789306640625
1445509746103;291.7119445800781;-119.43795013427734;-2.3047378063201904;1.3209381103515625;-3.276397705078125;1.6808624267578125
1445509746136;291.0926208496094;-119.7531509399414;-2.850490093231201;1.615142822265625;-1.76617431640625;1.818145751953125
1445509746170;291.2589111328125;-118.81478881835938;-2.9638991355895996;0.8109893798828125;-2.2957305908203125;1.1120758056640625
1445509746203;291.5796813964844;-115.19349670410156;-3.1596176624298096;0.4971771240234375;-3.4921417236328125;-0.751190185546875
1445509746236;293.3797912597656;-112.05448150634766;-2.6706180572509766;0.1441497802734375;-7.5913238525390625;-4.4973297119140625
1445509746272;293.994873046875;-111.23764038085938;-2.9101569652557373;0.7129364013671875;-9.101547241210938;-2.7321319580078125
1445509746301;293.18487548828125;-108.07306671142578;-4.295968532562256;0.987518310546875;-10.925582885742188;-1.888763427734375
1445509746334;291.8016052246094;-106.43497467041016;-4.628435134887695;1.3405609130859375;-10.297958374023438;-1.3003692626953125
1445509746369;290.1319274902344;-102.68948364257812;-3.9961061477661133;1.9681854248046875;-10.278350830078125;-2.5948486328125
1445509746400;289.9801940917969;-98.34049987792969;-3.2482380867004395;4.89056396484375;-12.867294311523438;-2.8890380859375
1445509746435;289.7589416503906;-96.65177917480469;-3.6287076473236084;6.1065826416015625;-15.750457763671875;-3.6931915283203125
1445509746466;291.26904296875;-94.71158599853516;-3.3867437839508057;3.046905517578125;-13.298797607421875;-1.4180450439453125
1445509746499;296.2784118652344;-95.59209442138672;-2.464949131011963;-3.4450836181640625;-20.1046142578125;-4.6934661865234375
1445509746532;297.02264404296875;-96.95497131347656;-1.99372136592865;-4.3473052978515625;-14.35791015625;-1.437652587890625
1445509746565;301.50439453125;-98.51665496826172;0.1442076563835144;-3.7785186767578125;-10.121444702148438;7.42755126953125
1445509746598;303.2487487792969;-97.06388854980469;0.7658730745315552;1.5759124755859375;-13.004592895507812;1.56317138671875
1445509746638;297.8143005371094;-92.02249145507812;0.5265398621559143;0.6933135986328125;-9.96453857421875;-4.0658416748046875
1445509746664;296.48834228515625;-89.51177215576172;-0.03185088187456131;0.22259521484375;-8.4346923828125;-2.6732940673828125
1445509746696;297.01708984375;-89.11375427246094;-0.23808912932872772;-1.3072357177734375;-7.1009979248046875;-3.889312744140625
1445509746762;295.2427978515625;-88.77742767333984;-1.243658185005188;-1.7583465576171875;-7.434417724609375;-2.2418060302734375
1445509746764;295.2427978515625;-88.77742767333984;-1.243658185005188;-1.7583465576171875;-7.434417724609375;-2.2418060302734375
1445509746796;294.5985107421875;-89.12995147705078;-1.989005446434021;-0.228515625;-7.23828125;-0.300079345703125
1445509746859;295.3443908691406;-91.1841812133789;-4.518811225891113;-1.8760223388671875;-9.160385131835938;-2.1633453369140625
1445509746872;295.3443908691406;-91.1841812133789;-4.518811225891113;-1.8760223388671875;-9.160385131835938;-2.1633453369140625
1445509746896;295.6885986328125;-92.80816650390625;-4.71694803237915;-2.3271331787109375;-10.5333251953125;-7.811981201171875
1445509746942;293.6221618652344;-103.05907440185547;-7.431232929229736;1.36016845703125;-12.121994018554688;-4.47772216796875
1445509746979;292.4602966308594;-112.17343139648438;-8.893919944763184;3.0076904296875;-19.378921508789062;-0.2216339111328125
1445509746997;292.4602966308594;-112.17343139648438;-8.893919944763184;1.222869873046875;-18.260955810546875;1.32781982421875
1445509747041;291.366943359375;-118.73505401611328;-7.441540718078613;1.164031982421875;-14.75018310546875;-1.947601318359375
1445509747061;290.49237060546875;-123.89144897460938;-6.9210524559021;3.1057586669921875;-12.239669799804688;-0.633514404296875
1445509747093;290.7840270996094;-125.81088256835938;-6.2139177322387695;3.5960845947265625;-10.062606811523438;-0.3785400390625
1445509747126;291.01568603515625;-126.20954132080078;-4.568178176879883;1.3209381103515625;-4.413970947265625;-0.0451202392578125
1445509747159;290.932861328125;-124.94561004638672;-3.953401803970337;1.2032623291015625;-4.1393890380859375;0.3471527099609375
1445509747192;291.2143249511719;-120.53570556640625;-3.5258171558380127;1.2032623291015625;-3.962860107421875;0.24908447265625
1445509747226;292.54156494140625;-114.1520767211914;-3.616941452026367;1.53668212890625;-3.4921417236328125;0.2883148193359375
1445509747259;293.80120849609375;-110.47869110107422;-3.8243539333343506;1.0071258544921875;-9.748779296875;-1.2415313720703125
1445509747291;292.17877197265625;-103.74663543701172;-4.792456150054932;1.1444244384765625;-13.475311279296875;-5.8310394287109375
1445509747324;287.8162536621094;-101.24335479736328;-5.465613842010498;0.6148681640625;-11.965087890625;-5.4387664794921875
1445509747365;288.65948486328125;-96.89681243896484;-3.7532191276550293;1.1444244384765625;-10.02337646484375;-3.085174560546875
1445509747389;291.1484375;-95.42741394042969;-2.695078134536743;1.98779296875;-9.984146118164062;-2.9282684326171875
1445509747446;293.2929382324219;-93.27161407470703;-2.2630391120910645;5.1847686767578125;-14.220611572265625;-4.47772216796875
1445509747460;293.2929382324219;-93.27161407470703;-2.2630391120910645;4.753265380859375;-13.592987060546875;-0.633514404296875
1445509747489;297.02984619140625;-93.59711456298828;-3.1897459030151367;3.3411102294921875;-13.867584228515625;0.641357421875
1445509747566;298.2987365722656;-94.8260726928711;-2.9990265369415283;-6.4263153076171875;-9.572265625;3.6814117431640625
1445509747570;298.2987365722656;-94.8260726928711;-2.9990265369415283;-6.4263153076171875;-9.572265625;3.6814117431640625
1445509747598;299.9346008300781;-95.43549346923828;-1.733260989189148;-3.798126220703125;-9.3369140625;5.8192596435546875
1445509747632;299.39178466796875;-93.20401000976562;-0.5755624175071716;1.3993988037109375;-11.474761962890625;2.40655517578125
1445509747666;293.7403259277344;-90.13639068603516;-1.1353968381881714;1.7720489501953125;-9.827239990234375;-4.8111419677734375
1445509747698;293.6243896484375;-90.55702209472656;-1.5832105875015259;1.12481689453125;-8.454315185546875;-2.692901611328125
1445509747731;294.3590087890625;-91.21001434326172;-2.0141148567199707;-0.91497802734375;-7.1990509033203125;-3.6147308349609375
1445509747764;294.62152099609375;-91.50138092041016;-1.9423861503601074;-1.8171844482421875;-6.72833251953125;-1.9868316650390625
1445509747796;294.50433349609375;-91.71815490722656;-1.5738444328308105;-1.8171844482421875;-7.061767578125;-1.6533966064453125
1445509747830;294.9537353515625;-92.02995300292969;-1.6994192600250244;-1.3268585205078125;-8.670059204101562;-1.2415313720703125
1445509747862;295.5140380859375;-92.58467864990234;-2.112135410308838;-0.3069610595703125;-9.023101806640625;-3.28131103515625
1445509747895;295.4773254394531;-94.96908569335938;-3.3779211044311523;-0.4246368408203125;-9.768402099609375;-4.105072021484375
1445509747929;295.3821716308594;-99.9930191040039;-4.209712982177734;-1.7779541015625;-10.14105224609375;-7.184356689453125
1445509747965;294.5232238769531;-104.43887329101562;-5.419971466064453;1.3797760009765625;-12.690780639648438;-6.497894287109375
1445509747998;292.5644226074219;-114.02848052978516;-8.838685989379883;1.3797760009765625;-16.12310791015625;-3.085174560546875
1445509748029;289.92596435546875;-120.84532165527344;-9.82082748413086;-1.09149169921875;-17.456817626953125;0.6021270751953125
1445509748061;289.6792907714844;-123.16680908203125;-9.980621337890625;2.360443115234375;-12.749618530273438;0.01373291015625
1445509748095;290.5835266113281;-125.58660125732422;-9.268404960632324;3.3999481201171875;-9.199615478515625;-0.0451202392578125
1445509748126;291.12652587890625;-125.2236557006836;-8.364354133605957;1.24249267578125;-5.218109130859375;-0.4373779296875
1445509748160;291.5599365234375;-121.85356903076172;-6.871912479400635;0.8306121826171875;-4.21783447265625;-0.241241455078125
1445509748192;290.4931945800781;-115.94285583496094;-7.072286605834961;0.1245269775390625;-6.3949127197265625;-0.0843353271484375
1445509748228;289.63189697265625;-112.59561157226562;-7.735372543334961;1.47784423828125;-9.278060913085938;-1.947601318359375
1445509748260;285.3531494140625;-106.4424819946289;-8.744534492492676;2.2819976806640625;-9.827239990234375;-4.41888427734375
1445509748291;282.0893859863281;-103.09967041015625;-8.194107055664062;1.5170745849609375;-8.336624145507812;-3.6931915283203125
1445509748326;282.8026428222656;-101.66637420654297;-7.073184013366699;1.046356201171875;-9.807632446289062;-3.28131103515625
1445509748358;283.71856689453125;-97.3638687133789;-4.701545238494873;2.5173492431640625;-10.631378173828125;-3.6147308349609375
1445509748391;283.6394348144531;-94.93445587158203;-3.8320822715759277;3.7333831787109375;-10.552932739257812;-3.16363525390625
1445509748424;283.7505187988281;-94.36493682861328;-3.618511915206909;2.5958099365234375;-9.846847534179688;-3.0067291259765625
1445509748456;283.7699279785156;-93.41851043701172;-3.1533844470977783;2.73309326171875;-13.78912353515625;-0.3589324951171875
1445509748491;286.00189208984375;-93.2408218383789;-2.586381196975708;3.9883575439453125;-18.0648193359375;0.6609649658203125
1445509748522;286.98284912109375;-92.65757751464844;-2.2975332736968994;-2.40557861328125;-21.850189208984375;-9.20452880859375
1445509748556;290.4291687011719;-95.16311645507812;-1.1897833347320557;-4.9553070068359375;-8.807342529296875;2.975341796875
1445509748588;291.6475830078125;-96.51705932617188;-0.7940896153450012;-2.2094573974609375;-10.435256958007812;5.603515625
1445509748622;291.60595703125;-95.4598617553711;0.08654364943504333;0.242218017578125;-12.573104858398438;2.8576507568359375
1445509748655;288.5364990234375;-91.62010192871094;0.14616790413856506;0.6737060546875;-10.160659790039062;-3.144012451171875
1445509748687;289.326416015625;-91.1417465209961;-0.04352880269289017;0.5560302734375;-8.1993408203125;-2.20257568359375
1445509748721;288.153564453125;-90.86700439453125;-0.8242990970611572;-0.405029296875;-8.042434692382812;-3.3205413818359375
1445509748753;287.3718566894531;-90.81623840332031;-1.1051948070526123;-2.2094573974609375;-7.3951873779296875;-3.202850341796875
1445509748787;287.63330078125;-90.9376449584961;-0.9668369293212891;-2.150604248046875;-7.316741943359375;-2.7321319580078125
1445509748820;288.0889892578125;-91.70580291748047;-1.191815733909607;-0.6992340087890625;-7.885528564453125;-1.378814697265625
1445509748853;288.90594482421875;-93.22711944580078;-2.1683154106140137;0.28143310546875;-8.650436401367188;-1.143463134765625
1445509748886;289.27301025390625;-94.31287384033203;-2.8667540550231934;0.1441497802734375;-9.00347900390625;-1.888763427734375
1445509748919;289.8095703125;-97.72892761230469;-4.179784774780273;-1.6798858642578125;-9.709564208984375;-5.3210906982421875
1445509748952;289.90673828125;-100.44042205810547;-4.863768577575684;-0.3069610595703125;-11.27862548828125;-7.1451263427734375
1445509748985;287.618408203125;-108.04352569580078;-7.533437252044678;0.0656890869140625;-14.181396484375;-6.3998260498046875
1445509749019;284.9055480957031;-115.49664306640625;-9.105574607849121;-0.1892852783203125;-18.535537719726562;0.896331787109375
1445509749052;284.5506896972656;-118.11590576171875;-8.358766555786133;4.32177734375;-13.024200439453125;0.2098541259765625
1445509749083;284.090576171875;-121.54551696777344;-8.164324760437012;4.8513336181640625;-11.082489013671875;-0.3197021484375
1445509749117;285.96722412109375;-122.17240905761719;-6.485509872436523;2.125091552734375;-7.1402130126953125;-0.2216339111328125
1445509749149;286.79791259765625;-120.9785385131836;-5.450074672698975;1.12481689453125;-5.9241943359375;0.5432891845703125
1445509749189;287.8111267089844;-116.57471466064453;-3.8993780612945557;1.046356201171875;-5.53192138671875;0.24908447265625
1445509749215;288.34808349609375;-110.55921173095703;-3.8303661346435547;1.0659637451171875;-6.5910491943359375;-0.7119598388671875
1445509749249;287.5653076171875;-107.24717712402344;-4.112465858459473;0.8502197265625;-7.1990509033203125;-1.1630706787109375
1445509749282;282.843017578125;-102.68919372558594;-4.957112789154053;1.3209381103515625;-8.787734985351562;-4.8307647705078125
1445509749315;283.72259521484375;-100.64310455322266;-3.770765781402588;0.5756378173828125;-8.532760620117188;-3.16363525390625
1445509749349;284.7948303222656;-98.593505859375;-2.654289960861206;0.869842529296875;-9.748779296875;-3.4970550537109375
1445509749381;284.6311340332031;-94.98589324951172;-1.6092332601547241;2.164306640625;-9.415359497070312;-3.0067291259765625
1445509749414;284.5108947753906;-94.25118255615234;-1.4610862731933594;0.654083251953125;-8.88580322265625;-1.888763427734375
1445509749449;284.5348205566406;-93.09403991699219;-0.7456728219985962;0.8894500732421875;-10.964813232421875;-1.2219085693359375
1445509749481;285.29052734375;-91.17538452148438;0.2394876331090927;3.380340576171875;-16.986099243164062;-2.5556182861328125
1445509749515;286.78948974609375;-91.21566009521484;0.41741877794265747;2.3996734619140625;-14.828628540039062;-0.515838623046875
1445509749556;288.5721435546875;-92.120361328125;0.018451755866408348;-4.44537353515625;-13.887191772460938;-0.88848876953125
1445509749582;289.6924133300781;-94.35252380371094;0.9268458485603333;-5.7790679931640625;-10.788284301757812;3.406829833984375
1445509749612;290.4144592285156;-94.9955825805664;1.9071582555770874;-5.0337677001953125;-10.729446411132812;6.23114013671875
1445509749645;291.64532470703125;-92.4034194946289;3.1282594203948975;0.6148681640625;-12.102386474609375;3.5637359619140625
1445509749678;289.1986389160156;-88.96961212158203;3.194582462310791;2.5369720458984375;-9.90570068359375;-3.1832427978515625
1445509749710;289.4910888671875;-87.48831939697266;2.7893452644348145;1.9681854248046875;-9.140777587890625;-1.457275390625
1445509749744;289.6775817871094;-86.60067749023438;2.0628554821014404;-1.1307220458984375;-8.513153076171875;-2.4379425048828125
1445509749776;288.94012451171875;-86.41413879394531;2.025390148162842;-3.288177490234375;-7.7089996337890625;-3.51666259765625
1445509749810;288.08111572265625;-86.83922576904297;2.347860097885132;-3.24896240234375;-7.8462982177734375;-3.791259765625
1445509749843;287.3166809082031;-87.38068389892578;2.020315647125244;-0.660003662109375;-7.3363494873046875;-0.2608642578125
1445509749875;286.4893493652344;-87.69464874267578;1.5977132320404053;-1.09149169921875;-7.1598358154296875;-0.3785400390625
1445509749909;286.37969970703125;-89.24346923828125;0.8449421525001526;-1.6798858642578125;-8.905410766601562;-1.6533966064453125
1445509749942;286.01519775390625;-92.34107971191406;-0.1981612741947174;-0.91497802734375;-9.650726318359375;-4.1246795654296875
1445509749974;285.8138732910156;-94.43682861328125;-0.8803828954696655;-0.405029296875;-9.101547241210938;-4.3011932373046875
1445509750008;285.23406982421875;-100.8246841430664;-2.724330425262451;0.9090576171875;-10.19989013671875;-5.3799285888671875
1445509750041;282.5103454589844;-109.0058822631836;-4.952219486236572;0.7325439453125;-17.025314331054688;-2.908660888671875
1445509750074;281.4700927734375;-112.38712310791016;-5.573195934295654;0.242218017578125;-18.084442138671875;-0.1627960205078125
1445509750107;281.5855407714844;-117.02328491210938;-5.244655609130859;2.4781341552734375;-14.318679809570312;0.13140869140625
1445509750141;281.9369201660156;-118.50408935546875;-4.9903764724731445;4.517913818359375;-11.847412109375;-0.5550537109375
1445509750174;283.0589599609375;-119.59016418457031;-3.788717031478882;2.870391845703125;-9.591873168945312;-0.633514404296875
1445509750205;284.78399658203125;-117.52291107177734;-2.6708641052246094;1.4582366943359375;-5.17889404296875;0.0921783447265625
1445509750242;285.5123596191406;-115.56588745117188;-2.4439799785614014;1.497467041015625;-5.3750152587890625;0.641357421875
1445509750272;285.7423095703125;-110.04078674316406;-2.599693536758423;1.497467041015625;-6.37530517578125;0.36676025390625
1445509750304;281.7150573730469;-104.08350372314453;-3.5770888328552246;1.3993988037109375;-7.5128631591796875;-2.3006439208984375
1445509750338;279.284912109375;-101.92413330078125;-4.084721088409424;0.7717742919921875;-8.94464111328125;-5.242645263671875
1445509750370;281.3424072265625;-100.04450225830078;-2.6647462844848633;-0.091217041015625;-9.356521606445312;-4.5169525146484375
1445509750404;282.4169921875;-98.55191040039062;-1.7277532815933228;1.9093475341796875;-8.925033569335938;-3.536285400390625
1445509750437;283.54962158203125;-95.6976089477539;-0.5087891817092896;2.49774169921875;-8.630828857421875;-2.8694305419921875
1445509750469;284.16241455078125;-94.2860336303711;-0.4820019006729126;0.8894500732421875;-8.3758544921875;-1.6141815185546875
1445509750504;283.7081298828125;-93.77523803710938;-0.5563635230064392;3.3018798828125;-15.652389526367188;-1.9279937744140625
1445509750537;281.67852783203125;-92.18302154541016;-0.5976694822311401;4.753265380859375;-18.221725463867188;-2.281036376953125
1445509750569;285.0529479980469;-90.72184753417969;-0.5849151611328125;0.3795013427734375;-13.377243041992188;0.955169677734375
1445509750602;287.1596374511719;-90.89051055908203;-0.5660474896430969;-3.48431396484375;-16.025039672851562;-1.888763427734375
1445509750636;287.7265625;-92.31034851074219;-0.09566538035869598;-5.0337677001953125;-12.063156127929688;0.111785888671875
1445509750668;292.11181640625;-92.49247741699219;1.7603790760040283;-1.797576904296875;-10.5333251953125;4.093292236328125
1445509750700;293.2335205078125;-91.49270629882812;2.241766929626465;0.5167999267578125;-10.964813232421875;2.4850006103515625
1445509750734;289.87225341796875;-88.28174591064453;2.077802896499634;1.2032623291015625;-10.121444702148438;-2.1045074462890625
1445509750767;288.5591735839844;-86.0284423828125;1.647800326347351;-0.9934234619140625;-9.631103515625;-2.4967803955078125
1445509750800;288.87017822265625;-85.62094116210938;1.5069869756698608;-1.4249267578125;-8.532760620117188;-2.4771575927734375
1445509750833;288.765380859375;-85.32576751708984;1.1186119318008423;-0.8169097900390625;-7.68939208984375;-2.4771575927734375
1445509750866;288.51556396484375;-85.56893920898438;0.8554276823997498;-0.9345855712890625;-7.826690673828125;-1.084625244140625
1445509750899;287.4210205078125;-86.5667953491211;0.2810702621936798;-1.0718841552734375;-7.552093505859375;-0.574676513671875
1445509750932;286.76031494140625;-87.82860565185547;-0.5461434125900269;-1.0718841552734375;-7.2775115966796875;-0.77081298828125
1445509750964;287.59857177734375;-88.78553771972656;-0.8660582900047302;-1.20916748046875;-8.807342529296875;-3.1832427978515625
1445509750997;290.10205078125;-92.56571197509766;-1.3382359743118286;-0.601165771484375;-9.631103515625;-4.71307373046875
1445509751030;290.46038818359375;-97.40164184570312;-2.17256498336792;0.654083251953125;-9.023101806640625;-3.8108673095703125
1445509751064;289.85479736328125;-100.72422790527344;-2.55880069732666;0.928680419921875;-11.965087890625;-4.732696533203125
1445509751098;287.07086181640625;-108.12520599365234;-3.6376376152038574;-1.228790283203125;-19.790802001953125;-1.9868316650390625
1445509751130;284.9648742675781;-113.7866439819336;-4.091423034667969;1.0659637451171875;-14.907089233398438;-0.182403564453125
1445509751163;284.5311584472656;-115.54959106445312;-4.357289791107178;5.2436065673828125;-13.1026611328125;-0.9080963134765625
1445509751196;285.0543212890625;-117.01911163330078;-3.8627114295959473;4.5375213623046875;-9.631103515625;-0.3197021484375
1445509751229;287.59124755859375;-116.27347564697266;-2.8370726108551025;2.73309326171875;-5.728057861328125;0.445220947265625
1445509751262;287.87994384765625;-115.05996704101562;-2.6570558547973633;1.6543731689453125;-5.23773193359375;0.81787109375
1445509751296;289.05670166015625;-111.2619400024414;-1.9279816150665283;1.3797760009765625;-5.4534759521484375;0.1706390380859375
1445509751328;290.3092346191406;-109.17986297607422;-1.6419373750686646;2.32122802734375;-6.296844482421875;-2.2221832275390625
1445509751362;292.885498046875;-106.14403533935547;-1.3434540033340454;2.2231597900390625;-7.375579833984375;-3.2420806884765625
1445509751393;296.3207702636719;-104.90150451660156;-0.866078794002533;0.987518310546875;-7.610931396484375;-3.3793792724609375
1445509751427;298.0807189941406;-103.54077911376953;-0.4440145492553711;-1.03265380859375;-9.00347900390625;-1.829925537109375
1445509751460;300.74847412109375;-99.79611206054688;1.0292367935180664;-0.718841552734375;-9.552658081054688;-0.6727447509765625
1445509751493;303.6871337890625;-95.6786880493164;2.784440755844116;2.0270233154296875;-10.180282592773438;-3.85009765625
1445509751526;305.8306579589844;-93.64524841308594;3.4829628467559814;1.7132110595703125;-10.376419067382812;-4.850372314453125
1445509751558;310.2011413574219;-90.4127197265625;4.988348484039307;1.41900634765625;-11.357070922851562;-2.7909698486328125
1445509751592;312.6014709472656;-86.97444915771484;6.570985317230225;0.8502197265625;-14.102935791015625;0.562896728515625
1445509751625;314.1185607910156;-85.31584167480469;7.2195048332214355;0.0656890869140625;-13.61260986328125;3.1714630126953125
1445509751658;317.7002868652344;-83.1824951171875;8.307404518127441;0.1441497802734375;-14.75018310546875;4.0540618896484375
1445509751690;319.37091064453125;-82.165283203125;8.948227882385254;0.0853118896484375;-18.319793701171875;4.0540618896484375
1445509751724;325.04754638671875;-79.22686767578125;9.797062873840332;-0.4834747314453125;-15.024765014648438;2.0338897705078125
1445509751756;335.7038269042969;-77.3031997680664;8.827139854431152;0.869842529296875;-11.768951416015625;4.1128997802734375
1445509751790;341.73895263671875;-76.55575561523438;8.227373123168945;1.046356201171875;-9.670333862304688;5.72119140625
1445509751822;351.3979797363281;-75.40548706054688;7.108351707458496;0.026458740234375;-8.571990966796875;5.544677734375
1445509751856;357.4396057128906;-75.29021453857422;5.783573150634766;-2.484039306640625;-6.630279541015625;4.2305908203125
1445509751890;0.594146728515625;-74.82512664794922;5.188709735870361;-5.426025390625;-8.120880126953125;3.1322479248046875
1445509751921;7.845733642578125;-73.86751556396484;3.9233899116516113;-5.01416015625;-8.336624145507812;2.3477020263671875
1445509751954;15.77490234375;-73.41107177734375;2.3399593830108643;-1.9936981201171875;-8.925033569335938;0.4844512939453125
1445509751988;19.145751953125;-73.2717514038086;1.4279673099517822;-1.738739013671875;-8.611221313476562;-0.0254974365234375
1445509752021;26.802642822265625;-73.44026184082031;-0.32022741436958313;-4.4061431884765625;-7.610931396484375;-0.9865570068359375
1445509752053;31.30169677734375;-74.08443450927734;-0.7765504717826843;-4.0334930419921875;-9.984146118164062;-1.457275390625
1445509752087;40.08087158203125;-76.93125915527344;-1.2022886276245117;-2.1898345947265625;-12.631942749023438;-3.085174560546875
1445509752120;46.85009765625;-83.02043914794922;-2.8011670112609863;2.870391845703125;-15.94659423828125;-5.55645751953125
1445509752158;51.840667724609375;-92.52022552490234;-6.762552738189697;8.930908203125;-19.123947143554688;-0.82965087890625
1445509752187;56.434326171875;-97.38546752929688;-8.1596040725708;10.1273193359375;-17.358749389648438;0.994384765625
1445509752219;57.175811767578125;-103.96028137207031;-9.982034683227539;3.890289306640625;-15.417037963867188;2.46539306640625
1445509752252;53.9576416015625;-106.18859100341797;-11.523241996765137;-3.8765869140625;-16.18194580078125;-0.8492584228515625
1445509752287;52.907135009765625;-112.8385238647461;-14.065927505493164;-1.7779541015625;-14.338302612304688;-3.5558929443359375
1445509752318;52.432769775390625;-116.79380798339844;-16.17473793029785;2.49774169921875;-9.140777587890625;-3.3793792724609375
1445509752351;50.0697021484375;-121.70738983154297;-19.977558135986328;2.5761871337890625;-8.513153076171875;-2.7517547607421875
1445509752384;51.089813232421875;-127.31904602050781;-22.26340675354004;1.41900634765625;-6.9636993408203125;-1.712249755859375
1445509752417;51.76153564453125;-129.7667694091797;-23.317405700683594;1.164031982421875;-4.8846893310546875;-2.006439208984375
1445509752450;52.16033935546875;-133.3040008544922;-25.444137573242188;0.8306121826171875;-3.8255767822265625;-1.712249755859375
1445509752483;52.5994873046875;-134.68545532226562;-26.46272850036621;1.41900634765625;-1.570037841796875;-2.1045074462890625
1445509752515;53.776397705078125;-134.77687072753906;-25.893125534057617;2.7723236083984375;-0.9620208740234375;-5.1641845703125
1445509752549;56.245941162109375;-133.21038818359375;-24.422712326049805;3.046905517578125;-1.64849853515625;-6.1252288818359375
1445509752582;57.1925048828125;-129.7227325439453;-23.996929168701172;5.1847686767578125;-6.0811004638671875;-9.047622680664062
1445509752615;58.212249755859375;-128.25686645507812;-23.59261131286621;7.6168060302734375;-8.591598510742188;-5.8114166259765625
1445509752647;59.65997314453125;-125.47020721435547;-21.512434005737305;2.5369720458984375;-9.3369140625;-3.791259765625
1445509752680;64.06057739257812;-122.17118835449219;-17.092180252075195;3.2430419921875;-9.356521606445312;-3.712799072265625
1445509752714;66.9991455078125;-120.68647003173828;-14.918800354003906;3.3411102294921875;-11.867019653320312;-2.7713623046875
1445509752747;74.54531860351562;-117.92051696777344;-10.648836135864258;1.8308868408203125;-11.062881469726562;-1.6337890625
1445509752780;78.91531372070312;-116.203125;-8.44482707977295;0.359893798828125;-10.31756591796875;0.07257080078125
1445509752818;88.28009033203125;-110.8495101928711;-4.315288543701172;-0.1892852783203125;-13.84796142578125;-2.4771575927734375
1445509752847;93.444580078125;-104.91385650634766;-2.892554998397827;-0.228515625;-13.710678100585938;-2.32025146484375
1445509752879;94.26568603515625;-102.68563842773438;-2.5300326347351074;-1.03265380859375;-12.29852294921875;-1.810302734375
1445509752912;95.202880859375;-99.57246398925781;-2.0655670166015625;-1.1307220458984375;-12.239669799804688;-1.829925537109375
1445509752947;101.15249633789062;-96.52684020996094;-0.3835589587688446;-1.6406707763671875;-11.51397705078125;-1.0257720947265625
1445509752980;105.4788818359375;-94.82324981689453;0.5857006907463074;-0.34619140625;-9.219223022460938;-1.457275390625
1445509753019;111.05857849121094;-91.4697265625;1.3583683967590332;-0.3854217529296875;-7.7874603271484375;-0.3393096923828125
1445509753043;113.44839477539062;-88.72212219238281;1.284645915031433;-1.5818328857421875;-6.7675628662109375;-0.4962158203125
1445509753077;114.37025451660156;-87.61029052734375;0.9769726991653442;-1.8367919921875;-8.218948364257812;-0.868865966796875
1445509753110;115.71368408203125;-84.86246490478516;-0.14865410327911377;-0.7580718994140625;-9.827239990234375;-1.3984375
1445509753142;117.64469909667969;-81.28064727783203;-1.5204830169677734;-1.4445343017578125;-11.39630126953125;-1.457275390625
1445509753176;118.18728637695312;-79.5760269165039;-2.113938093185425;-0.6992340087890625;-12.9849853515625;-2.1829681396484375
1445509753209;120.24101257324219;-77.38450622558594;-3.2016162872314453;-1.20916748046875;-15.181671142578125;-2.1045074462890625
1445509753242;120.31817626953125;-77.82279968261719;-3.1164028644561768;1.0267486572265625;-15.260116577148438;-2.634063720703125
1445509753275;117.14895629882812;-82.33031463623047;-2.792388677597046;0.928680419921875;-14.710952758789062;-3.57550048828125
1445509753307;114.1683349609375;-89.9627456665039;-4.232349872589111;-0.150054931640625;-14.534439086914062;-1.9279937744140625
1445509753343;114.62347412109375;-94.34528350830078;-5.02124547958374;-0.6207733154296875;-16.750732421875;-0.005889892578125
1445509753373;117.07705688476562;-102.6168212890625;-5.6885528564453125;0.28143310546875;-15.515090942382812;-0.1627960205078125
1445509753406;116.8619384765625;-106.03704833984375;-6.2339043617248535;0.418731689453125;-12.376968383789062;0.19024658203125
1445509753443;112.28256225585938;-112.42578887939453;-7.6924333572387695;-1.6995086669921875;-12.200454711914062;1.0532379150390625
1445509753474;103.078125;-119.38822174072266;-11.474491119384766;-2.8762969970703125;-11.533599853515625;0.13140869140625
1445509753505;99.2764892578125;-123.27025604248047;-13.808974266052246;2.2231597900390625;-7.8462982177734375;0.445220947265625
1445509753539;93.98236083984375;-129.95411682128906;-18.417499542236328;0.7717742919921875;-4.7473907470703125;0.4648284912109375
1445509753572;90.7530517578125;-133.9168701171875;-20.38898468017578;1.18365478515625;-3.158721923828125;0.1510162353515625
1445509753605;89.55715942382812;-134.5549774169922;-20.00848960876465;1.9093475341796875;-0.255950927734375;-0.88848876953125
1445509753638;88.37258911132812;-133.63575744628906;-17.422409057617188;2.9684600830078125;0.6070404052734375;-2.1829681396484375
1445509753671;88.39230346679688;-130.53717041015625;-15.25609016418457;3.380340576171875;0.5482025146484375;0.2883148193359375
1445509753705;90.13320922851562;-127.5050277709961;-13.229738235473633;4.9690093994140625;-10.239120483398438;-3.261688232421875
1445509753736;97.26443481445312;-121.34058380126953;-8.521064758300781;5.6162567138671875;-24.360702514648438;-4.77191162109375
1445509753770;100.71392822265625;-117.1677474975586;-6.252941608428955;-0.0519866943359375;-12.376968383789062;-1.810302734375
1445509753804;103.08480834960938;-115.27925109863281;-4.747580528259277;0.477569580078125;-7.2775115966796875;0.935546875
1445509753837;110.46932983398438;-109.52175903320312;-2.6020796298980713;0.6344757080078125;-10.8275146484375;1.523956298828125
1445509753869;116.63787841796875;-102.12609100341797;-0.6229614615440369;-0.6796112060546875;-16.731124877929688;-2.20257568359375
1445509753902;116.33099365234375;-99.77860260009766;-0.07963832467794418;-0.895355224609375;-13.808746337890625;-1.2807464599609375
1445509753934;114.84812927246094;-97.34235382080078;-0.08896154165267944;-2.5232696533203125;-10.25872802734375;-1.6141815185546875
1445509753968;118.36111450195312;-94.58277893066406;0.32632601261138916;-2.11138916015625;-9.238845825195312;-0.241241455078125
1445509754000;121.76263427734375;-93.20059204101562;0.9305363893508911;-2.22906494140625;-9.023101806640625;-1.6141815185546875
1445509754034;125.10787963867188;-90.69146728515625;1.3054509162902832;1.47784423828125;-8.76812744140625;-1.810302734375
1445509754067;125.91139221191406;-89.69932556152344;1.2138392925262451;-1.2483978271484375;-8.120880126953125;0.111785888671875
1445509754100;127.57522583007812;-87.77896118164062;1.0097181797027588;-1.228790283203125;-7.826690673828125;-0.123565673828125
1445509754133;128.6389617919922;-86.28578186035156;0.24745512008666992;-1.2483978271484375;-9.081939697265625;-0.0843353271484375
1445509754165;128.68858337402344;-85.54214477539062;-0.24690869450569153;-1.5622100830078125;-11.062881469726562;-1.1042327880859375
1445509754199;129.03965759277344;-83.66563415527344;-1.5686619281768799;-1.1307220458984375;-11.827789306640625;-0.9277191162109375
1445509754232;128.94483947753906;-81.62918853759766;-2.92817759513855;-0.5619354248046875;-14.142166137695312;-0.4962158203125
1445509754265;128.79615783691406;-80.84410095214844;-3.3234031200408936;-1.03265380859375;-16.417312622070312;-0.7119598388671875
1445509754299;126.48289489746094;-80.93382263183594;-3.39681077003479;-1.2483978271484375;-15.299346923828125;-2.1241302490234375
1445509754331;120.204833984375;-83.92160034179688;-3.235834836959839;-0.01275634765625;-12.906524658203125;-4.3208160400390625
1445509754364;117.11863708496094;-86.40000915527344;-3.4526736736297607;-0.522705078125;-12.730010986328125;-5.085723876953125
1445509754396;113.64096069335938;-94.07833099365234;-4.238142013549805;-0.836517333984375;-15.750457763671875;-2.3594818115234375
1445509754429;114.65142822265625;-98.39799499511719;-3.977167844772339;0.7129364013671875;-15.691619873046875;0.6021270751953125
1445509754463;115.68898010253906;-104.84834289550781;-2.661517381668091;1.0071258544921875;-13.2791748046875;1.32781982421875
1445509754496;109.90415954589844;-109.92914581298828;-3.2349352836608887;-0.4638671875;-10.337188720703125;2.0338897705078125
1445509754529;105.00518798828125;-113.43206787109375;-4.5292134284973145;-1.522979736328125;-9.984146118164062;0.36676025390625
1445509754564;96.89794921875;-122.14158630371094;-7.840423107147217;-0.6992340087890625;-9.944915771484375;-1.00616455078125
1445509754598;90.005859375;-129.78587341308594;-12.850286483764648;1.732818603515625;-8.120880126953125;0.4059906005859375
1445509754629;87.24957275390625;-132.70236206054688;-15.107361793518066;2.0270233154296875;-4.472808837890625;0.6021270751953125
1445509754660;82.85018920898438;-135.8553924560547;-18.18979835510254;3.1057586669921875;-2.84490966796875;0.7394256591796875
1445509754693;81.36468505859375;-135.81846618652344;-18.22256851196289;3.4195709228515625;-1.001251220703125;-1.5357208251953125
1445509754727;81.67962646484375;-135.071044921875;-17.188631057739258;3.5960845947265625;-1.1777801513671875;-3.51666259765625
1445509754759;82.16717529296875;-131.14569091796875;-14.840459823608398;4.6159820556640625;-4.2374420166015625;-3.9873809814453125
1445509754793;83.29031372070312;-128.53883361816406;-12.598118782043457;-0.01275634765625;-10.494094848632812;-1.18267822265625
1445509754825;89.38833618164062;-122.52359008789062;-6.008213520050049;2.5958099365234375;-17.397979736328125;-3.791259765625
1445509754858;93.5322265625;-117.27913665771484;-2.9573848247528076;1.30133056640625;-12.102386474609375;-2.2418060302734375
1445509754892;96.40130615234375;-114.78265380859375;-1.7906650304794312;1.164031982421875;-8.120880126953125;-0.3393096923828125
1445509754927;103.47821044921875;-108.93444061279297;-0.8313639163970947;1.18365478515625;-9.788009643554688;0.327545166015625
1445509754958;111.38798522949219;-102.11647033691406;0.29536089301109314;0.0853118896484375;-13.769515991210938;-1.202301025390625
1445509754992;114.14202880859375;-99.04339599609375;0.8576066493988037;-1.228790283203125;-11.78857421875;-0.3785400390625
1445509755024;115.69943237304688;-94.80583190917969;1.4413987398147583;-2.4448089599609375;-10.729446411132812;-0.3393096923828125
1445509755057;117.99703979492188;-92.74264526367188;1.2129085063934326;-4.759185791015625;-10.278350830078125;0.2883148193359375
1445509755090;121.592529296875;-91.0479965209961;2.019765615463257;-5.75946044921875;-9.984146118164062;-0.6138916015625
1445509755123;126.38627624511719;-87.90348815917969;2.8004541397094727;2.0270233154296875;-9.925308227539062;-1.947601318359375
1445509755156;126.6707763671875;-86.91925048828125;2.5740253925323486;-0.5619354248046875;-9.474197387695312;-0.633514404296875
1445509755190;128.5287628173828;-85.56221008300781;2.1659228801727295;-1.3072357177734375;-9.042709350585938;-0.5550537109375
1445509755221;130.39736938476562;-83.91991424560547;1.125586748123169;-1.856414794921875;-9.866470336914062;-0.0843353271484375
1445509755255;130.34693908691406;-83.13494110107422;0.5955383777618408;-2.3859710693359375;-9.96453857421875;-0.3393096923828125
1445509755287;130.17166137695312;-80.99369049072266;-0.7714795470237732;-1.8956451416015625;-12.200454711914062;-1.437652587890625
1445509755321;130.41358947753906;-78.89805603027344;-2.6855790615081787;0.301055908203125;-16.025039672851562;-1.3395843505859375
1445509755354;130.4813995361328;-78.29143524169922;-3.272562026977539;-0.640380859375;-14.259841918945312;-1.96722412109375
1445509755387;128.03265380859375;-80.11360168457031;-2.8275716304779053;0.2029876708984375;-14.201004028320312;-2.1045074462890625
1445509755420;123.53662109375;-84.76740264892578;-1.6842153072357178;0.0853118896484375;-14.318679809570312;-4.3796539306640625
1445509755452;120.75685119628906;-88.38529205322266;-1.4731642007827759;-0.228515625;-14.848251342773438;-4.2619781494140625
1445509755485;119.50798034667969;-96.7219467163086;-1.2220373153686523;-1.287628173828125;-15.260116577148438;1.6024017333984375
1445509755518;119.294921875;-102.86846923828125;-0.29049602150917053;0.3206634521484375;-12.337738037109375;3.26953125
1445509755552;117.74969482421875;-105.44876098632812;-0.37735018134117126;1.3797760009765625;-10.749069213867188;1.9946746826171875
1445509755586;109.35008239746094;-111.4739761352539;-2.264373779296875;0.16375732421875;-10.474472045898438;1.6612396240234375
1445509755618;105.269287109375;-115.9191665649414;-3.4701309204101562;-1.797576904296875;-9.925308227539062;-1.00616455078125
1445509755650;98.00723266601562;-124.86363983154297;-6.471909523010254;-0.660003662109375;-9.317291259765625;-0.88848876953125
1445509755684;91.681884765625;-130.7609100341797;-10.357132911682129;1.8701171875;-6.3360748291015625;1.523956298828125
1445509755717;89.55026245117188;-132.79052734375;-11.610827445983887;1.850494384765625;-2.3153533935546875;0.2294769287109375
1445509755750;86.48727416992188;-134.11468505859375;-12.565375328063965;2.164306640625;-1.570037841796875;-0.6727447509765625
1445509755783;85.86526489257812;-132.37307739257812;-11.0269193649292;3.1449737548828125;-2.3741912841796875;-4.340423583984375
1445509755822;85.37979125976562;-128.42965698242188;-9.948339462280273;3.7333831787109375;-8.277786254882812;-3.712799072265625
1445509755849;86.42266845703125;-126.65176391601562;-8.078723907470703;0.8502197265625;-11.553207397460938;-5.5172271728515625
1445509755883;88.71578979492188;-124.62962341308594;-5.458939075469971;1.1444244384765625;-12.455429077148438;-1.7318572998046875
1445509755915;92.44503784179688;-119.60376739501953;-2.4042420387268066;3.046905517578125;-10.513702392578125;-2.4379425048828125
1445509755948;97.93939208984375;-114.51956176757812;-0.9974970817565918;1.4582366943359375;-10.5333251953125;0.1510162353515625
1445509755981;101.47842407226562;-111.67484283447266;-0.3837604522705078;0.026458740234375;-13.024200439453125;0.13140869140625
1445509756014;108.17742919921875;-104.76325988769531;1.8637133836746216;-0.326568603515625;-13.78912353515625;-0.868865966796875
1445509756047;111.41854858398438;-98.81586456298828;3.4574480056762695;-0.7972869873046875;-12.121994018554688;-0.7315826416015625
1445509756081;111.8907470703125;-97.33157348632812;3.705331802368164;-2.8762969970703125;-10.297958374023438;-1.6337890625
1445509756113;112.57177734375;-95.6614761352539;3.6076033115386963;-3.2097320556640625;-10.278350830078125;-0.182403564453125
1445509756146;118.70661926269531;-91.97947692871094;5.13550329208374;-2.4448089599609375;-9.631103515625;-1.0257720947265625
1445509756182;120.01141357421875;-90.36611938476562;5.1788458824157715;1.47784423828125;-9.415359497070312;-2.281036376953125
1445509756215;120.72828674316406;-88.3821029663086;4.809627532958984;-0.718841552734375;-9.376129150390625;-1.75146484375
1445509756244;121.58615112304688;-87.62680053710938;4.693093299865723;-1.6602783203125;-8.787734985351562;-0.6138916015625
1445509756280;123.03244018554688;-86.14615631103516;3.971372127532959;-2.739013671875;-8.964248657226562;0.9159393310546875
1445509756310;122.3515625;-84.34688568115234;2.9049832820892334;-2.7978515625;-9.356521606445312;0.896331787109375
1445509756344;121.88284301757812;-83.14730834960938;2.2289130687713623;-0.01275634765625;-13.024200439453125;-0.5942840576171875
1445509756377;122.05862426757812;-81.06365203857422;0.7165910005569458;1.3993988037109375;-15.122833251953125;-0.6138916015625
1445509756409;122.47854614257812;-80.46753692626953;-0.35878536105155945;0.7717742919921875;-16.083877563476562;-2.457550048828125
1445509756443;121.8431396484375;-81.56266784667969;-0.3921617567539215;0.7913818359375;-13.67144775390625;-4.144287109375
1445509756476;119.4290771484375;-86.01882934570312;-0.006478434428572655;0.4383392333984375;-13.73028564453125;-4.8111419677734375
1445509756509;114.81954956054688;-93.56330871582031;-0.5404108762741089;-1.3072357177734375;-14.75018310546875;-4.5561676025390625
1445509756543;113.96243286132812;-97.93733215332031;-0.5674050450325012;-2.34674072265625;-15.926971435546875;-1.1042327880859375
1445509756574;113.83810424804688;-104.37745666503906;0.8118839263916016;-1.15032958984375;-13.396865844726562;1.9162139892578125
1445509756608;111.54179382324219;-109.45874786376953;0.7843949198722839;1.5955352783203125;-10.474472045898438;0.19024658203125
1445509756640;107.94107055664062;-113.04217529296875;-0.07908336818218231;0.5560302734375;-9.670333862304688;0.621734619140625
1445509756674;99.0643310546875;-121.26469421386719;-3.3794517517089844;-0.660003662109375;-9.493820190429688;-0.82965087890625
1445509756707;95.6822509765625;-125.46086883544922;-5.08083963394165;0.2618255615234375;-8.454315185546875;-0.9865570068359375
1445509756740;89.934814453125;-132.7367401123047;-9.506957054138184;2.301605224609375;-6.1007080078125;-0.1431732177734375
1445509756773;86.5340576171875;-137.97145080566406;-13.506134033203125;2.6546478271484375;-3.7667236328125;0.13140869140625
1445509756807;85.56442260742188;-139.49307250976562;-14.866357803344727;2.5761871337890625;-1.70733642578125;-1.2807464599609375
1445509756838;85.20703125;-140.46286010742188;-15.645896911621094;3.2038116455078125;-1.3150634765625;-3.1832427978515625
1445509756872;86.001220703125;-139.40594482421875;-14.561970710754395;3.262664794921875;-2.3349609375;-5.4976043701171875
1445509756905;85.64398193359375;-137.36129760742188;-14.04007339477539;4.5963592529296875;-5.41424560546875;-8.75341796875
1445509756937;85.55755615234375;-132.61741638183594;-11.108448028564453;4.6551971435546875;-12.690780639648438;-6.7136383056640625
1445509756971;88.55551147460938;-127.59793853759766;-6.502130508422852;3.1645965576171875;-11.16094970703125;-3.653961181640625
1445509757003;90.21453857421875;-125.01830291748047;-4.5392584800720215;2.55657958984375;-9.219223022460938;-3.085174560546875
1445509757036;94.9356689453125;-119.53486633300781;-1.8469996452331543;2.164306640625;-8.94464111328125;-1.084625244140625
1445509757070;102.55422973632812;-113.51956176757812;0.5935130715370178;0.8306121826171875;-11.082489013671875;0.19024658203125
1445509757103;106.59359741210938;-110.00936889648438;1.9671378135681152;0.242218017578125;-12.004318237304688;-0.2804718017578125
1445509757136;113.20338439941406;-103.23066711425781;4.0765380859375;-1.0718841552734375;-11.45513916015625;-2.006439208984375
1445509757169;114.86029052734375;-100.50827026367188;4.49549674987793;-2.05255126953125;-10.474472045898438;-1.5553436279296875
1445509757202;117.16900634765625;-97.2748031616211;4.481576442718506;-3.0920562744140625;-10.297958374023438;-1.692626953125
1445509757235;120.97256469726562;-93.67384338378906;5.36074686050415;-3.4450836181640625;-9.748779296875;-0.5550537109375
1445509757268;124.21800231933594;-91.62901306152344;6.135364532470703;-3.229339599609375;-9.827239990234375;-1.0257720947265625
1445509757301;129.1105194091797;-88.12554931640625;6.701503276824951;0.987518310546875;-9.96453857421875;-2.692901611328125
1445509757334;130.3648681640625;-86.93037414550781;6.609231472015381;-0.4638671875;-9.827239990234375;-1.771087646484375
1445509757367;133.45733642578125;-85.01696014404297;6.182308673858643;-0.85614013671875;-9.493820190429688;-1.2219085693359375
1445509757400;134.66995239257812;-83.54154968261719;5.277786731719971;-1.6798858642578125;-9.415359497070312;0.5236663818359375
1445509757433;134.57138061523438;-81.57312774658203;4.07527494430542;-1.9936981201171875;-10.396026611328125;0.01373291015625
1445509757466;134.89222717285156;-80.28654479980469;3.3316521644592285;-1.6995086669921875;-11.867019653320312;-0.3785400390625
1445509757499;135.62283325195312;-77.5741195678711;1.7322787046432495;-0.4246368408203125;-15.04437255859375;-0.1431732177734375
1445509757532;135.79515075683594;-76.65509033203125;1.219711184501648;-0.287353515625;-16.24078369140625;-1.084625244140625
1445509757565;133.9689178466797;-77.87782287597656;1.2784103155136108;0.4383392333984375;-14.318679809570312;-1.51611328125
1445509757598;129.04766845703125;-81.80866241455078;1.626556634902954;1.0855865478515625;-12.9261474609375;-4.3208160400390625
1445509757631;125.84664916992188;-84.5812759399414;1.3280085325241089;-0.1696624755859375;-15.358184814453125;-5.6937408447265625
1445509757663;123.50442504882812;-92.43455505371094;0.15977028012275696;-0.9345855712890625;-16.750732421875;-4.399261474609375
1445509757697;127.55912780761719;-99.97669219970703;1.4031617641448975;-1.169952392578125;-14.554046630859375;3.642181396484375
1445509757730;127.35891723632812;-102.73360443115234;1.8207294940948486;0.10491943359375;-11.90625;4.7013092041015625
1445509757766;124.99612426757812;-107.22010803222656;2.2247297763824463;-0.326568603515625;-9.807632446289062;0.01373291015625
1445509757796;117.15072631835938;-114.78595733642578;0.7097397446632385;-1.8171844482421875;-11.239395141601562;-2.7517547607421875
1445509757829;112.78890991210938;-119.11298370361328;-1.1200977563858032;-1.228790283203125;-9.944915771484375;-0.182403564453125
1445509757862;105.64984130859375;-126.86164093017578;-5.53678035736084;2.870391845703125;-7.3363494873046875;0.1510162353515625
1445509757895;103.09042358398438;-130.12928771972656;-7.774245738983154;2.43890380859375;-5.3946380615234375;0.4844512939453125
1445509757930;99.42514038085938;-135.40969848632812;-11.36622142791748;2.046630859375;-4.1982269287109375;0.641357421875
1445509757963;97.41543579101562;-138.0814208984375;-12.999349594116211;1.6935882568359375;-1.2366180419921875;-0.3197021484375
1445509757993;97.26858520507812;-138.41476440429688;-12.688641548156738;1.6935882568359375;-0.5501556396484375;-3.8108673095703125
1445509758026;97.34396362304688;-136.8984375;-11.311131477355957;2.3408355712890625;-1.2562255859375;-5.3799285888671875
1445509758059;95.91250610351562;-132.02772521972656;-10.420501708984375;4.2041015625;-9.611495971679688;-7.4981689453125
1445509758093;95.305419921875;-130.03033447265625;-9.411081314086914;2.38006591796875;-14.259841918945312;-5.9487152099609375
1445509758125;96.50900268554688;-126.5143051147461;-5.62237548828125;2.046630859375;-9.827239990234375;-2.8694305419921875
1445509758158;99.01513671875;-121.62273406982422;-2.030888557434082;3.380340576171875;-8.062042236328125;-2.1045074462890625
1445509758192;101.4691162109375;-118.95282745361328;-0.8313980102539062;3.63531494140625;-9.768402099609375;-1.6337890625
1445509758225;109.13204956054688;-113.15486145019531;1.6398296356201172;2.301605224609375;-11.10211181640625;-0.3197021484375
1445509758258;117.13548278808594;-105.87613677978516;4.491471767425537;-0.091217041015625;-10.6510009765625;-1.378814697265625
1445509758291;119.83685302734375;-102.15428161621094;5.551263809204102;-1.287628173828125;-10.7098388671875;-2.4183197021484375
1445509758323;123.80418395996094;-95.5330581665039;6.388283729553223;-1.8171844482421875;-9.925308227539062;-0.88848876953125
1445509758357;125.15728759765625;-92.92206573486328;6.269758701324463;-2.856689453125;-10.278350830078125;-1.1042327880859375
1445509758390;125.34185791015625;-90.02200317382812;5.870031833648682;-2.621337890625;-9.434967041015625;-1.261138916015625
1445509758423;125.24786376953125;-88.49019622802734;5.770979404449463;-1.8171844482421875;-8.630828857421875;0.01373291015625
1445509758455;127.99859619140625;-84.61317443847656;5.548448085784912;-1.9544830322265625;-8.415084838867188;0.1706390380859375
1445509758489;130.91326904296875;-81.70093536376953;5.974449157714844;-1.5818328857421875;-9.748779296875;-0.7315826416015625
1445509758522;133.29403686523438;-78.71080780029297;5.93471622467041;0.34027099609375;-9.846847534179688;-0.692352294921875
1445509758555;133.9934844970703;-77.33538055419922;5.385874271392822;0.7913818359375;-9.493820190429688;0.07257080078125
1445509758588;134.5441436767578;-75.17576599121094;3.9496941566467285;-0.5030975341796875;-9.415359497070312;0.8571014404296875
1445509758622;134.90817260742188;-74.1136245727539;3.381362199783325;-1.9544830322265625;-10.474472045898438;0.1510162353515625
1445509758654;136.76121520996094;-72.00920104980469;2.1934092044830322;-1.915252685546875;-10.984420776367188;0.2294769287109375
1445509758686;137.63491821289062;-70.6805191040039;1.0985205173492432;-0.7580718994140625;-11.90625;-0.3589324951171875
1445509758720;138.065673828125;-70.46550750732422;0.4093896150588989;-0.4442596435546875;-11.670883178710938;-1.6730194091796875
1445509758753;138.83009338378906;-71.60897064208984;-0.14753738045692444;-2.4448089599609375;-13.239959716796875;-3.202850341796875
1445509758785;136.98648071289062;-75.53252410888672;1.5832241773605347;-4.2688446044921875;-15.005157470703125;-3.6931915283203125
1445509758819;135.18215942382812;-79.14305877685547;2.513232946395874;-1.6798858642578125;-13.024200439453125;-2.7517547607421875
1445509758853;130.59597778320312;-88.12960815429688;3.595836877822876;-0.542327880859375;-14.279464721679688;-1.6141815185546875
1445509758884;128.7598419189453;-96.5627670288086;4.458472728729248;1.75244140625;-15.515090942382812;2.1123504638671875
1445509758922;128.13145446777344;-100.09162902832031;4.76426887512207;2.8899993896484375;-15.063995361328125;0.30792236328125
1445509758951;122.5010986328125;-106.78402709960938;4.135707855224609;-1.0718841552734375;-13.475311279296875;-2.08489990234375
1445509758983;113.77792358398438;-114.67439270019531;2.429786205291748;-3.0724334716796875;-13.2203369140625;0.994384765625
1445509759021;109.94123840332031;-119.5675277709961;1.114804983139038;-0.640380859375;-9.474197387695312;1.072845458984375
1445509759050;101.52352905273438;-127.49014282226562;-3.155872344970703;1.556304931640625;-7.9835968017578125;1.21014404296875
1445509759083;96.558837890625;-132.96868896484375;-6.489833354949951;3.1057586669921875;-5.41424560546875;0.111785888671875
1445509759117;95.04876708984375;-134.78697204589844;-7.604044437408447;2.61541748046875;-4.727783203125;-0.4766082763671875
1445509759149;93.56866455078125;-137.45306396484375;-8.262397766113281;3.1842041015625;-4.1786041259765625;-3.0067291259765625
1445509759182;92.925048828125;-138.28656005859375;-8.348102569580078;2.125091552734375;-4.4924163818359375;-4.909210205078125
1445509759215;90.48947143554688;-138.77310180664062;-9.354653358459473;1.556304931640625;-5.276947021484375;-5.8898773193359375
1445509759251;88.1976318359375;-138.13821411132812;-10.236849784851074;2.125091552734375;-5.041595458984375;-6.3998260498046875
1445509759282;87.0377197265625;-137.39576721191406;-10.603858947753906;4.4786834716796875;-6.630279541015625;-7.125518798828125
1445509759314;85.72286987304688;-134.7471466064453;-10.765007019042969;6.4203948974609375;-10.278350830078125;-6.3409881591796875
1445509759346;85.80230712890625;-131.83424377441406;-9.264551162719727;4.7336578369140625;-8.1405029296875;-3.771636962890625
1445509759379;86.11929321289062;-129.85934448242188;-7.419293403625488;2.419281005859375;-6.49298095703125;-3.595123291015625
1445509759415;88.83877563476562;-124.84988403320312;-2.2584028244018555;0.3991241455078125;-9.140777587890625;-0.4373779296875
1445509759446;93.63626098632812;-119.14315032958984;1.4775267839431763;1.8308868408203125;-12.435806274414062;0.6609649658203125
1445509759479;96.634521484375;-116.25711822509766;2.7886085510253906;1.497467041015625;-12.161224365234375;-1.771087646484375
1445509759512;102.06192016601562;-109.72830963134766;5.2983317375183105;0.0068511962890625;-11.141326904296875;-0.751190185546875
1445509759546;104.08222961425781;-106.38111114501953;6.326468467712402;-0.7972869873046875;-10.670608520507812;-0.810028076171875
1445509759579;108.48190307617188;-100.5204086303711;7.836883068084717;-1.0130462646484375;-10.7686767578125;-1.3592071533203125
1445509759613;111.12216186523438;-96.3370590209961;8.035886764526367;-2.68017578125;-11.259017944335938;-3.0067291259765625
1445509759644;112.19732666015625;-94.7416000366211;8.199451446533203;-3.7000579833984375;-10.415634155273438;-2.2221832275390625
1445509759676;119.12516784667969;-90.5069351196289;9.950521469116211;-2.91552734375;-10.297958374023438;-1.1630706787109375
1445509759710;122.6751708984375;-87.06971740722656;10.197720527648926;0.8109893798828125;-9.3369140625;-1.143463134765625
1445509759743;123.16653442382812;-85.89552307128906;10.023676872253418;0.0068511962890625;-9.180007934570312;-1.1630706787109375
1445509759777;124.37960815429688;-84.05352020263672;9.45980167388916;-1.2483978271484375;-9.395751953125;-0.7315826416015625
1445509759808;124.70159912109375;-83.3982925415039;8.656630516052246;-1.15032958984375;-9.493820190429688;-0.751190185546875
1445509759841;124.78761291503906;-83.18267059326172;8.184002876281738;-1.09149169921875;-9.631103515625;-0.868865966796875
1445509759875;125.27401733398438;-81.9388656616211;6.904134273529053;-0.58154296875;-9.866470336914062;0.5236663818359375
1445509759908;125.69598388671875;-80.76668548583984;6.128769397735596;-0.267730712890625;-12.396575927734375;3.1126251220703125
1445509759940;125.95565795898438;-77.81964111328125;5.146302223205566;-1.0130462646484375;-15.573944091796875;2.9164886474609375
1445509759974;125.55622863769531;-76.72480773925781;4.355168342590332;0.3206634521484375;-14.907089233398438;-2.8890380859375
1445509760007;124.35054016113281;-77.48578643798828;4.092343807220459;-0.542327880859375;-12.730010986328125;-3.712799072265625
1445509760039;121.69856262207031;-81.58137512207031;3.838543176651001;-0.4442596435546875;-13.455703735351562;-4.163909912109375
1445509760073;119.65631103515625;-84.63130187988281;3.7889020442962646;-1.287628173828125;-15.299346923828125;-4.163909912109375
1445509760106;117.50506591796875;-92.4006576538086;3.5954058170318604;-0.97381591796875;-15.4954833984375;-1.202301025390625
1445509760138;118.786376953125;-99.68997955322266;4.313632965087891;-0.3069610595703125;-12.769241333007812;2.1319580078125
1445509760171;117.58296203613281;-105.32563781738281;5.386368274688721;-0.8169097900390625;-10.847137451171875;0.994384765625
1445509760205;116.222900390625;-108.47602081298828;5.900518417358398;-2.5232696533203125;-11.572830200195312;-0.5942840576171875
1445509760238;108.00747680664062;-116.73875427246094;4.379997253417969;-1.522979736328125;-11.612045288085938;-0.5942840576171875
1445509760271;103.0206298828125;-121.49906158447266;2.224656581878662;0.0853118896484375;-8.415084838867188;0.2883148193359375
1445509760304;95.41793823242188;-130.1531219482422;-2.9259397983551025;1.6935882568359375;-6.8460235595703125;0.562896728515625
1445509760336;90.64776611328125;-136.65017700195312;-7.911241054534912;2.6546478271484375;-4.4532012939453125;0.2294769287109375
1445509760370;88.9144287109375;-139.05227661132812;-9.936443328857422;2.066253662109375;-2.7468414306640625;0.0921783447265625
1445509760403;87.14056396484375;-141.7137908935547;-11.462294578552246;2.2231597900390625;-1.2562255859375;-1.1630706787109375
1445509760436;86.2158203125;-141.59878540039062;-10.793281555175781;2.419281005859375;-0.9816436767578125;-3.4970550537109375
1445509760469;85.73745727539062;-140.53236389160156;-9.922430038452148;2.32122802734375;-1.570037841796875;-4.144287109375
1445509760503;85.08810424804688;-135.86257934570312;-7.995269775390625;4.380615234375;-5.53192138671875;-7.5766143798828125
1445509760536;85.51885986328125;-130.6230926513672;-6.111525535583496;6.8126678466796875;-17.966766357421875;-9.557571411132812
1445509760571;86.26519775390625;-128.5695037841797;-4.664910316467285;1.2817230224609375;-13.49493408203125;-4.4384918212890625
1445509760601;89.2733154296875;-123.3201675415039;-0.7397539615631104;2.2623748779296875;-5.8653564453125;-2.1045074462890625
1445509760634;91.91632080078125;-120.33464050292969;0.7304658889770508;2.752716064453125;-9.729171752929688;-0.810028076171875
1445509760666;100.365478515625;-113.73886108398438;3.5727157592773438;1.3993988037109375;-11.827789306640625;-0.300079345703125
1445509760700;107.7777099609375;-106.05648803710938;6.4188103675842285;-0.8757476806640625;-11.023651123046875;-1.00616455078125
1445509760733;109.65185546875;-102.5339126586914;7.191356182098389;-1.7583465576171875;-10.8275146484375;-2.02606201171875
1445509760766;110.64019775390625;-98.4420394897461;6.894557476043701;-2.3859710693359375;-10.552932739257812;-2.006439208984375
1445509760798;109.51112365722656;-96.16919708251953;6.112370491027832;-2.7586212158203125;-10.31756591796875;-1.2415313720703125
1445509760838;110.87429809570312;-94.52386474609375;6.531434059143066;-3.54315185546875;-9.572265625;0.07257080078125
1445509760865;116.29348754882812;-90.23615264892578;8.225675582885742;-2.0133209228515625;-9.552658081054688;-0.6138916015625
1445509760898;117.85116577148438;-86.98357391357422;8.058767318725586;2.1446990966796875;-9.670333862304688;-1.9083709716796875
1445509760931;118.77903747558594;-85.90282440185547;7.862800121307373;0.2618255615234375;-9.90570068359375;-1.574951171875
1445509760964;120.47845458984375;-84.1858139038086;7.2838826179504395;-1.1307220458984375;-9.356521606445312;-0.810028076171875
1445509760997;120.28761291503906;-83.60871887207031;6.917611122131348;-1.9544830322265625;-9.807632446289062;0.2294769287109375
1445509761030;119.50575256347656;-82.0516128540039;5.834814071655273;-1.8760223388671875;-10.101821899414062;0.052947998046875
1445509761063;119.26031494140625;-79.72576904296875;4.250174045562744;0.242218017578125;-13.90679931640625;-0.1431732177734375
1445509761096;119.128662109375;-78.69519805908203;3.450615406036377;-1.03265380859375;-16.888031005859375;-0.6531219482421875
1445509761129;118.81208801269531;-77.51300811767578;2.4493517875671387;-0.01275634765625;-15.809295654296875;-1.6730194091796875
1445509761162;116.31448364257812;-79.81282806396484;2.480780839920044;0.654083251953125;-12.396575927734375;-3.6147308349609375
1445509761194;114.28506469726562;-81.96452331542969;2.6351516246795654;0.2618255615234375;-13.49493408203125;-5.1249542236328125
1445509761229;109.34661865234375;-88.40370178222656;2.434591770172119;-0.6207733154296875;-14.730560302734375;-4.8896026611328125
1445509761262;108.00906372070312;-97.21646881103516;2.2440483570098877;-1.169952392578125;-15.5543212890625;0.9159393310546875
1445509761293;109.4012451171875;-100.75175476074219;3.086383104324341;-0.91497802734375;-13.573379516601562;2.504608154296875
1445509761330;109.64788818359375;-105.42063903808594;4.96915340423584;-0.228515625;-10.474472045898438;0.759033203125
1445509761360;102.87860107421875;-111.3763656616211;4.959862232208252;-2.1898345947265625;-10.690231323242188;-0.4569854736328125
1445509761393;98.30484008789062;-115.9429702758789;3.88325572013855;-2.5036468505859375;-10.572540283203125;-0.4569854736328125
1445509761426;89.52520751953125;-125.25220489501953;-0.17879073321819305;-0.0519866943359375;-9.219223022460938;-0.4766082763671875
1445509761459;85.7529296875;-129.3297119140625;-2.9305837154388428;2.55657958984375;-6.6498870849609375;0.3471527099609375
1445509761491;81.35293579101562;-136.34152221679688;-7.784454345703125;2.8311614990234375;-5.276947021484375;0.445220947265625
1445509761525;79.41363525390625;-140.4003448486328;-10.752638816833496;2.7723236083984375;-3.0410308837890625;0.24908447265625
1445509761558;79.06332397460938;-141.22181701660156;-11.163782119750977;2.301605224609375;-2.138824462890625;-0.7904205322265625
1445509761591;78.90435791015625;-141.22171020507812;-10.51284122467041;2.301605224609375;-1.64849853515625;-3.712799072265625
1445509761623;78.33135986328125;-138.31980895996094;-9.350189208984375;2.8899993896484375;-3.13909912109375;-7.811981201171875
1445509761658;78.13348388671875;-135.87969970703125;-8.361701965332031;4.4198455810546875;-12.220062255859375;-7.7335205078125
1445509761690;78.97665405273438;-131.19000244140625;-5.86241340637207;4.517913818359375;-15.907363891601562;-6.223297119140625
1445509761723;81.24542236328125;-126.5846939086914;-2.3334877490997314;2.3408355712890625;-8.454315185546875;-3.16363525390625
1445509761755;82.95486450195312;-123.85955810546875;-0.7405343651771545;2.49774169921875;-7.297119140625;-2.3006439208984375
1445509761789;89.61721801757812;-118.12714385986328;1.8172937631607056;2.67425537109375;-9.317291259765625;-1.5553436279296875
1445509761822;93.65750122070312;-114.9909896850586;3.2080795764923096;0.34027099609375;-10.788284301757812;-0.7119598388671875
1445509761855;100.41558837890625;-108.00714111328125;6.039798259735107;-0.91497802734375;-10.5333251953125;-0.9080963134765625
1445509761888;103.9049072265625;-101.87482452392578;7.332372665405273;-2.5232696533203125;-10.7686767578125;-2.065277099609375
1445509761921;105.53005981445312;-99.82125091552734;7.377445697784424;-2.621337890625;-10.297958374023438;-1.8495330810546875
1445509761953;106.82325744628906;-96.9032211303711;7.15245246887207;-2.05255126953125;-10.435256958007812;-1.496490478515625
1445509761987;111.60018920898438;-93.00484466552734;8.359912872314453;-2.856689453125;-10.219512939453125;-1.378814697265625
1445509762021;114.87094116210938;-90.84720611572266;9.184653282165527;-2.856689453125;-10.062606811523438;-1.378814697265625
1445509762053;117.87226867675781;-87.26744842529297;9.475289344787598;1.222869873046875;-9.45458984375;-1.771087646484375
1445509762086;119.67340087890625;-84.81338500976562;8.880773544311523;-0.7384490966796875;-9.90570068359375;-1.6141815185546875
1445509762119;120.36996459960938;-84.04192352294922;8.544962882995605;-0.97381591796875;-9.709564208984375;-1.574951171875
1445509762153;120.43495178222656;-83.58047485351562;7.926420211791992;-1.5622100830078125;-9.729171752929688;-0.868865966796875
1445509762184;120.04574584960938;-83.39772033691406;7.502414226531982;-1.3072357177734375;-10.121444702148438;-0.005889892578125
1445509762218;120.09870910644531;-81.88255310058594;6.123692512512207;-0.208892822265625;-11.259017944335938;0.759033203125
1445509762250;120.09059143066406;-79.97582244873047;4.7376627922058105;-0.7384490966796875;-15.985809326171875;1.8377685546875
1445509762286;120.11642456054688;-78.57111358642578;3.741264581680298;0.0853118896484375;-15.907363891601562;-0.77081298828125
1445509762317;119.32080078125;-79.08402252197266;3.3750967979431152;1.222869873046875;-14.593276977539062;-1.7318572998046875
1445509762350;116.41696166992188;-81.88018035888672;2.949753522872925;0.3991241455078125;-11.984695434570312;-3.653961181640625
1445509762382;114.71047973632812;-84.03308868408203;2.8996469974517822;0.16375732421875;-13.0438232421875;-4.1246795654296875
1445509762415;111.65576171875;-90.35303497314453;2.5710065364837646;-0.6992340087890625;-15.299346923828125;-3.8108673095703125
1445509762449;113.67185974121094;-97.8158187866211;3.2841081619262695;-0.6207733154296875;-14.377532958984375;0.3471527099609375
1445509762482;114.80415344238281;-100.87356567382812;4.0219550132751465;-0.091217041015625;-12.337738037109375;1.9946746826171875
1445509762515;114.65852355957031;-106.36148071289062;5.474664211273193;0.1833648681640625;-10.239120483398438;1.876983642578125
1445509762547;113.44950866699219;-108.96331024169922;6.331668376922607;-1.6995086669921875;-11.631668090820312;-3.026336669921875
1445509762581;106.88444519042969;-116.39895629882812;5.656856060028076;-1.111114501953125;-11.33746337890625;-2.3006439208984375
1445509762615;98.62249755859375;-124.53368377685547;1.8000645637512207;-0.150054931640625;-9.3369140625;0.24908447265625
1445509762647;95.3134765625;-128.6381072998047;-0.3160702884197235;2.4781341552734375;-6.865631103515625;-0.633514404296875
1445509762680;90.70419311523438;-135.84112548828125;-4.648520469665527;3.1057586669921875;-5.786895751953125;-0.3981475830078125
1445509762714;88.9600830078125;-140.7892303466797;-8.090856552124023;2.9096221923828125;-3.6098175048828125;-0.241241455078125
1445509762745;88.80352783203125;-142.2777557373047;-8.984764099121094;2.929229736328125;-3.3548583984375;-0.4766082763671875
1445509762783;89.33078002929688;-143.57412719726562;-9.350172996520996;2.8507843017578125;-2.197662353515625;-1.9279937744140625
1445509762812;90.49224853515625;-143.05126953125;-8.498359680175781;2.32122802734375;-2.3153533935546875;-4.968048095703125
1445509762844;91.0272216796875;-141.91561889648438;-8.040735244750977;2.046630859375;-3.2567901611328125;-6.5763397216796875
1445509762877;90.97909545898438;-137.70010375976562;-7.136507511138916;3.046905517578125;-7.12060546875;-8.478836059570312
1445509762911;91.09268188476562;-132.57191467285156;-4.461864471435547;3.262664794921875;-15.122833251953125;-9.675247192382812
1445509762944;91.61087036132812;-130.1700897216797;-3.23776912689209;2.752716064453125;-15.868133544921875;-6.3802032470703125
1445509762982;94.4898681640625;-125.34651947021484;0.21786989271640778;3.7725982666015625;-7.434417724609375;-4.0462188720703125
1445509763010;97.0906982421875;-122.60879516601562;1.7510619163513184;4.007965087890625;-8.003204345703125;-1.496490478515625
1445509763043;105.4959716796875;-116.44283294677734;4.583584785461426;3.2822723388671875;-9.670333862304688;-0.9669342041015625
1445509763075;114.93765258789062;-109.08553314208984;7.578587532043457;0.3206634521484375;-10.572540283203125;-0.3589324951171875
1445509763112;119.023681640625;-105.21869659423828;8.928744316101074;-2.5624847412109375;-10.042984008789062;-2.2418060302734375
1445509763142;124.52479553222656;-98.64188385009766;10.232765197753906;-3.2685699462890625;-9.886077880859375;-2.26141357421875
1445509763175;128.3076629638672;-94.30079650878906;10.012124061584473;-3.680450439453125;-10.631378173828125;-1.6141815185546875
1445509763208;129.33143615722656;-92.75437927246094;10.086629867553711;-2.739013671875;-10.611770629882812;-1.12384033203125
1445509763242;133.19723510742188;-89.8449478149414;10.379749298095703;-1.5622100830078125;-10.003753662109375;-0.810028076171875
1445509763274;140.65211486816406;-86.25115203857422;11.077417373657227;-0.836517333984375;-9.788009643554688;-0.064727783203125
1445509763307;144.11900329589844;-84.43595886230469;11.127493858337402;0.8502197265625;-10.08221435546875;-0.9669342041015625
1445509763340;147.5084228515625;-82.02766418457031;10.551175117492676;-1.3268585205078125;-10.278350830078125;-0.5942840576171875
1445509763372;149.08055114746094;-81.32129669189453;10.268034934997559;-2.4644317626953125;-9.748779296875;-0.4569854736328125
1445509763405;151.86135864257812;-80.59073638916016;9.607951164245605;-1.9348602294921875;-9.356521606445312;0.445220947265625
1445509763439;153.41192626953125;-80.23087310791016;8.713844299316406;-1.346466064453125;-9.925308227539062;0.01373291015625
1445509763473;154.27000427246094;-79.92816162109375;7.907772541046143;-0.405029296875;-11.121719360351562;0.9747772216796875
1445509763505;156.21231079101562;-78.83627319335938;5.934493541717529;-0.34619140625;-11.90625;1.6612396240234375
1445509763537;158.63487243652344;-77.33427429199219;4.133472442626953;0.5756378173828125;-15.5543212890625;1.876983642578125
1445509763571;160.66384887695312;-76.7066650390625;3.254997730255127;0.28143310546875;-16.946868896484375;1.9358367919921875
1445509763603;163.21658325195312;-77.36869812011719;2.351196050643921;0.8894500732421875;-13.710678100585938;-1.692626953125
1445509763637;164.0986785888672;-80.32867431640625;2.60037899017334;-0.091217041015625;-11.004043579101562;-3.57550048828125
1445509763670;163.8566131591797;-82.58880615234375;3.3021273612976074;-0.6992340087890625;-10.9451904296875;-2.9282684326171875
1445509763703;165.95849609375;-87.44090270996094;5.195382595062256;-1.464141845703125;-12.53387451171875;-0.6531219482421875
1445509763736;170.24891662597656;-89.40013122558594;6.304486274719238;1.9485626220703125;-10.611770629882812;1.8573760986328125
1445509763768;177.10958862304688;-92.82322692871094;6.981929302215576;4.459075927734375;-10.9451904296875;-2.1829681396484375
1445509763802;176.93421936035156;-98.92818450927734;4.981531143188477;5.2436065673828125;-8.905410766601562;-1.0257720947265625
1445509763834;177.89476013183594;-101.06068420410156;4.498014450073242;3.6549224853515625;-6.865631103515625;2.0535125732421875
1445509763870;180.3846435546875;-103.36479187011719;3.6732404232025146;0.869842529296875;-7.434417724609375;0.935546875
1445509763901;181.74847412109375;-106.4128189086914;2.651494026184082;-2.307525634765625;-9.180007934570312;-1.261138916015625
1445509763937;182.781005859375;-107.53073120117188;1.9526925086975098;0.8109893798828125;-5.47308349609375;0.1706390380859375
1445509763966;185.83929443359375;-108.06952667236328;0.2710532248020172;2.164306640625;-4.3159027099609375;-0.064727783203125
