sep=;
timestamp;gyro-alpha;gyro-beta;gyro-gamma;accel-x;accel-y;accel-z
1445421185427;84.688720703125;-95.22239685058594;-8.598058700561523;2.3408355712890625;-9.199615478515625;1.1120758056640625
1445421185462;83.77630615234375;-99.21062469482422;-8.634512901306152;1.24249267578125;-8.395462036132812;1.50433349609375
1445421185493;81.0897216796875;-102.60340118408203;-8.61746597290039;1.497467041015625;-7.35595703125;1.3670501708984375
1445421185526;79.20166015625;-104.05363464355469;-8.820297241210938;3.0272979736328125;-5.2573394775390625;2.0731201171875
1445421185559;75.2520751953125;-106.17664337158203;-10.039451599121094;3.2822723388671875;-4.413970947265625;2.269256591796875
1445421185592;72.7347412109375;-106.25247955322266;-11.566487312316895;2.7919464111328125;-4.923919677734375;0.9747772216796875
1445421185626;71.51873779296875;-103.3026351928711;-11.588388442993164;2.125091552734375;-9.297683715820312;-1.3395843505859375
1445421185659;71.83526611328125;-101.21484375;-11.009264945983887;3.1449737548828125;-11.39630126953125;-4.8307647705078125
1445421185692;73.564208984375;-98.75386047363281;-10.319657325744629;3.7725982666015625;-12.690780639648438;-7.94927978515625
1445421185724;73.7010498046875;-98.51988220214844;-10.17731761932373;3.046905517578125;-11.768951416015625;-4.968048095703125
1445421185758;73.20999145507812;-99.04463195800781;-9.50831413269043;3.498016357421875;-9.12115478515625;-4.36004638671875
1445421185791;73.85000610351562;-99.80774688720703;-9.752628326416016;5.322052001953125;-12.29852294921875;-0.2608642578125
1445421185826;75.0079345703125;-99.39691162109375;-9.962789535522461;5.5377960205078125;-12.494644165039062;-1.7906951904296875
1445421185858;79.41778564453125;-98.03759002685547;-9.498287200927734;4.439453125;-8.513153076171875;2.0142822265625
1445421185891;82.5533447265625;-97.15030670166016;-8.609991073608398;3.439178466796875;-7.434417724609375;5.348541259765625
1445421185922;84.05252075195312;-95.33252716064453;-8.229827880859375;2.9488525390625;-10.121444702148438;4.0736846923828125
1445421185955;87.134521484375;-90.46923828125;-7.343296051025391;1.0071258544921875;-12.278900146484375;3.1126251220703125
1445421185988;89.22860717773438;-88.90190887451172;-6.643446922302246;1.5170745849609375;-9.984146118164062;2.70074462890625
1445421186023;93.05255126953125;-86.22710418701172;-5.427948951721191;1.4582366943359375;-8.591598510742188;3.1714630126953125
1445421186054;97.35687255859375;-83.74539184570312;-5.083014965057373;1.6543731689453125;-9.395751953125;2.6811370849609375
1445421186088;100.2630615234375;-82.56259155273438;-5.239615440368652;1.3797760009765625;-10.494094848632812;2.46539306640625
1445421186121;106.29629516601562;-80.6222152709961;-5.694613933563232;0.7521514892578125;-10.494094848632812;2.5438385009765625
1445421186154;112.47842407226562;-79.23789978027344;-6.129408359527588;-0.326568603515625;-10.8275146484375;2.40655517578125
1445421186186;115.50515747070312;-78.9295425415039;-6.423878192901611;-0.01275634765625;-10.631378173828125;1.7397003173828125
1445421186219;121.70677185058594;-78.92503356933594;-7.175512313842773;0.595245361328125;-10.062606811523438;2.0338897705078125
1445421186252;128.6709747314453;-79.4967041015625;-7.97330379486084;0.7913818359375;-9.023101806640625;2.2300262451171875
1445421186286;132.2426300048828;-79.9334487915039;-8.277729988098145;-0.34619140625;-8.82696533203125;2.386932373046875
1445421186319;140.6262664794922;-81.12701416015625;-8.629197120666504;-2.22906494140625;-10.376419067382812;1.56317138671875
1445421186352;145.55120849609375;-82.0403060913086;-8.79463005065918;1.3405609130859375;-11.572830200195312;-0.88848876953125
1445421186384;155.01947021484375;-85.4957504272461;-9.99254035949707;3.75299072265625;-10.31756591796875;-0.6138916015625
1445421186420;163.66513061523438;-90.4137954711914;-12.374619483947754;7.8521728515625;-11.141326904296875;1.131683349609375
1445421186450;167.5142059326172;-92.58263397216797;-13.561888694763184;6.0477447509765625;-11.376693725585938;2.6811370849609375
1445421186484;174.72315979003906;-96.64518737792969;-15.560711860656738;3.8510589599609375;-10.670608520507812;2.1319580078125
1445421186517;182.7021484375;-98.98893737792969;-16.953540802001953;1.497467041015625;-10.08221435546875;0.8374786376953125
1445421186551;185.42498779296875;-99.50211334228516;-18.019515991210938;0.9678955078125;-8.925033569335938;-0.2608642578125
1445421186582;190.5362548828125;-100.83241271972656;-19.927831649780273;1.1444244384765625;-8.748504638671875;-0.88848876953125
1445421186616;195.978515625;-101.8123550415039;-21.28487777709961;1.53668212890625;-8.689666748046875;-1.496490478515625
1445421186653;198.697509765625;-102.18096923828125;-21.905826568603516;1.9681854248046875;-8.415084838867188;-1.6730194091796875
1445421186682;203.65069580078125;-102.57730102539062;-23.071252822875977;2.693878173828125;-8.297409057617188;-1.6337890625
1445421186715;208.4290771484375;-102.36327362060547;-23.831993103027344;2.73309326171875;-8.650436401367188;-1.829925537109375
1445421186747;211.06707763671875;-102.26232147216797;-24.056306838989258;2.3996734619140625;-8.905410766601562;-2.26141357421875
1445421186780;217.15032958984375;-102.57808685302734;-24.14017677307129;2.38006591796875;-9.317291259765625;-3.34014892578125
1445421186814;219.9281005859375;-102.88839721679688;-24.071048736572266;1.791656494140625;-9.45458984375;-4.3796539306640625
1445421186847;223.2259521484375;-102.94524383544922;-24.069055557250977;1.75244140625;-9.081939697265625;-4.1835174560546875
1445421186880;225.35028076171875;-102.80628204345703;-23.740924835205078;3.3411102294921875;-8.081649780273438;-4.1835174560546875
1445421186912;226.43212890625;-102.59921264648438;-23.465164184570312;5.086700439453125;-8.4935302734375;-3.0459442138671875
1445421186946;228.4871826171875;-101.46415710449219;-22.98861312866211;6.224273681640625;-10.572540283203125;-3.34014892578125
1445421186978;231.08062744140625;-99.8245849609375;-22.418561935424805;5.5574188232421875;-10.02337646484375;-1.829925537109375
1445421187015;232.63027954101562;-99.39635467529297;-21.89689826965332;4.380615234375;-7.63055419921875;2.779205322265625
1445421187045;237.71871948242188;-98.21546936035156;-20.664695739746094;3.6745452880859375;-8.905410766601562;2.3673248291015625
1445421187077;240.21832275390625;-96.57279205322266;-20.00180435180664;-0.326568603515625;-11.10211181640625;2.4261627197265625
1445421187110;243.68569946289062;-92.92330932617188;-18.05188751220703;-0.3069610595703125;-11.043258666992188;2.40655517578125
1445421187143;247.7760009765625;-90.25831604003906;-15.326803207397461;1.615142822265625;-10.278350830078125;1.56317138671875
1445421187177;249.9322509765625;-88.95793914794922;-14.153454780578613;2.046630859375;-9.788009643554688;1.641632080078125
1445421187210;254.857421875;-86.47400665283203;-12.52914047241211;1.1444244384765625;-9.984146118164062;1.7200775146484375
1445421187242;259.737060546875;-84.11847686767578;-11.307893753051758;1.41900634765625;-9.886077880859375;1.26898193359375
1445421187276;262.26702880859375;-83.06828308105469;-11.026759147644043;1.164031982421875;-10.08221435546875;0.7001953125
1445421187308;266.55621337890625;-81.5558090209961;-10.943580627441406;0.5756378173828125;-10.435256958007812;0.7198028564453125
1445421187342;270.9964599609375;-80.41824340820312;-10.74184799194336;0.242218017578125;-10.101821899414062;1.3670501708984375
1445421187375;273.2320556640625;-79.81556701660156;-10.682510375976562;1.556304931640625;-9.611495971679688;1.6220245361328125
1445421187407;276.59185791015625;-78.43071746826172;-11.18520450592041;1.8308868408203125;-9.415359497070312;1.7789306640625
1445421187441;278.72283935546875;-76.57134246826172;-12.501090049743652;0.7325439453125;-9.866470336914062;2.58306884765625
1445421187475;279.6941833496094;-75.54380798339844;-13.146931648254395;0.8894500732421875;-11.200164794921875;0.680572509765625
1445421187508;281.40972900390625;-73.988037109375;-13.90687370300293;1.438629150390625;-11.435531616210938;0.13140869140625
1445421187540;284.1249694824219;-73.62804412841797;-14.8046293258667;1.5955352783203125;-11.141326904296875;-0.3197021484375
1445421187572;285.35809326171875;-73.82925415039062;-15.12488079071045;1.3405609130859375;-11.298233032226562;-1.2219085693359375
1445421187605;286.4513854980469;-74.58956146240234;-15.189196586608887;-1.4837646484375;-13.455703735351562;-0.94732666015625
1445421187638;286.08251953125;-75.57355499267578;-14.69804859161377;-0.6992340087890625;-13.514541625976562;-1.1042327880859375
1445421187672;284.5899353027344;-79.60345458984375;-13.337082862854004;0.7717742919921875;-12.671173095703125;-0.9865570068359375
1445421187705;283.84954833984375;-86.81230163574219;-12.625655174255371;4.753265380859375;-13.475311279296875;1.6612396240234375
1445421187737;283.9591979980469;-90.7203369140625;-12.641814231872559;5.3416748046875;-12.828079223632812;3.3675994873046875
1445421187770;285.50042724609375;-96.54989624023438;-12.325397491455078;2.8311614990234375;-11.200164794921875;2.092742919921875
1445421187804;285.83331298828125;-98.87384796142578;-12.03857421875;1.3797760009765625;-11.298233032226562;1.249359130859375
1445421187836;286.07958984375;-102.98941802978516;-11.281536102294922;0.9090576171875;-10.101821899414062;1.3670501708984375
1445421187870;284.56536865234375;-106.34783935546875;-10.542523384094238;0.3991241455078125;-8.160110473632812;1.9162139892578125
1445421187902;280.4002380371094;-109.765869140625;-10.748908042907715;1.7132110595703125;-6.747955322265625;1.759307861328125
1445421187935;278.1784362792969;-110.96272277832031;-11.299079895019531;2.7723236083984375;-5.6496124267578125;2.2888641357421875
1445421187968;274.34930419921875;-111.67708587646484;-12.543404579162598;3.1253662109375;-5.0219879150390625;1.759307861328125
1445421188002;273.3056945800781;-111.2890396118164;-12.875203132629395;3.2430419921875;-6.414520263671875;0.30792236328125
1445421188034;272.7326965332031;-108.59574890136719;-12.870362281799316;3.2822723388671875;-9.12115478515625;-1.947601318359375
1445421188068;273.6563720703125;-104.89976501464844;-12.137215614318848;2.0074005126953125;-15.417037963867188;-10.0086669921875
1445421188103;273.32470703125;-104.03905487060547;-12.15306282043457;1.732818603515625;-12.043548583984375;-5.8898773193359375
1445421188133;270.0766906738281;-104.40370178222656;-12.451692581176758;1.438629150390625;-8.807342529296875;-3.45782470703125
1445421188167;269.8950500488281;-105.12864685058594;-12.538750648498535;4.812103271484375;-10.513702392578125;0.759033203125
1445421188199;271.6650695800781;-104.88064575195312;-12.714105606079102;5.8123931884765625;-11.592437744140625;0.30792236328125
1445421188233;276.1111145019531;-103.4859390258789;-12.3427095413208;4.517913818359375;-9.533035278320312;0.36676025390625
1445421188265;280.7741394042969;-102.57196807861328;-11.013931274414062;3.498016357421875;-7.57171630859375;3.5441131591796875
1445421188299;282.6409912109375;-100.93758392333984;-10.454906463623047;3.2430419921875;-8.88580322265625;3.0341796875
1445421188331;283.27899169921875;-96.405029296875;-10.521656036376953;-0.836517333984375;-11.023651123046875;2.2888641357421875
1445421188365;282.524169921875;-94.11186218261719;-10.149574279785156;-1.346466064453125;-10.866744995117188;0.876708984375
1445421188397;283.24365234375;-92.63302612304688;-9.349435806274414;-0.267730712890625;-10.101821899414062;1.7200775146484375
1445421188431;285.7561340332031;-88.99518585205078;-7.752105712890625;2.67425537109375;-8.670059204101562;0.876708984375
1445421188464;287.0014343261719;-87.16443634033203;-7.505910396575928;3.1057586669921875;-8.964248657226562;0.5236663818359375
1445421188496;289.4643859863281;-84.18829345703125;-8.092948913574219;1.8897247314453125;-9.709564208984375;0.641357421875
1445421188530;291.9150390625;-82.02373504638672;-8.74450397491455;1.105194091796875;-9.650726318359375;0.759033203125
1445421188562;292.5619201660156;-81.01405334472656;-9.158182144165039;0.8109893798828125;-9.768402099609375;1.0532379150390625
1445421188595;293.69195556640625;-79.1971664428711;-10.255146026611328;0.8894500732421875;-9.96453857421875;1.7200775146484375
1445421188629;294.186279296875;-77.02696228027344;-11.666586875915527;0.7717742919921875;-10.631378173828125;1.38665771484375
1445421188661;294.5022277832031;-76.06806182861328;-12.33667278289795;0.6344757080078125;-11.239395141601562;0.896331787109375
1445421188695;295.307373046875;-75.28535461425781;-13.225625991821289;0.34027099609375;-12.102386474609375;0.01373291015625
1445421188727;295.796875;-75.35359954833984;-13.553382873535156;-0.91497802734375;-13.769515991210938;-0.4373779296875
1445421188761;295.4763488769531;-75.9696044921875;-13.454453468322754;-1.6602783203125;-15.260116577148438;-1.4180450439453125
1445421188794;293.65155029296875;-79.0915756225586;-12.04753589630127;0.4383392333984375;-13.357635498046875;-3.144012451171875
1445421188826;293.1535339355469;-82.18667602539062;-11.456228256225586;2.693878173828125;-12.886917114257812;3.093017578125
1445421188860;291.14892578125;-88.79193115234375;-11.040489196777344;3.4784088134765625;-12.965362548828125;4.6816864013671875
1445421188893;289.7181091308594;-93.89936828613281;-10.692782402038574;2.929229736328125;-12.671173095703125;2.5438385009765625
1445421188926;290.0641174316406;-96.53964233398438;-10.085001945495605;4.243316650390625;-11.239395141601562;1.9554443359375
1445421188959;290.6612854003906;-100.84100341796875;-9.316972732543945;4.32177734375;-9.552658081054688;1.465118408203125
1445421188992;288.65667724609375;-104.17941284179688;-9.279630661010742;2.2035369873046875;-6.630279541015625;0.759033203125
1445421189025;287.07183837890625;-106.82323455810547;-9.31005859375;2.360443115234375;-6.1987762451171875;1.0532379150390625
1445421189058;282.6610412597656;-110.83689880371094;-10.33315372467041;2.67425537109375;-5.0808258056640625;1.8377685546875
1445421189091;280.1934814453125;-112.92018127441406;-11.857612609863281;2.67425537109375;-3.6098175048828125;1.6024017333984375
1445421189124;279.8970947265625;-113.01053619384766;-12.307387351989746;2.10546875;-4.3159027099609375;0.3471527099609375
1445421189158;279.0671081542969;-110.34394836425781;-13.000612258911133;1.5170745849609375;-9.886077880859375;-3.261688232421875
1445421189189;278.0911865234375;-107.98197937011719;-13.157238006591797;3.75299072265625;-14.004867553710938;-8.478836059570312
1445421189224;277.5843505859375;-104.07845306396484;-12.975468635559082;4.4002227783203125;-12.59271240234375;-7.4589385986328125
1445421189255;276.02642822265625;-103.63882446289062;-13.468170166015625;5.380889892578125;-11.867019653320312;-3.0459442138671875
1445421189290;275.7584533691406;-104.08946228027344;-13.745387077331543;5.3416748046875;-10.690231323242188;-0.3197021484375
1445421189321;280.0373840332031;-105.64517974853516;-13.248072624206543;5.6750946044921875;-7.9639739990234375;1.3670501708984375
1445421189355;284.8766784667969;-104.57402038574219;-12.495471954345703;3.890289306640625;-7.9639739990234375;3.83831787109375
1445421189387;287.7124938964844;-103.18880462646484;-12.34685230255127;2.7723236083984375;-9.238845825195312;4.2501983642578125
1445421189421;290.7170715332031;-98.68025970458984;-11.734569549560547;-0.1892852783203125;-11.200164794921875;3.328369140625
1445421189453;291.3282165527344;-96.58737182617188;-11.41945743560791;-1.111114501953125;-11.10211181640625;0.935546875
1445421189486;290.94451904296875;-94.07576751708984;-11.106876373291016;-0.287353515625;-10.905975341796875;0.621734619140625
1445421189520;292.15875244140625;-90.86300659179688;-9.960795402526855;0.6737060546875;-9.925308227539062;1.1709136962890625
1445421189552;293.754638671875;-89.1364974975586;-9.124090194702148;3.2038116455078125;-8.532760620117188;1.1512908935546875
1445421189586;296.84197998046875;-85.35135650634766;-8.600438117980957;3.380340576171875;-8.611221313476562;0.6021270751953125
1445421189618;298.8497009277344;-82.39868927001953;-9.472245216369629;1.5759124755859375;-9.650726318359375;0.4648284912109375
1445421189652;299.9180603027344;-81.10871124267578;-9.944534301757812;0.928680419921875;-9.729171752929688;0.81787109375
1445421189684;300.84783935546875;-78.34134674072266;-10.981245040893555;0.0853118896484375;-10.062606811523438;0.7982635498046875
1445421189717;300.53369140625;-75.71343994140625;-11.938283920288086;-0.1892852783203125;-10.9451904296875;-0.0254974365234375
1445421189750;300.50628662109375;-74.79894256591797;-12.284394264221191;-0.091217041015625;-11.612045288085938;-0.2608642578125
1445421189784;300.0286560058594;-74.18550109863281;-12.703834533691406;-0.091217041015625;-12.063156127929688;-0.810028076171875
1445421189817;299.611572265625;-75.6093521118164;-12.659480094909668;-0.267730712890625;-14.240234375;-1.574951171875
1445421189849;298.9840087890625;-77.1514663696289;-12.26742935180664;0.301055908203125;-15.573944091796875;-1.3395843505859375
1445421189883;296.9613037109375;-83.19876861572266;-11.714552879333496;2.9096221923828125;-12.867294311523438;1.56317138671875
1445421189916;296.102783203125;-86.92524719238281;-11.739669799804688;4.2041015625;-11.21978759765625;3.77947998046875
1445421189949;296.0862121582031;-93.67655181884766;-11.944798469543457;4.2041015625;-12.29852294921875;3.210693359375
1445421189982;296.7723388671875;-99.08331298828125;-11.590720176696777;2.9684600830078125;-11.78857421875;1.0924530029296875
1445421190014;297.22418212890625;-100.86683654785156;-10.993471145629883;1.18365478515625;-9.729171752929688;1.9946746826171875
1445421190047;298.1405029296875;-102.65174102783203;-8.757859230041504;1.3993988037109375;-7.5324859619140625;2.210418701171875
1445421190080;296.9306945800781;-103.81143188476562;-7.722794532775879;2.6546478271484375;-6.2183990478515625;1.50433349609375
1445421190114;295.4142761230469;-104.60367584228516;-7.719284534454346;3.1253662109375;-5.53192138671875;1.50433349609375
1445421190146;292.70263671875;-104.66902923583984;-8.425636291503906;3.7137603759765625;-6.0811004638671875;2.1123504638671875
1445421190180;290.554443359375;-102.21633911132812;-9.568816184997559;3.2038116455078125;-9.650726318359375;-2.8302001953125
1445421190212;291.1231689453125;-100.64390563964844;-9.434317588806152;1.9681854248046875;-11.572830200195312;-7.929656982421875
1445421190245;292.19873046875;-99.28968811035156;-8.999229431152344;0.477569580078125;-11.062881469726562;-2.457550048828125
1445421190278;291.10845947265625;-99.27777862548828;-9.06296443939209;-1.8367919921875;-10.7686767578125;-2.339874267578125
1445421190311;288.50543212890625;-99.4560775756836;-8.667137145996094;-1.2483978271484375;-10.572540283203125;-3.1832427978515625
1445421190345;287.4855651855469;-100.5002670288086;-8.417071342468262;0.869842529296875;-7.6501617431640625;-0.7315826416015625
1445421190377;287.1443176269531;-100.8482894897461;-8.594996452331543;5.6358642578125;-10.749069213867188;4.3090362548828125
1445421190410;291.7905578613281;-99.77246856689453;-9.157002449035645;8.048309326171875;-15.652389526367188;1.9162139892578125
1445421190444;296.88226318359375;-97.07305145263672;-9.447070121765137;4.694427490234375;-12.239669799804688;-2.9478759765625
1445421190476;298.4168701171875;-96.85159301757812;-9.1533842086792;0.359893798828125;-5.9830322265625;6.5057220458984375
1445421190510;302.1001892089844;-95.5656967163086;-7.7874755859375;0.987518310546875;-7.042144775390625;5.917327880859375
1445421190543;303.337646484375;-93.64482879638672;-7.943182945251465;2.046630859375;-11.867019653320312;4.210968017578125
1445421190587;308.3608703613281;-91.03368377685547;-8.407820701599121;1.0855865478515625;-10.866744995117188;0.7001953125
1445421190608;310.6677551269531;-90.45056915283203;-8.04919719696045;1.41900634765625;-10.239120483398438;1.3670501708984375
1445421190642;312.39990234375;-89.184326171875;-7.808364391326904;0.7521514892578125;-8.866195678710938;2.2888641357421875
1445421190675;316.07666015625;-86.65514373779297;-7.685426235198975;0.6148681640625;-9.376129150390625;0.896331787109375
1445421190708;320.1311950683594;-84.59497833251953;-7.833967685699463;0.928680419921875;-10.9451904296875;-0.4177703857421875
1445421190740;322.2066955566406;-83.60431671142578;-7.899888038635254;2.55657958984375;-9.631103515625;-0.3393096923828125
1445421190775;328.1389465332031;-82.1609115600586;-8.16637134552002;2.5173492431640625;-8.4935302734375;0.4059906005859375
1445421190809;336.5600891113281;-81.10968780517578;-8.359870910644531;1.7132110595703125;-7.35595703125;2.5438385009765625
1445421190841;339.72918701171875;-79.75872802734375;-8.582700729370117;3.2430419921875;-9.023101806640625;0.6609649658203125
1445421190872;341.9134826660156;-76.959716796875;-10.47794246673584;1.7720489501953125;-12.376968383789062;-0.1431732177734375
1445421190906;341.6463623046875;-76.05024719238281;-11.509587287902832;-1.8956451416015625;-13.436080932617188;-2.26141357421875
1445421190938;339.22930908203125;-74.51204681396484;-12.813706398010254;-4.56304931640625;-12.082763671875;-0.88848876953125
1445421190971;340.89825439453125;-74.33295440673828;-12.731463432312012;-1.6602783203125;-11.415924072265625;1.465118408203125
1445421191005;340.76043701171875;-73.73601531982422;-12.613103866577148;2.2819976806640625;-13.318405151367188;-3.085174560546875
1445421191038;336.93682861328125;-73.78726959228516;-12.661645889282227;0.5167999267578125;-15.652389526367188;-3.6343536376953125
1445421191074;334.2498779296875;-76.90701293945312;-11.94053840637207;-0.2481231689453125;-14.299072265625;-2.4771575927734375
1445421191103;333.5759582519531;-79.43510437011719;-11.458717346191406;4.0275726318359375;-11.768951416015625;1.2885894775390625
1445421191136;333.7175598144531;-87.00724792480469;-10.47480583190918;5.596649169921875;-13.1026611328125;2.1319580078125
1445421191170;334.1612854003906;-91.04428100585938;-10.110156059265137;3.81182861328125;-11.415924072265625;1.876983642578125
1445421191203;332.51904296875;-96.2762451171875;-9.907633781433105;0.0853118896484375;-11.886642456054688;1.7985382080078125
1445421191235;330.4696044921875;-100.64701080322266;-9.108320236206055;0.10491943359375;-11.749343872070312;0.6021270751953125
1445421191269;327.74005126953125;-104.10400390625;-7.98500919342041;1.6543731689453125;-8.513153076171875;1.2297515869140625
1445421191302;324.3035583496094;-106.18143463134766;-8.364516258239746;1.75244140625;-6.6498870849609375;1.8377685546875
1445421191335;317.6438293457031;-110.4261474609375;-9.888957023620605;2.693878173828125;-4.7473907470703125;2.58306884765625
1445421191368;314.98248291015625;-111.71183776855469;-10.982405662536621;3.3999481201171875;-4.78662109375;1.700469970703125
1445421191400;311.24932861328125;-111.95469665527344;-13.220312118530273;3.498016357421875;-5.7672882080078125;0.30792236328125
1445421191434;307.8411560058594;-108.71817016601562;-14.834927558898926;3.5960845947265625;-10.25872802734375;-3.16363525390625
1445421191466;306.7030334472656;-106.2699203491211;-15.054415702819824;4.32177734375;-11.729736328125;-7.302032470703125
1445421191498;306.7220153808594;-103.4561538696289;-15.650091171264648;4.007965087890625;-9.533035278320312;-4.5169525146484375
1445421191531;303.30609130859375;-103.01441955566406;-16.76920509338379;1.5955352783203125;-7.4736480712890625;-1.6337890625
1445421191568;304.1672058105469;-103.14048767089844;-16.146583557128906;6.283111572265625;-8.473922729492188;2.896881103515625
1445421191598;312.11151123046875;-102.75826263427734;-14.741506576538086;9.362396240234375;-14.377532958984375;-0.5942840576171875
1445421191631;313.3600769042969;-99.04248809814453;-16.56731414794922;2.693878173828125;-11.141326904296875;1.21014404296875
1445421191665;313.2325134277344;-99.29881286621094;-16.53578758239746;-0.3854217529296875;-8.473922729492188;4.4463348388671875
1445421191697;317.4825744628906;-98.07749938964844;-13.121007919311523;-1.915252685546875;-9.729171752929688;4.4659423828125
1445421191730;314.4182434082031;-95.97486114501953;-13.787164688110352;-1.5426025390625;-12.514266967773438;-0.2216339111328125
1445421191763;312.9789733886719;-94.79930877685547;-13.350499153137207;-0.8757476806640625;-11.710113525390625;0.7982635498046875
1445421191797;315.50830078125;-92.48184967041016;-10.727699279785156;2.2035369873046875;-9.101547241210938;0.8571014404296875
1445421191829;317.29547119140625;-90.97531127929688;-9.9210844039917;4.3610076904296875;-8.120880126953125;0.07257080078125
1445421191862;317.1943664550781;-87.70275115966797;-10.509761810302734;2.43890380859375;-9.12115478515625;-0.123565673828125
1445421191895;316.60333251953125;-85.53602600097656;-11.322673797607422;1.4582366943359375;-10.121444702148438;-0.88848876953125
1445421191928;316.5816650390625;-84.5277099609375;-11.769685745239258;-0.1304473876953125;-10.278350830078125;-0.2804718017578125
1445421191960;315.8731994628906;-82.67745208740234;-12.881464958190918;-0.9345855712890625;-10.297958374023438;-0.1039581298828125
1445421191995;314.2530212402344;-80.90069580078125;-13.846259117126465;-0.97381591796875;-10.19989013671875;0.7394256591796875
1445421192029;313.5823974609375;-79.92962646484375;-14.193364143371582;1.47784423828125;-9.846847534179688;1.38665771484375
1445421192061;311.91302490234375;-78.10091400146484;-14.946488380432129;2.7723236083984375;-10.278350830078125;1.2297515869140625
1445421192093;310.7715148925781;-77.32431030273438;-15.484628677368164;0.928680419921875;-11.690505981445312;0.876708984375
1445421192126;309.1614990234375;-76.44268798828125;-16.3726806640625;0.3206634521484375;-11.474761962890625;-0.182403564453125
1445421192159;305.9390869140625;-76.07599639892578;-16.68482780456543;-1.522979736328125;-13.90679931640625;-0.7315826416015625
1445421192193;303.33544921875;-76.39830780029297;-16.59595489501953;-0.6992340087890625;-13.592987060546875;-0.0843353271484375
1445421192226;297.9141540527344;-79.27734375;-16.319429397583008;1.438629150390625;-12.220062255859375;-0.2020263671875
1445421192258;293.3883972167969;-85.06536102294922;-16.433813095092773;1.732818603515625;-11.376693725585938;2.52423095703125
1445421192294;289.1437683105469;-91.16887664794922;-16.705121994018555;0.7913818359375;-11.984695434570312;3.60296630859375
1445421192325;286.6839599609375;-93.43714904785156;-16.935272216796875;0.1441497802734375;-11.612045288085938;2.7988128662109375
1445421192357;281.9259033203125;-97.37094116210938;-17.089649200439453;-0.4246368408203125;-10.7098388671875;3.073394775390625
1445421192392;280.0950622558594;-99.02662658691406;-16.722021102905273;1.0071258544921875;-10.297958374023438;2.5634613037109375
1445421192425;277.3050842285156;-101.65054321289062;-15.76880168914795;1.2032623291015625;-9.807632446289062;2.975341796875
1445421192459;271.7976379394531;-103.16007232666016;-15.296097755432129;1.9681854248046875;-9.12115478515625;2.779205322265625
1445421192490;267.88153076171875;-104.03943634033203;-15.349273681640625;2.870391845703125;-8.395462036132812;3.1126251220703125
1445421192525;261.5675048828125;-105.38164520263672;-15.48198413848877;4.0864105224609375;-7.316741943359375;2.8576507568359375
1445421192556;259.2109375;-105.48453521728516;-15.429935455322266;4.635589599609375;-6.473358154296875;1.465118408203125
1445421192587;255.3343505859375;-104.70693969726562;-14.854981422424316;4.7924957275390625;-7.1009979248046875;0.5236663818359375
1445421192622;252.32427978515625;-102.29288482666016;-14.202136993408203;4.066802978515625;-9.297683715820312;-3.085174560546875
1445421192655;250.80755615234375;-101.08089447021484;-14.040750503540039;0.8894500732421875;-12.847686767578125;-7.2039642333984375
1445421192687;246.688232421875;-100.47509765625;-13.672388076782227;-0.091217041015625;-12.867294311523438;-5.654510498046875
1445421192720;243.26376342773438;-102.15172576904297;-12.71509838104248;-0.1304473876953125;-8.94464111328125;-3.3597564697265625
1445421192753;241.6715087890625;-102.76091766357422;-12.376777648925781;3.7137603759765625;-10.062606811523438;1.700469970703125
1445421192787;241.3306884765625;-102.92897033691406;-12.508804321289062;5.9889068603515625;-12.808456420898438;1.876983642578125
1445421192820;246.0157470703125;-102.29363250732422;-12.847885131835938;8.048309326171875;-11.827789306640625;-1.3984375
1445421192852;247.252197265625;-102.19367218017578;-12.981042861938477;6.518463134765625;-7.5324859619140625;2.779205322265625
1445421192885;251.149658203125;-100.832275390625;-12.68940544128418;3.949127197265625;-7.2186737060546875;4.210968017578125
1445421192918;253.59963989257812;-95.98664855957031;-12.780791282653809;0.4971771240234375;-11.729736328125;3.857940673828125
1445421192952;253.54953002929688;-94.65636444091797;-12.595321655273438;-1.8760223388671875;-11.925857543945312;1.3474273681640625
1445421192984;253.82574462890625;-93.4288558959961;-11.968559265136719;-0.0519866943359375;-10.513702392578125;-0.2216339111328125
1445421193017;254.746337890625;-92.07086944580078;-11.352555274963379;0.4383392333984375;-9.925308227539062;1.1512908935546875
1445421193051;256.6467590332031;-89.44757843017578;-10.229395866394043;0.8894500732421875;-9.45458984375;1.50433349609375
1445421193083;257.7097473144531;-86.43797302246094;-9.8876371383667;2.38006591796875;-9.356521606445312;0.0333404541015625
1445421193115;257.8656005859375;-85.12371826171875;-10.065729141235352;1.8897247314453125;-9.650726318359375;0.01373291015625
1445421193149;258.59027099609375;-82.96648406982422;-10.526633262634277;0.8502197265625;-9.572265625;0.7786407470703125
1445421193181;259.9245300292969;-80.80201721191406;-10.754243850708008;0.9090576171875;-9.68994140625;1.6808624267578125
1445421193215;259.8475341796875;-79.60547637939453;-10.981308937072754;1.47784423828125;-10.101821899414062;0.896331787109375
1445421193249;259.943603515625;-77.61710357666016;-11.714920997619629;0.8306121826171875;-10.415634155273438;1.32781982421875
1445421193283;261.4246826171875;-76.11434936523438;-12.351972579956055;0.5167999267578125;-11.298233032226562;1.1120758056640625
1445421193314;261.8408203125;-75.60149383544922;-12.649035453796387;0.8109893798828125;-11.435531616210938;0.58251953125
1445421193347;261.9669189453125;-75.23051452636719;-13.059408187866211;1.2817230224609375;-12.141616821289062;-1.0257720947265625
1445421193379;262.1051330566406;-75.38584899902344;-13.312400817871094;-1.346466064453125;-14.063705444335938;-1.0257720947265625
1445421193413;260.9664001464844;-76.83403778076172;-13.454663276672363;-1.0522613525390625;-13.926422119140625;-1.888763427734375
1445421193445;258.4485778808594;-81.04695892333984;-13.055171012878418;1.222869873046875;-12.200454711914062;0.07257080078125
1445421193478;257.68463134765625;-84.38426208496094;-12.963663101196289;3.0272979736328125;-11.945480346679688;3.8187103271484375
1445421193513;256.45849609375;-91.41677856445312;-12.78887939453125;3.2038116455078125;-11.90625;3.328369140625
1445421193545;255.73272705078125;-96.44773864746094;-12.43886661529541;2.3408355712890625;-11.082489013671875;1.582794189453125
1445421193581;255.53744506835938;-98.45909881591797;-12.190359115600586;2.183929443359375;-10.356796264648438;1.523956298828125
1445421193611;254.73379516601562;-101.72440338134766;-11.565573692321777;0.928680419921875;-9.650726318359375;1.9554443359375
1445421193644;253.50872802734375;-104.20256805419922;-10.786792755126953;1.41900634765625;-8.473922729492188;1.5435638427734375
1445421193677;252.27435302734375;-105.67473602294922;-10.592992782592773;2.4781341552734375;-7.7286224365234375;1.1709136962890625
1445421193710;248.62899780273438;-108.58706665039062;-10.675509452819824;3.1449737548828125;-6.8852386474609375;1.44549560546875
1445421193744;245.33090209960938;-109.80747985839844;-11.129884719848633;3.3411102294921875;-5.9634246826171875;0.955169677734375
1445421193777;244.09539794921875;-109.73023223876953;-11.299897193908691;3.321502685546875;-6.0026397705078125;0.5432891845703125
1445421193810;243.20272827148438;-108.25916290283203;-11.374887466430664;2.5761871337890625;-7.9639739990234375;-1.261138916015625
1445421193843;243.35931396484375;-106.99250793457031;-11.208459854125977;1.36016845703125;-11.945480346679688;-6.3409881591796875
1445421193876;242.24441528320312;-104.69950103759766;-10.870509147644043;0.477569580078125;-12.867294311523438;-6.360595703125
1445421193908;239.91995239257812;-104.1707534790039;-10.355703353881836;0.9678955078125;-11.45513916015625;-4.59539794921875
1445421193944;239.21142578125;-104.21070098876953;-10.066781997680664;1.7720489501953125;-7.9835968017578125;-3.7520294189453125
1445421193974;237.64794921875;-104.57799530029297;-10.274664878845215;2.8899993896484375;-8.905410766601562;-1.947601318359375
1445421194009;239.92599487304688;-104.24855041503906;-10.605836868286133;5.1847686767578125;-11.768951416015625;1.308197021484375
1445421194040;242.71490478515625;-103.53644561767578;-10.271122932434082;5.7339324951171875;-11.90625;-1.5357208251953125
1445421194075;245.47903442382812;-102.40092468261719;-9.672751426696777;4.32177734375;-7.1598358154296875;2.40655517578125
1445421194107;248.3841552734375;-99.82372283935547;-8.888162612915039;2.43890380859375;-9.3369140625;3.60296630859375
1445421194141;249.36651611328125;-97.39759826660156;-8.657246589660645;1.3993988037109375;-11.259017944335938;3.26953125
1445421194175;249.69815063476562;-94.75367736816406;-8.284343719482422;-1.6798858642578125;-11.10211181640625;-0.182403564453125
1445421194207;251.1341552734375;-92.18084716796875;-6.715620517730713;-0.267730712890625;-10.08221435546875;1.4847259521484375
1445421194239;252.21453857421875;-90.54288482666016;-5.836071014404297;0.7325439453125;-9.023101806640625;2.4850006103515625
1445421194275;254.84561157226562;-87.32489013671875;-4.938683032989502;3.380340576171875;-9.12115478515625;0.6609649658203125
1445421194304;256.2871398925781;-85.9461441040039;-5.054447174072266;2.419281005859375;-9.297683715820312;0.621734619140625
1445421194338;259.0121765136719;-83.74718475341797;-5.611022472381592;0.5560302734375;-9.474197387695312;1.700469970703125
1445421194370;260.928955078125;-81.74553680419922;-6.097119331359863;0.9090576171875;-9.984146118164062;1.32781982421875
1445421194403;261.8703308105469;-80.77350616455078;-6.468931198120117;1.438629150390625;-10.454864501953125;1.1709136962890625
1445421194437;263.816162109375;-79.01908874511719;-7.601208686828613;0.7129364013671875;-11.317855834960938;1.4847259521484375
1445421194470;266.2034912109375;-77.5387954711914;-8.889941215515137;0.0068511962890625;-10.5333251953125;0.504058837890625
1445421194502;267.19158935546875;-76.98346710205078;-9.384971618652344;-0.34619140625;-10.729446411132812;0.876708984375
1445421194536;268.92218017578125;-76.40461730957031;-10.271942138671875;0.418731689453125;-11.180557250976562;-0.2216339111328125
1445421194569;269.93609619140625;-76.34113311767578;-10.611352920532227;0.16375732421875;-13.357635498046875;-1.18267822265625
1445421194601;270.9723205566406;-76.87067413330078;-11.082907676696777;-0.4638671875;-13.691055297851562;-1.7318572998046875
1445421194635;270.7503662109375;-79.97331237792969;-10.797786712646484;1.105194091796875;-12.396575927734375;-1.3592071533203125
1445421194667;270.5394592285156;-82.72258758544922;-10.661945343017578;3.556854248046875;-12.71038818359375;1.9162139892578125
1445421194701;270.29559326171875;-89.31010437011719;-10.56664752960205;3.9098968505859375;-12.376968383789062;2.3477020263671875
1445421194734;271.4289245605469;-95.06918334960938;-10.507768630981445;3.380340576171875;-11.51397705078125;0.8374786376953125
1445421194766;271.84747314453125;-97.33895111083984;-10.504388809204102;3.0665283203125;-10.670608520507812;0.680572509765625
1445421194799;272.62921142578125;-101.2369155883789;-10.565779685974121;2.2035369873046875;-9.140777587890625;1.26898193359375
1445421194833;273.64959716796875;-104.1799087524414;-9.918848991394043;0.9482879638671875;-8.5523681640625;1.0924530029296875
1445421194866;273.37115478515625;-105.58036804199219;-9.710674285888672;1.3209381103515625;-7.68939208984375;0.876708984375
1445421194898;270.76422119140625;-108.44422149658203;-10.052584648132324;2.32122802734375;-6.43414306640625;1.56317138671875
1445421194933;267.734130859375;-109.83173370361328;-10.970681190490723;2.635040283203125;-5.47308349609375;1.8966064453125
1445421194964;266.74432373046875;-109.79682159423828;-11.210909843444824;2.635040283203125;-5.7672882080078125;1.21014404296875
1445421194997;264.988525390625;-107.83369445800781;-11.410920143127441;2.164306640625;-7.669769287109375;-0.4569854736328125
1445421195032;264.42974853515625;-106.24152374267578;-11.169655799865723;2.32122802734375;-12.141616821289062;-6.537109375
1445421195063;264.24896240234375;-103.19425964355469;-10.127483367919922;1.928955078125;-12.9261474609375;-7.753143310546875
1445421195096;261.9196472167969;-102.55587005615234;-9.688559532165527;1.8308868408203125;-12.53387451171875;-5.2622528076171875
1445421195130;260.62744140625;-102.62474060058594;-9.519009590148926;3.1057586669921875;-9.611495971679688;-3.45782470703125
1445421195162;259.15924072265625;-103.49970245361328;-9.74355697631836;4.77288818359375;-11.239395141601562;-1.51611328125
1445421195195;261.7252197265625;-103.87638092041016;-9.837944030761719;4.9886322021484375;-10.121444702148438;0.24908447265625
1445421195228;263.94647216796875;-103.90495300292969;-9.45628547668457;5.1651458740234375;-8.1405029296875;0.1706390380859375
1445421195261;267.80419921875;-102.37149047851562;-9.219932556152344;4.066802978515625;-7.0225372314453125;3.1322479248046875
1445421195294;269.6556396484375;-100.35830688476562;-9.188657760620117;0.9482879638671875;-11.474761962890625;2.75958251953125
1445421195327;271.7937316894531;-95.88999938964844;-8.664192199707031;-0.3069610595703125;-11.90625;1.9162139892578125
1445421195361;272.1220397949219;-94.25094604492188;-8.224929809570312;-1.3072357177734375;-10.5333251953125;1.3474273681640625
1445421195393;272.7281494140625;-92.9365463256836;-7.594064235687256;1.2817230224609375;-9.68994140625;1.582794189453125
1445421195435;274.3553771972656;-89.60228729248047;-6.40704870223999;1.5955352783203125;-9.101547241210938;1.2885894775390625
1445421195460;276.1181640625;-86.48046112060547;-5.953317642211914;2.2035369873046875;-9.278060913085938;0.7786407470703125
1445421195493;277.349853515625;-85.11976623535156;-5.9913411140441895;1.8308868408203125;-9.45458984375;0.935546875
1445421195526;279.7548522949219;-82.47386169433594;-6.6397013664245605;1.12481689453125;-9.591873168945312;1.2885894775390625
1445421195558;280.8934020996094;-80.08788299560547;-7.453672885894775;0.3795013427734375;-10.08221435546875;0.896331787109375
1445421195591;281.2554626464844;-78.94912719726562;-7.966455936431885;0.477569580078125;-10.25872802734375;0.896331787109375
1445421195625;282.0103454589844;-77.14818572998047;-9.023633003234863;0.7325439453125;-10.8863525390625;1.1709136962890625
1445421195658;282.76702880859375;-75.5176773071289;-10.277215957641602;0.242218017578125;-10.8863525390625;0.562896728515625
1445421195691;282.9530029296875;-74.98778533935547;-10.691718101501465;0.2029876708984375;-11.10211181640625;0.6021270751953125
1445421195726;283.51123046875;-74.71729278564453;-11.323456764221191;1.105194091796875;-10.984420776367188;-0.300079345703125
1445421195759;283.6358337402344;-75.26141357421875;-11.7774019241333;0.10491943359375;-12.690780639648438;-0.8492584228515625
1445421195790;283.37335205078125;-75.95349884033203;-12.017741203308105;-0.895355224609375;-13.259567260742188;-0.7119598388671875
1445421195824;282.3345947265625;-79.19364929199219;-11.969122886657715;0.7717742919921875;-12.573104858398438;-0.4962158203125
1445421195856;281.519775390625;-81.96056365966797;-11.757356643676758;2.7134857177734375;-12.47503662109375;1.9946746826171875
1445421195888;280.1131591796875;-88.35964965820312;-11.571576118469238;2.929229736328125;-12.141616821289062;2.720367431640625
1445421195922;279.109130859375;-94.21460723876953;-11.619104385375977;1.8897247314453125;-12.239669799804688;1.2885894775390625
1445421195954;278.42498779296875;-96.73204040527344;-11.685172080993652;1.0855865478515625;-10.729446411132812;1.1512908935546875
1445421195987;277.2015686035156;-101.02297973632812;-11.424344062805176;0.9482879638671875;-10.062606811523438;1.3670501708984375
1445421196021;275.8733825683594;-104.11621856689453;-10.513932228088379;0.5167999267578125;-8.983871459960938;1.50433349609375
1445421196054;274.8715515136719;-105.53778839111328;-10.038514137268066;0.536407470703125;-8.689666748046875;0.935546875
1445421196087;271.0885009765625;-108.24246978759766;-9.747958183288574;1.5759124755859375;-7.669769287109375;1.3670501708984375
1445421196120;265.6199645996094;-109.59622955322266;-10.465056419372559;2.0074005126953125;-6.3164520263671875;1.56317138671875
1445421196152;263.3327941894531;-109.76084899902344;-10.917872428894043;2.43890380859375;-5.786895751953125;1.2885894775390625
1445421196184;260.2767333984375;-108.74767303466797;-11.541349411010742;3.2038116455078125;-6.179168701171875;-0.4962158203125
1445421196218;259.0953369140625;-107.56328582763672;-11.843783378601074;3.4784088134765625;-10.9451904296875;-4.340423583984375
1445421196252;256.4729309082031;-104.48494720458984;-12.484907150268555;3.439178466796875;-13.141891479492188;-7.2235870361328125
1445421196284;251.853759765625;-103.24364471435547;-13.469635963439941;1.6347503662109375;-12.41619873046875;-5.8114166259765625
1445421196317;249.21148681640625;-103.52078247070312;-13.797106742858887;1.2621002197265625;-9.06231689453125;-2.7713623046875
1445421196350;246.35232543945312;-104.52015686035156;-13.592805862426758;1.8308868408203125;-9.670333862304688;-1.0257720947265625
1445421196383;248.90777587890625;-104.81013488769531;-13.350223541259766;6.4400177001953125;-10.729446411132812;0.876708984375
1445421196417;251.17550659179688;-104.42875671386719;-13.51583194732666;6.7538299560546875;-10.690231323242188;0.1706390380859375
1445421196450;252.5582275390625;-103.16072845458984;-14.221353530883789;3.262664794921875;-8.062042236328125;3.2303009033203125
1445421196483;252.9495849609375;-99.60171508789062;-14.319242477416992;0.04608154296875;-10.19989013671875;4.1128997802734375
1445421196515;252.13531494140625;-98.3424301147461;-14.806254386901855;-1.9936981201171875;-11.808181762695312;0.13140869140625
1445421196549;249.31588745117188;-95.8804931640625;-14.997241020202637;-0.7384490966796875;-10.905975341796875;1.0336151123046875
1445421196582;249.1146240234375;-94.51565551757812;-14.208888053894043;2.870391845703125;-8.2581787109375;0.7198028564453125
1445421196614;250.09619140625;-91.54531860351562;-12.65354061126709;4.517913818359375;-7.826690673828125;-0.123565673828125
1445421196647;247.5294189453125;-88.28434753417969;-13.212481498718262;1.7720489501953125;-9.748779296875;-0.868865966796875
1445421196682;245.9688720703125;-87.08506774902344;-13.555458068847656;0.477569580078125;-10.219512939453125;0.07257080078125
1445421196713;244.62921142578125;-85.0191650390625;-13.91257381439209;0.301055908203125;-9.925308227539062;1.0336151123046875
1445421196746;244.02337646484375;-84.0235366821289;-14.104167938232422;0.6933135986328125;-10.435256958007812;0.896331787109375
1445421196780;242.36041259765625;-81.93599700927734;-14.751853942871094;0.7913818359375;-10.552932739257812;0.7786407470703125
1445421196813;240.71932983398438;-79.85625457763672;-15.58011245727539;0.9090576171875;-10.847137451171875;0.994384765625
1445421196845;240.07656860351562;-78.93071746826172;-15.967408180236816;0.987518310546875;-11.21978759765625;0.327545166015625
1445421196878;238.88015747070312;-77.4699935913086;-16.786968231201172;0.8306121826171875;-11.200164794921875;0.13140869140625
1445421196911;237.38739013671875;-77.44461059570312;-17.269922256469727;0.10491943359375;-12.9261474609375;-0.9080963134765625
1445421196945;236.75204467773438;-77.9910888671875;-17.428794860839844;-0.7384490966796875;-13.691055297851562;-0.9277191162109375
1445421196977;234.1910400390625;-80.43609619140625;-17.590829849243164;-0.3069610595703125;-12.867294311523438;-0.9669342041015625
1445421197011;230.65966796875;-85.0379867553711;-17.858200073242188;0.5560302734375;-11.965087890625;1.7200775146484375
1445421197044;229.00372314453125;-87.8996353149414;-17.714393615722656;1.18365478515625;-12.337738037109375;3.1126251220703125
1445421197076;225.92779541015625;-92.82652282714844;-16.994388580322266;1.1444244384765625;-12.631942749023438;3.014556884765625
1445421197109;223.34149169921875;-96.98507690429688;-16.246000289916992;1.47784423828125;-11.121719360351562;2.58306884765625
1445421197142;221.90667724609375;-98.73664855957031;-15.925156593322754;1.6543731689453125;-10.19989013671875;2.6811370849609375
1445421197175;219.215576171875;-101.14369201660156;-14.683621406555176;0.7325439453125;-9.90570068359375;2.5438385009765625
1445421197208;215.36358642578125;-102.83384704589844;-13.30301570892334;1.8897247314453125;-9.278060913085938;1.7397003173828125
1445421197242;212.18264770507812;-104.01517486572266;-13.000300407409668;2.929229736328125;-8.611221313476562;1.7397003173828125
1445421197274;205.6275634765625;-105.8675537109375;-12.868396759033203;3.6745452880859375;-7.1990509033203125;1.465118408203125
1445421197306;202.76727294921875;-106.38080596923828;-13.091612815856934;3.75299072265625;-6.983306884765625;1.2297515869140625
1445421197340;196.953125;-106.3287353515625;-13.852635383605957;4.125640869140625;-7.12060546875;1.072845458984375
1445421197373;194.33416748046875;-105.83738708496094;-13.413249969482422;3.615692138671875;-7.2186737060546875;-1.96722412109375
1445421197406;193.8443603515625;-105.50115203857422;-13.077717781066895;0.8109893798828125;-9.3369140625;-3.261688232421875
1445421197441;192.078369140625;-103.7013168334961;-12.508247375488281;0.301055908203125;-11.004043579101562;-3.51666259765625
1445421197475;191.3365478515625;-102.26021575927734;-11.745158195495605;1.0071258544921875;-11.33746337890625;-5.3995513916015625
1445421197505;190.57281494140625;-102.35491180419922;-11.574222564697266;1.53668212890625;-10.376419067382812;-5.929107666015625
1445421197538;189.251708984375;-102.64112854003906;-11.878973007202148;3.498016357421875;-12.337738037109375;-0.064727783203125
1445421197571;193.0736083984375;-102.2582015991211;-11.463237762451172;6.14581298828125;-8.1993408203125;-0.2804718017578125
1445421197605;194.086181640625;-101.69871520996094;-11.348405838012695;4.4198455810546875;-6.689117431640625;2.720367431640625
1445421197638;197.0321044921875;-99.9009017944336;-11.371026992797852;1.928955078125;-9.552658081054688;3.583343505859375
1445421197671;200.57806396484375;-95.32567596435547;-10.921845436096191;-1.0522613525390625;-11.886642456054688;2.58306884765625
1445421197703;201.12347412109375;-93.51959991455078;-10.519522666931152;-2.2486724853515625;-11.16094970703125;1.1709136962890625
1445421197736;200.8880615234375;-92.05880737304688;-9.938942909240723;0.04608154296875;-10.552932739257812;0.896331787109375
1445421197770;201.40362548828125;-90.87323760986328;-9.347878456115723;0.10491943359375;-10.08221435546875;1.38665771484375
1445421197803;202.9671630859375;-88.02967834472656;-7.748743534088135;2.4585113525390625;-9.140777587890625;1.3670501708984375
1445421197835;205.33306884765625;-85.04669189453125;-7.209228038787842;3.949127197265625;-9.238845825195312;0.562896728515625
1445421197868;206.39886474609375;-83.82758331298828;-7.593865871429443;2.635040283203125;-9.748779296875;0.6021270751953125
1445421197902;208.64642333984375;-81.8131103515625;-8.623087882995605;0.7325439453125;-10.003753662109375;1.38665771484375
1445421197935;210.73870849609375;-79.72845458984375;-9.611994743347168;0.359893798828125;-9.748779296875;1.0336151123046875
1445421197970;211.30606079101562;-78.6151123046875;-10.195518493652344;0.7717742919921875;-10.180282592773438;0.7786407470703125
1445421198001;212.64715576171875;-76.3715591430664;-11.686586380004883;0.3795013427734375;-10.08221435546875;0.955169677734375
1445421198033;214.02780151367188;-74.95513916015625;-12.724160194396973;0.4383392333984375;-10.8863525390625;1.0336151123046875
1445421198067;214.98318481445312;-74.50928497314453;-13.072466850280762;-0.287353515625;-11.082489013671875;1.38665771484375
1445421198100;216.833984375;-74.3941650390625;-13.403162956237793;0.1833648681640625;-12.573104858398438;0.0333404541015625
1445421198132;217.27877807617188;-74.6114273071289;-13.394562721252441;0.04608154296875;-14.063705444335938;-1.4180450439453125
1445421198165;217.24005126953125;-76.58311462402344;-13.065305709838867;0.654083251953125;-13.063430786132812;-0.9080963134765625
1445421198198;217.05191040039062;-81.67510223388672;-12.77476692199707;2.38006591796875;-11.78857421875;0.30792236328125
1445421198232;216.99356079101562;-84.8453598022461;-12.556035995483398;3.262664794921875;-11.867019653320312;1.4258880615234375
1445421198265;217.1748046875;-91.1709976196289;-12.247784614562988;4.2237091064453125;-12.318130493164062;1.876983642578125
1445421198298;218.37432861328125;-96.36648559570312;-12.13197135925293;2.5369720458984375;-11.121719360351562;0.8571014404296875
1445421198333;218.9083251953125;-98.63978576660156;-12.021641731262207;1.0855865478515625;-9.96453857421875;1.32781982421875
1445421198364;219.43280029296875;-102.27035522460938;-11.430662155151367;0.6148681640625;-9.474197387695312;1.2297515869140625
1445421198395;218.6092529296875;-105.330810546875;-10.914141654968262;0.8502197265625;-7.68939208984375;1.26898193359375
1445421198430;216.71673583984375;-107.0506591796875;-11.02687931060791;1.556304931640625;-7.1598358154296875;1.6808624267578125
1445421198462;212.4393310546875;-109.2445068359375;-11.685622215270996;2.3996734619140625;-5.9438018798828125;2.1907958984375
1445421198495;210.58416748046875;-109.575927734375;-12.023651123046875;2.870391845703125;-5.17889404296875;1.7397003173828125
1445421198527;208.15139770507812;-108.94491577148438;-12.353652000427246;3.3018798828125;-5.6496124267578125;1.190521240234375
1445421198561;207.6910400390625;-106.1956787109375;-12.292893409729004;3.3411102294921875;-8.336624145507812;-1.574951171875
1445421198594;208.21820068359375;-104.45670318603516;-11.947368621826172;3.1842041015625;-14.652114868164062;-8.165023803710938
1445421198628;207.15753173828125;-102.80455017089844;-11.365680694580078;3.0272979736328125;-14.573654174804688;-7.870819091796875
1445421198660;204.6365966796875;-103.27349090576172;-11.103423118591309;1.9681854248046875;-9.00347900390625;-3.51666259765625
1445421198694;203.5159912109375;-103.82527923583984;-11.21218204498291;3.7922210693359375;-11.141326904296875;-0.2020263671875
1445421198726;204.00750732421875;-104.46662902832031;-11.645855903625488;5.1063079833984375;-10.415634155273438;0.7786407470703125
1445421198759;207.5360107421875;-103.57666778564453;-11.461647987365723;5.3612823486328125;-8.532760620117188;1.131683349609375
1445421198792;209.36956787109375;-102.81378936767578;-11.489508628845215;4.243316650390625;-7.2775115966796875;3.1714630126953125
1445421198826;213.56478881835938;-99.77490234375;-10.861969947814941;2.1446990966796875;-9.925308227539062;2.896881103515625
1445421198859;215.5087890625;-97.11695098876953;-10.770256042480469;-1.228790283203125;-10.7686767578125;2.896881103515625
1445421198891;217.3653564453125;-93.3267593383789;-10.457528114318848;-2.2486724853515625;-10.611770629882812;0.81787109375
1445421198925;219.03582763671875;-91.05986022949219;-9.438858985900879;-0.1108245849609375;-10.611770629882812;1.465118408203125
1445421198957;220.7755126953125;-89.41461944580078;-8.613895416259766;1.1444244384765625;-9.278060913085938;2.092742919921875
1445421198991;223.01876831054688;-86.541259765625;-7.2103681564331055;2.3408355712890625;-9.160385131835938;0.955169677734375
1445421199025;224.8892822265625;-83.83130645751953;-6.922478675842285;2.752716064453125;-9.474197387695312;0.621734619140625
1445421199060;226.5543212890625;-82.7337646484375;-7.235435485839844;0.9090576171875;-9.552658081054688;1.8573760986328125
1445421199099;229.91485595703125;-80.53887176513672;-7.938177585601807;0.8109893798828125;-9.807632446289062;0.9159393310546875
1445421199128;232.30801391601562;-78.44729614257812;-8.88987922668457;0.7717742919921875;-10.062606811523438;0.896331787109375
1445421199156;233.17898559570312;-77.4558334350586;-9.538990020751953;0.4971771240234375;-10.5921630859375;1.072845458984375
1445421199189;234.57101440429688;-75.39679718017578;-10.80477237701416;-0.34619140625;-10.9451904296875;0.680572509765625
1445421199225;235.33441162109375;-73.83116149902344;-11.757957458496094;0.7129364013671875;-11.533599853515625;0.4059906005859375
1445421199254;235.99224853515625;-73.54025268554688;-12.362886428833008;0.28143310546875;-11.435531616210938;0.504058837890625
1445421199287;236.901611328125;-73.68650817871094;-13.001081466674805;-0.1892852783203125;-12.278900146484375;-0.77081298828125
1445421199322;237.021484375;-74.12049102783203;-12.995869636535645;-0.34619140625;-14.181396484375;-1.7318572998046875
1445421199353;235.99688720703125;-76.73168182373047;-12.387578964233398;0.2618255615234375;-13.298797607421875;-1.3592071533203125
1445421199387;235.73953247070312;-82.73933410644531;-11.602850914001465;2.4781341552734375;-12.02392578125;1.190521240234375
1445421199419;235.723388671875;-86.26991271972656;-11.215646743774414;3.92950439453125;-12.220062255859375;2.269256591796875
1445421199452;235.99591064453125;-92.67765808105469;-11.101434707641602;4.1060333251953125;-12.455429077148438;1.523956298828125
1445421199485;236.64794921875;-95.4610366821289;-11.08464527130127;2.9684600830078125;-10.984420776367188;0.955169677734375
1445421199518;238.07473754882812;-99.98823547363281;-10.80991268157959;2.301605224609375;-10.19989013671875;1.4847259521484375
1445421199551;239.9530029296875;-103.2454605102539;-9.714228630065918;1.0855865478515625;-9.180007934570312;1.7789306640625
1445421199584;240.23175048828125;-104.942138671875;-9.239532470703125;1.3209381103515625;-7.57171630859375;1.44549560546875
1445421199617;237.51568603515625;-108.64271545410156;-9.42927074432373;2.125091552734375;-6.3949127197265625;1.9554443359375
1445421199650;234.4638671875;-110.65225982666016;-10.609227180480957;2.7134857177734375;-4.8062286376953125;2.9164886474609375
1445421199683;233.58065795898438;-110.7780532836914;-11.06344985961914;2.55657958984375;-4.6885528564453125;1.8377685546875
1445421199716;232.26007080078125;-108.8982162475586;-11.328632354736328;2.6546478271484375;-8.4346923828125;-1.0453948974609375
1445421199749;230.1968994140625;-105.5274887084961;-10.535957336425781;3.69415283203125;-15.338577270507812;-9.616409301757812
1445421199783;229.30661010742188;-104.29991912841797;-10.251090049743652;2.7723236083984375;-12.906524658203125;-6.478271484375
1445421199816;225.83609008789062;-104.00731658935547;-10.498787879943848;2.164306640625;-11.180557250976562;-5.0661163330078125
1445421199848;222.814453125;-104.16615295410156;-10.74993896484375;4.459075927734375;-10.121444702148438;-1.888763427734375
1445421199881;222.4752197265625;-104.52305603027344;-11.15564250946045;4.3021697998046875;-11.082489013671875;-0.4962158203125
1445421199915;224.66619873046875;-104.2815170288086;-11.363828659057617;4.4002227783203125;-9.748779296875;0.327545166015625
1445421199947;226.80377197265625;-103.87784576416016;-10.990035057067871;3.3018798828125;-7.2775115966796875;4.210968017578125
1445421199980;231.97601318359375;-101.37252044677734;-10.142271995544434;3.0076904296875;-8.513153076171875;3.77947998046875
1445421200013;236.54635620117188;-96.311767578125;-9.99044132232666;0.6737060546875;-10.905975341796875;2.7399749755859375
1445421200047;237.94735717773438;-94.19021606445312;-9.79494857788086;-1.1307220458984375;-10.513702392578125;1.014007568359375
1445421200079;239.57278442382812;-92.0041732788086;-9.098505973815918;-0.3854217529296875;-10.376419067382812;0.7198028564453125
1445421200113;242.46063232421875;-88.5512466430664;-7.878098011016846;0.28143310546875;-9.90570068359375;1.9946746826171875
1445421200146;243.64422607421875;-86.94248962402344;-7.313979148864746;1.8308868408203125;-9.572265625;1.50433349609375
1445421200179;246.52194213867188;-83.89859008789062;-6.6186842918396;2.811553955078125;-9.3369140625;0.955169677734375
1445421200210;248.89630126953125;-81.1124496459961;-7.004632472991943;2.2623748779296875;-9.376129150390625;1.1709136962890625
1445421200244;249.89877319335938;-79.86017608642578;-7.481471538543701;1.30133056640625;-9.631103515625;1.38665771484375
1445421200277;251.41494750976562;-77.7204818725586;-8.621419906616211;0.7325439453125;-9.96453857421875;1.1512908935546875
1445421200310;251.756591796875;-76.75696563720703;-9.2879638671875;0.418731689453125;-10.7098388671875;0.680572509765625
1445421200343;251.90731811523438;-74.68316650390625;-10.68006420135498;-0.718841552734375;-10.670608520507812;1.0336151123046875
1445421200377;252.15765380859375;-73.12206268310547;-11.685418128967285;-0.4834747314453125;-10.905975341796875;0.759033203125
1445421200410;251.96377563476562;-72.66384887695312;-11.826839447021484;0.3206634521484375;-11.847412109375;0.4648284912109375
1445421200442;251.46096801757812;-72.54502868652344;-11.999566078186035;1.1444244384765625;-12.847686767578125;0.4648284912109375
1445421200476;249.52615356445312;-73.87075805664062;-11.684645652770996;0.1441497802734375;-14.86785888671875;-1.00616455078125
1445421200509;248.26287841796875;-75.30134582519531;-11.417869567871094;1.3405609130859375;-11.710113525390625;-1.0257720947265625
1445421200542;247.3179931640625;-80.37641143798828;-11.131203651428223;1.53668212890625;-11.259017944335938;-0.1039581298828125
1445421200575;248.15093994140625;-87.12061309814453;-10.502501487731934;3.1645965576171875;-12.514266967773438;2.328094482421875
1445421200613;249.06649780273438;-92.64644622802734;-10.26401138305664;3.0272979736328125;-12.121994018554688;0.8571014404296875
1445421200645;249.59967041015625;-95.10785675048828;-10.300053596496582;2.870391845703125;-11.21978759765625;0.896331787109375
1445421200673;252.04391479492188;-99.26188659667969;-9.76020622253418;0.9090576171875;-9.96453857421875;1.56317138671875
1445421200711;253.48065185546875;-100.7024917602539;-9.171757698059082;0.3795013427734375;-8.88580322265625;1.9162139892578125
1445421200739;253.72357177734375;-104.37308502197266;-8.495612144470215;1.0071258544921875;-8.1405029296875;1.0924530029296875
1445421200773;252.62478637695312;-106.16239929199219;-8.6242036819458;2.73309326171875;-5.9830322265625;2.4850006103515625
1445421200808;250.61944580078125;-108.70276641845703;-9.399456977844238;2.43890380859375;-5.276947021484375;2.6811370849609375
1445421200838;249.58084106445312;-109.6958236694336;-10.090378761291504;2.811553955078125;-5.35540771484375;1.2885894775390625
1445421200870;249.46694946289062;-109.1039047241211;-10.236115455627441;2.6546478271484375;-8.925033569335938;-2.1045074462890625
1445421200904;246.00439453125;-105.8515853881836;-10.116899490356445;2.9684600830078125;-12.396575927734375;-6.9097747802734375
1445421200938;243.04095458984375;-104.23694610595703;-9.93369197845459;2.7723236083984375;-13.592987060546875;-7.4001007080078125
1445421200970;237.68634033203125;-102.8595199584961;-10.127535820007324;2.7723236083984375;-10.847137451171875;-5.1053466796875
1445421201003;232.40469360351562;-102.70063781738281;-10.273862838745117;4.5963592529296875;-11.082489013671875;-2.9478759765625
1445421201036;232.06524658203125;-103.1493148803711;-10.51598834991455;4.1648712158203125;-10.396026611328125;1.465118408203125
1445421201070;236.72348022460938;-103.44792938232422;-10.637625694274902;4.8709564208984375;-9.081939697265625;1.8573760986328125
1445421201102;240.08990478515625;-103.12886810302734;-10.396255493164062;3.0076904296875;-6.9048614501953125;3.83831787109375
1445421201135;252.74578857421875;-101.21514892578125;-10.025418281555176;1.53668212890625;-10.905975341796875;2.975341796875
1445421201168;360;0;0;0.04608154296875;-11.494369506835938;3.073394775390625
1445421201201;360;0;0;-1.405303955078125;-10.729446411132812;0.896331787109375
1445421201235;360;0;0;0.3991241455078125;-10.08221435546875;0.81787109375
1445421201268;360;0;0;1.105194091796875;-9.572265625;1.6220245361328125
1445421201300;360;0;0;1.791656494140625;-9.45458984375;1.2885894775390625
1445421201333;360;0;0;2.3408355712890625;-9.415359497070312;0.7786407470703125
1445421201366;360;0;0;1.6543731689453125;-9.395751953125;1.0924530029296875
1445421201400;360;0;0;1.2621002197265625;-9.45458984375;1.3670501708984375
1445421201433;360;0;0;1.0855865478515625;-9.670333862304688;1.308197021484375
1445421201466;360;0;0;0.536407470703125;-10.749069213867188;0.4648284912109375
1445421201499;360;0;0;-0.228515625;-11.16094970703125;-0.0254974365234375
1445421201530;360;0;0;-0.032379150390625;-11.415924072265625;-0.0451202392578125
1445421201565;360;0;0;0.22259521484375;-11.612045288085938;-0.574676513671875
1445421201597;360;0;0;-0.1696624755859375;-13.592987060546875;-0.633514404296875
1445421201630;360;0;0;-0.8169097900390625;-14.514816284179688;-1.06500244140625
1445421201663;360;0;0;1.1444244384765625;-12.612335205078125;-0.7904205322265625
1445421201697;360;0;0;2.4585113525390625;-12.337738037109375;2.8184356689453125
1445421201730;360;0;0;2.870391845703125;-12.730010986328125;3.014556884765625
1445421201763;360;0;0;1.791656494140625;-12.278900146484375;0.759033203125
1445421201796;360;0;0;1.615142822265625;-11.27862548828125;1.2297515869140625
1445421201829;309.1566162109375;-102.1244888305664;-10.657515525817871;0.4971771240234375;-9.376129150390625;1.818145751953125
1445421201861;319.10137939453125;-104.71491241455078;-8.608341217041016;0.9482879638671875;-8.003204345703125;1.641632080078125
1445421201899;322.53228759765625;-105.94058990478516;-8.185813903808594;1.9681854248046875;-6.66949462890625;2.6811370849609375
1445421201927;326.811279296875;-108.3385238647461;-8.513349533081055;2.0270233154296875;-5.9438018798828125;2.5438385009765625
1445421201961;328.1842041015625;-108.98011779785156;-9.02794361114502;2.2819976806640625;-5.47308349609375;0.7786407470703125
1445421201994;330.00164794921875;-108.53433227539062;-10.26911735534668;2.125091552734375;-6.1399383544921875;0.386383056640625
1445421202027;331.014404296875;-105.42140197753906;-11.353461265563965;3.87066650390625;-11.415924072265625;-4.36004638671875
1445421202060;330.57391357421875;-103.64253997802734;-11.787692070007324;1.41900634765625;-13.338027954101562;-5.987945556640625
1445421202093;325.2751770019531;-102.3432846069336;-12.613243103027344;0.477569580078125;-13.416473388671875;-4.909210205078125
1445421202126;323.5428771972656;-102.83472442626953;-11.917791366577148;1.30133056640625;-10.160659790039062;-3.4970550537109375
1445421202158;325.1803283691406;-103.38845825195312;-11.554097175598145;2.8311614990234375;-9.886077880859375;-1.574951171875
1445421202196;333.28411865234375;-104.17324829101562;-11.786848068237305;5.9889068603515625;-10.905975341796875;1.190521240234375
1445421202225;340.0469665527344;-104.18269348144531;-12.026541709899902;6.1065826416015625;-8.395462036132812;1.876983642578125
1445421202262;351.43255615234375;-104.00480651855469;-12.743720054626465;3.2822723388671875;-7.35595703125;4.3482666015625
1445421202292;355.76416015625;-100.63111877441406;-13.21439266204834;2.046630859375;-10.376419067382812;3.406829833984375
1445421202324;354.66680908203125;-98.12946319580078;-13.515373229980469;-2.425201416015625;-12.35736083984375;0.4256134033203125
1445421202361;349.5042724609375;-95.38711547851562;-13.594993591308594;-0.7580718994140625;-10.572540283203125;1.0532379150390625
1445421202392;347.5667724609375;-93.52800750732422;-12.517572402954102;0.9090576171875;-9.925308227539062;1.190521240234375
1445421202423;347.9424133300781;-92.25450897216797;-11.818757057189941;2.066253662109375;-9.042709350585938;1.308197021484375
1445421202456;349.1175537109375;-89.4338607788086;-11.106243133544922;2.7919464111328125;-9.06231689453125;0.504058837890625
1445421202489;349.2914733886719;-86.75946044921875;-11.294132232666016;2.752716064453125;-9.493820190429688;0.0921783447265625
1445421202521;348.9902648925781;-85.66889953613281;-11.576502799987793;1.53668212890625;-9.650726318359375;0.876708984375
1445421202555;348.798828125;-83.56129455566406;-12.13449478149414;0.8894500732421875;-9.474197387695312;1.523956298828125
1445421202588;347.826904296875;-81.24826049804688;-12.750373840332031;0.6737060546875;-10.160659790039062;1.7985382080078125
1445421202621;346.9569396972656;-80.03655242919922;-13.100142478942871;0.7325439453125;-10.396026611328125;1.641632080078125
1445421202654;345.9854736328125;-77.65579223632812;-13.74409008026123;1.497467041015625;-10.435256958007812;1.4258880615234375
1445421202687;345.5329284667969;-75.4251937866211;-14.611898422241211;2.2231597900390625;-10.905975341796875;0.30792236328125
1445421202719;344.7281799316406;-74.81792449951172;-15.142148971557617;1.105194091796875;-11.121719360351562;0.621734619140625
1445421202752;343.0157165527344;-74.64868927001953;-15.756134986877441;0.3991241455078125;-11.827789306640625;0.2883148193359375
1445421202786;341.2184753417969;-74.72328186035156;-15.932071685791016;-1.4445343017578125;-13.946029663085938;0.30792236328125
1445421202819;335.0936279296875;-75.64227294921875;-15.523666381835938;-0.5619354248046875;-13.965652465820312;-0.7119598388671875
1445421202851;329.8875732421875;-79.26459503173828;-15.095599174499512;1.75244140625;-11.847412109375;-1.4180450439453125
1445421202885;328.8175354003906;-82.61937713623047;-15.019734382629395;2.2623748779296875;-11.298233032226562;-0.4373779296875
1445421202917;327.9090270996094;-89.70791625976562;-14.576555252075195;2.183929443359375;-12.455429077148438;3.0341796875
1445421202950;325.9588623046875;-95.23468017578125;-14.393038749694824;1.9093475341796875;-10.964813232421875;2.40655517578125
1445421202984;324.5860290527344;-97.5754623413086;-14.408934593200684;0.34027099609375;-10.239120483398438;2.269256591796875
1445421203016;322.3961486816406;-101.37934112548828;-13.218914031982422;-0.326568603515625;-10.415634155273438;1.0924530029296875
1445421203051;320.4213562011719;-104.8515853881836;-11.67478084564209;0.8306121826171875;-8.277786254882812;0.876708984375
1445421203082;318.35174560546875;-106.46556091308594;-11.436694145202637;1.732818603515625;-7.7286224365234375;1.56317138671875
1445421203115;313.2953796386719;-108.59796905517578;-11.496201515197754;2.635040283203125;-6.0811004638671875;2.64190673828125
1445421203149;311.2180480957031;-109.09981536865234;-11.73440933227539;3.4587860107421875;-4.904296875;1.582794189453125
1445421203182;308.6917419433594;-108.80970764160156;-12.223299026489258;3.556854248046875;-5.5123138427734375;0.8374786376953125
1445421203214;306.5835876464844;-105.75022888183594;-12.793787002563477;3.498016357421875;-10.19989013671875;-2.5948486328125
1445421203249;304.9903869628906;-103.7814712524414;-12.97264289855957;1.673980712890625;-14.769790649414062;-7.5177764892578125
1445421203280;299.61309814453125;-101.70576477050781;-13.41450309753418;0.9090576171875;-14.377532958984375;-5.85064697265625
1445421203313;294.5223388671875;-102.4292984008789;-12.591608047485352;0.7521514892578125;-10.5333251953125;-4.399261474609375
1445421203347;292.90509033203125;-103.12728881835938;-12.312745094299316;1.6935882568359375;-9.297683715820312;-2.398712158203125
1445421203378;291.892578125;-103.53555297851562;-12.89653205871582;4.812103271484375;-11.768951416015625;-0.1627960205078125
1445421203412;294.91851806640625;-103.63343048095703;-13.32656478881836;5.4789581298828125;-7.375579833984375;1.7200775146484375
1445421203445;297.9468994140625;-103.85504913330078;-13.353446960449219;4.812103271484375;-5.5123138427734375;3.5048980712890625
1445421203478;303.9385986328125;-101.2841796875;-13.320125579833984;3.1057586669921875;-8.964248657226562;2.896881103515625
1445421203512;305.53704833984375;-98.55977630615234;-13.326125144958496;-0.895355224609375;-12.59271240234375;1.3474273681640625
1445421203544;304.6399841308594;-95.33850860595703;-12.931670188903809;-1.915252685546875;-10.984420776367188;1.3474273681640625
1445421203577;303.7275695800781;-93.7108154296875;-12.362276077270508;0.6148681640625;-9.886077880859375;1.1120758056640625
1445421203611;303.814697265625;-92.22373962402344;-11.852838516235352;1.36016845703125;-10.239120483398438;1.56317138671875
1445421203643;304.7287902832031;-89.17481231689453;-10.870867729187012;1.5759124755859375;-9.709564208984375;1.9946746826171875
1445421203677;306.5264587402344;-86.33252716064453;-10.284765243530273;2.6546478271484375;-9.199615478515625;1.014007568359375
1445421203711;307.51104736328125;-84.99820709228516;-10.224037170410156;2.67425537109375;-9.415359497070312;0.81787109375
1445421203742;309.0852355957031;-82.38623046875;-10.661857604980469;2.3408355712890625;-9.493820190429688;1.4258880615234375
1445421203776;310.3161926269531;-80.00363159179688;-11.39124870300293;1.673980712890625;-9.90570068359375;1.5435638427734375
1445421203808;310.6226501464844;-78.86415100097656;-11.846410751342773;1.105194091796875;-10.5333251953125;1.1709136962890625
1445421203841;310.43994140625;-76.75523376464844;-12.693475723266602;0.5560302734375;-10.5921630859375;-0.0254974365234375
1445421203874;310.2003173828125;-75.8245620727539;-13.063862800598145;0.6344757080078125;-10.866744995117188;0.111785888671875
1445421203907;308.68414306640625;-74.85555267333984;-13.621944427490234;0.1441497802734375;-11.239395141601562;-0.2020263671875
1445421203943;306.9891357421875;-74.9327163696289;-13.891040802001953;0.987518310546875;-11.121719360351562;-0.574676513671875
1445421203973;305.0782165527344;-75.23211669921875;-14.095560073852539;-0.326568603515625;-13.90679931640625;-1.12384033203125
1445421204015;299.9573974609375;-77.19232940673828;-14.670345306396484;0.16375732421875;-13.122268676757812;0.504058837890625
1445421204041;297.726318359375;-81.20245361328125;-14.997793197631836;0.987518310546875;-12.553482055664062;1.190521240234375
1445421204072;299.0576477050781;-84.18778991699219;-14.970094680786133;1.5170745849609375;-12.259292602539062;2.3477020263671875
1445421204105;305.2204284667969;-90.21857452392578;-14.653228759765625;1.497467041015625;-11.768951416015625;2.5438385009765625
1445421204139;311.9365539550781;-94.83924865722656;-14.627457618713379;1.47784423828125;-11.023651123046875;1.6612396240234375
1445421204171;316.0368957519531;-97.0404281616211;-14.675874710083008;1.8308868408203125;-10.239120483398438;1.582794189453125
1445421204204;325.6910095214844;-100.78985595703125;-14.452251434326172;1.30133056640625;-9.199615478515625;1.7789306640625
1445421204237;329.8983459472656;-102.03939819335938;-13.969834327697754;0.2618255615234375;-9.415359497070312;1.56317138671875
1445421204270;336.554931640625;-104.17822265625;-12.662538528442383;0.7325439453125;-9.023101806640625;1.0532379150390625
1445421204304;340.1850891113281;-106.25642395019531;-12.237055778503418;1.673980712890625;-7.669769287109375;1.818145751953125
1445421204336;341.2480773925781;-106.97710418701172;-12.393489837646484;2.49774169921875;-6.66949462890625;1.465118408203125
1445421204369;343.55462646484375;-107.58118438720703;-12.848627090454102;3.0861358642578125;-6.5125885009765625;0.504058837890625
1445421204403;344.7793884277344;-107.28175354003906;-12.984659194946289;3.0272979736328125;-7.9639739990234375;-1.0453948974609375
1445421204436;346.7948913574219;-105.37207794189453;-13.374249458312988;2.419281005859375;-9.944915771484375;-3.908935546875
1445421204469;346.26080322265625;-103.3101577758789;-14.06137752532959;1.36016845703125;-11.847412109375;-5.242645263671875
1445421204502;344.1101989746094;-102.56525421142578;-14.241287231445312;1.3797760009765625;-13.926422119140625;-5.242645263671875
1445421204535;341.13482666015625;-102.84814453125;-13.887670516967773;1.928955078125;-11.847412109375;-4.6346282958984375
1445421204568;339.346435546875;-104.41796112060547;-13.87402057647705;1.98779296875;-6.49298095703125;-0.1431732177734375
1445421204602;341.4345703125;-103.29907989501953;-14.076868057250977;5.5181884765625;-11.827789306640625;1.6612396240234375
1445421204633;344.2610778808594;-102.44204711914062;-14.297780990600586;6.4400177001953125;-11.847412109375;-0.7315826416015625
1445421204667;349.5987548828125;-101.8093032836914;-15.079981803894043;4.066802978515625;-7.9835968017578125;1.3474273681640625
1445421204699;351.1907958984375;-101.2810287475586;-15.048484802246094;2.3408355712890625;-6.473358154296875;3.916778564453125
1445421204732;352.0666809082031;-97.0421142578125;-14.865273475646973;0.595245361328125;-10.180282592773438;2.720367431640625
1445421204765;346.471923828125;-93.74909973144531;-15.445648193359375;-2.2094573974609375;-11.357070922851562;0.641357421875
1445421204798;344.0428466796875;-92.59786224365234;-15.070500373840332;-1.6014404296875;-10.807907104492188;0.111785888671875
1445421204832;342.4797058105469;-90.03008270263672;-13.53030776977539;1.53668212890625;-10.219512939453125;1.6808624267578125
1445421204864;344.45550537109375;-87.48774719238281;-12.261454582214355;3.2038116455078125;-8.964248657226562;0.8374786376953125
1445421204897;345.2862243652344;-86.26927185058594;-12.049317359924316;3.831451416015625;-8.670059204101562;0.7394256591796875
1445421204931;344.7514343261719;-84.2707748413086;-12.191061019897461;2.67425537109375;-9.709564208984375;0.07257080078125
1445421204963;344.32989501953125;-82.90292358398438;-12.492122650146484;2.164306640625;-9.631103515625;1.0924530029296875
1445421204996;344.38726806640625;-82.2254638671875;-12.840394020080566;1.673980712890625;-9.356521606445312;1.876983642578125
1445421205029;343.7681884765625;-80.37295532226562;-13.7841796875;1.222869873046875;-10.219512939453125;1.56317138671875
1445421205062;343.2731018066406;-79.09468078613281;-14.245401382446289;1.12481689453125;-10.8275146484375;0.562896728515625
1445421205096;342.81951904296875;-76.46958923339844;-14.860244750976562;1.497467041015625;-11.357070922851562;0.2686920166015625
1445421205128;341.7408447265625;-74.93922424316406;-15.355661392211914;0.6148681640625;-11.21978759765625;-0.0254974365234375
1445421205165;341.402099609375;-74.9340591430664;-15.5756196975708;-0.3069610595703125;-12.965362548828125;-0.2020263671875
1445421205195;339.847900390625;-75.55377960205078;-15.493154525756836;-0.542327880859375;-13.534149169921875;-0.4766082763671875
1445421205227;336.7978515625;-77.56681060791016;-15.073339462280273;1.6935882568359375;-12.337738037109375;-1.5553436279296875
1445421205262;334.9681701660156;-79.29472351074219;-15.20422077178955;1.497467041015625;-11.45513916015625;-0.4177703857421875
1445421205294;333.1884460449219;-85.66262817382812;-15.619267463684082;1.164031982421875;-11.749343872070312;1.6024017333984375
1445421205327;331.0079650878906;-91.9467544555664;-15.271305084228516;0.869842529296875;-12.965362548828125;2.210418701171875
1445421205358;329.52410888671875;-94.37049865722656;-15.1455659866333;0.418731689453125;-12.47503662109375;1.6024017333984375
1445421205393;326.9607238769531;-98.80146026611328;-14.605320930480957;-0.1304473876953125;-10.9451904296875;1.641632080078125
1445421205427;325.9830627441406;-100.51776123046875;-14.028549194335938;-0.228515625;-10.160659790039062;1.523956298828125
1445421205458;323.7511291503906;-102.98413848876953;-12.66447925567627;-0.0716094970703125;-9.650726318359375;1.6024017333984375
1445421205491;318.5242004394531;-105.23570251464844;-11.82819938659668;0.6737060546875;-8.709274291992188;1.5435638427734375
1445421205528;311.6197814941406;-106.7974853515625;-11.345507621765137;1.497467041015625;-7.944366455078125;1.7789306640625
1445421205560;308.49249267578125;-107.2896957397461;-11.36814022064209;1.98779296875;-7.2775115966796875;1.5435638427734375
1445421205592;303.8230895996094;-107.39359283447266;-11.722123146057129;3.63531494140625;-6.8460235595703125;0.7982635498046875
1445421205625;302.0591735839844;-106.66315460205078;-11.897174835205078;3.9883575439453125;-7.1402130126953125;0.36676025390625
1445421205659;299.80133056640625;-104.60169982910156;-12.076309204101562;4.007965087890625;-8.277786254882812;-1.8495330810546875
1445421205692;297.3946533203125;-102.63824462890625;-12.80830192565918;2.0858612060546875;-9.807632446289062;-2.7321319580078125
1445421205723;295.324951171875;-101.79029083251953;-13.158942222595215;0.5756378173828125;-12.788848876953125;-3.653961181640625
1445421205757;292.20477294921875;-101.14704895019531;-12.947930335998535;2.61541748046875;-12.847686767578125;-5.61529541015625
1445421205788;288.34051513671875;-102.09310150146484;-13.094649314880371;2.7919464111328125;-7.5913238525390625;-2.5948486328125
1445421205821;286.88043212890625;-102.21894836425781;-13.283829689025879;2.419281005859375;-6.806793212890625;0.36676025390625
1445421205855;289.8083801269531;-101.23240661621094;-13.117461204528809;5.655487060546875;-10.631378173828125;2.386932373046875
1445421205888;293.1337585449219;-100.27446746826172;-12.994677543640137;6.02813720703125;-12.239669799804688;-3.9677734375
1445421205921;296.88629150390625;-98.57747650146484;-13.073933601379395;3.046905517578125;-7.944366455078125;2.504608154296875
1445421205955;299.091552734375;-97.90921020507812;-12.491436004638672;0.869842529296875;-8.591598510742188;3.5441131591796875
1445421205986;301.69683837890625;-93.76480102539062;-11.746027946472168;0.3795013427734375;-11.21978759765625;1.9162139892578125
1445421206020;301.463623046875;-91.57742309570312;-11.58374309539795;-0.405029296875;-11.710113525390625;-0.0843353271484375
1445421206053;302.44482421875;-89.36597442626953;-10.389167785644531;-0.150054931640625;-10.435256958007812;1.308197021484375
1445421206085;303.5272521972656;-87.81232452392578;-9.694612503051758;0.477569580078125;-9.533035278320312;2.6026763916015625
1445421206118;305.9321594238281;-84.7509765625;-8.898658752441406;2.6546478271484375;-9.434967041015625;1.308197021484375
1445421206151;306.95654296875;-83.25897216796875;-8.839507102966309;2.419281005859375;-9.944915771484375;0.6021270751953125
1445421206185;308.7341613769531;-80.7838363647461;-9.199658393859863;1.6347503662109375;-9.68994140625;1.465118408203125
1445421206217;310.83953857421875;-78.6884536743164;-9.708709716796875;1.3993988037109375;-9.768402099609375;1.8377685546875
1445421206249;311.5490417480469;-77.642822265625;-10.110978126525879;0.987518310546875;-10.062606811523438;0.896331787109375
1445421206284;312.46258544921875;-75.64080047607422;-11.096936225891113;0.595245361328125;-10.356796264648438;0.896331787109375
1445421206316;313.240234375;-73.83863830566406;-11.949052810668945;0.2618255615234375;-10.7098388671875;1.1120758056640625
1445421206350;313.6758117675781;-73.20222473144531;-12.299263000488281;0.04608154296875;-11.004043579101562;0.13140869140625
1445421206382;314.633544921875;-72.6677017211914;-12.910798072814941;0.4383392333984375;-11.141326904296875;-0.6531219482421875
1445421206415;315.6895751953125;-73.18791961669922;-13.143302917480469;-0.3069610595703125;-13.887191772460938;-0.5550537109375
1445421206449;315.6789245605469;-73.81261444091797;-13.085219383239746;-1.3856964111328125;-14.259841918945312;-0.4766082763671875
1445421206481;314.3058776855469;-76.581298828125;-12.513354301452637;0.928680419921875;-12.278900146484375;-0.4766082763671875
1445421206514;312.76263427734375;-82.04074096679688;-11.920099258422852;3.1057586669921875;-12.788848876953125;2.6026763916015625
1445421206547;312.90423583984375;-85.12141418457031;-11.754016876220703;3.4784088134765625;-12.259292602539062;3.5048980712890625
1445421206580;314.1213684082031;-90.49081420898438;-11.239561080932617;4.2237091064453125;-11.553207397460938;1.6220245361328125
1445421206614;314.568115234375;-92.8782730102539;-11.104788780212402;3.1645965576171875;-9.866470336914062;0.621734619140625
1445421206646;314.7318420410156;-96.853271484375;-11.061222076416016;1.98779296875;-9.434967041015625;1.014007568359375
1445421206680;315.23602294921875;-99.78563690185547;-10.38708209991455;0.6148681640625;-8.454315185546875;1.700469970703125
1445421206714;314.41961669921875;-103.23959350585938;-10.126437187194824;1.9093475341796875;-7.5128631591796875;1.0336151123046875
1445421206745;313.28363037109375;-104.8604507446289;-10.210094451904297;2.988067626953125;-7.179443359375;1.38665771484375
1445421206779;310.6675720214844;-106.587158203125;-10.802303314208984;3.0665283203125;-5.8261260986328125;1.8573760986328125
1445421206812;309.796142578125;-106.83645629882812;-11.054303169250488;2.67425537109375;-5.7476806640625;1.249359130859375
1445421206844;308.1466979980469;-105.58150482177734;-11.422940254211426;1.6347503662109375;-7.2186737060546875;0.052947998046875
1445421206878;307.7881164550781;-103.05306243896484;-10.756434440612793;1.98779296875;-11.357070922851562;-5.654510498046875
1445421206911;307.810791015625;-101.93161010742188;-10.36461353302002;2.1446990966796875;-13.141891479492188;-7.3804931640625
1445421206943;306.1632995605469;-101.2267074584961;-9.981365203857422;2.7919464111328125;-12.573104858398438;-5.4387664794921875
1445421206976;305.2879943847656;-101.46002197265625;-9.785327911376953;3.51763916015625;-8.94464111328125;-3.9285430908203125
1445421207011;304.1303405761719;-102.54802703857422;-10.227752685546875;4.8513336181640625;-8.82696533203125;-1.888763427734375
1445421207042;305.7769775390625;-102.267333984375;-11.21031665802002;5.1847686767578125;-11.494369506835938;0.327545166015625
1445421207077;307.7944641113281;-101.92362976074219;-11.268299102783203;4.184478759765625;-9.042709350585938;1.0336151123046875
1445421207109;312.70843505859375;-100.7569351196289;-10.635272026062012;3.1253662109375;-7.0813751220703125;3.6814117431640625
1445421207142;317.5012512207031;-96.84010314941406;-10.033132553100586;2.5369720458984375;-9.611495971679688;2.955718994140625
1445421207174;318.10980224609375;-94.56248474121094;-10.020402908325195;-0.267730712890625;-11.21978759765625;1.9358367919921875
1445421207208;318.36309814453125;-92.63787841796875;-9.809832572937012;-1.3072357177734375;-11.180557250976562;0.680572509765625
1445421207240;319.9890441894531;-90.36170196533203;-8.566293716430664;0.8306121826171875;-9.984146118164062;1.44549560546875
1445421207273;321.4820861816406;-88.83147430419922;-7.742133617401123;1.1444244384765625;-9.376129150390625;2.092742919921875
1445421207307;323.95513916015625;-85.92133331298828;-6.77180290222168;2.4585113525390625;-9.513427734375;0.6609649658203125
1445421207340;326.5447998046875;-83.20684051513672;-6.898926734924316;1.8701171875;-9.68994140625;0.7001953125
1445421207372;327.96722412109375;-82.03163146972656;-7.2552361488342285;1.12481689453125;-9.68994140625;1.190521240234375
1445421207407;329.6830139160156;-79.8464126586914;-7.942639350891113;0.28143310546875;-9.670333862304688;1.3474273681640625
1445421207439;330.10589599609375;-78.77365112304688;-8.329489707946777;0.536407470703125;-9.96453857421875;1.0336151123046875
1445421207471;330.5131530761719;-76.8036117553711;-9.289539337158203;0.6344757080078125;-10.337188720703125;0.6609649658203125
1445421207504;330.5421447753906;-74.85831451416016;-10.488056182861328;-0.267730712890625;-10.807907104492188;1.0532379150390625
1445421207537;330.59716796875;-74.09024047851562;-10.926773071289062;0.16375732421875;-11.141326904296875;1.5435638427734375
1445421207571;330.6394348144531;-73.1803207397461;-11.438780784606934;0.4971771240234375;-11.16094970703125;0.955169677734375
1445421207604;331.02001953125;-73.07959747314453;-11.902559280395508;0.7521514892578125;-11.984695434570312;-0.0451202392578125
1445421207637;330.51678466796875;-73.22764587402344;-11.988471031188965;-0.542327880859375;-13.2203369140625;-0.3197021484375
1445421207669;328.29205322265625;-74.58377075195312;-11.510512351989746;0.1441497802734375;-13.2791748046875;-1.143463134765625
1445421207702;326.17523193359375;-78.3314437866211;-11.095722198486328;1.8701171875;-11.259017944335938;-0.3589324951171875
1445421207735;325.77838134765625;-81.68995666503906;-11.065948486328125;3.3411102294921875;-11.710113525390625;0.621734619140625
1445421207769;325.75531005859375;-88.84394836425781;-11.196303367614746;4.0275726318359375;-12.121994018554688;3.093017578125
1445421207801;326.2926025390625;-91.75609588623047;-11.186841011047363;2.55657958984375;-11.10211181640625;1.5435638427734375
1445421207835;326.0765380859375;-96.49427032470703;-11.052709579467773;2.0074005126953125;-10.376419067382812;1.56317138671875
1445421207867;325.7435607910156;-100.34332275390625;-10.391101837158203;1.2817230224609375;-10.08221435546875;1.32781982421875
1445421207901;325.5104064941406;-101.76801300048828;-9.875042915344238;1.4582366943359375;-8.473922729492188;1.9162139892578125
1445421207935;323.03497314453125;-104.4173812866211;-9.440463066101074;2.0858612060546875;-7.3363494873046875;1.7397003173828125
1445421207967;318.8712463378906;-106.74226379394531;-9.787909507751465;3.046905517578125;-6.1007080078125;1.759307861328125
1445421208003;316.966552734375;-107.27542114257812;-10.271923065185547;3.5372467041015625;-5.669219970703125;1.818145751953125
1445421208032;314.7220153808594;-106.70037841796875;-11.0318021774292;3.75299072265625;-5.9438018798828125;1.4847259521484375
1445421208065;314.51263427734375;-105.6794204711914;-11.108746528625488;3.7725982666015625;-8.297409057617188;-0.77081298828125
1445421208099;316.2087097167969;-102.76823425292969;-10.654995918273926;3.6745452880859375;-10.160659790039062;-3.7520294189453125
1445421208131;316.8369140625;-100.4331283569336;-10.535322189331055;1.18365478515625;-13.90679931640625;-7.302032470703125
1445421208164;316.1358642578125;-100.21868896484375;-10.437503814697266;2.3408355712890625;-12.082763671875;-4.850372314453125
1445421208197;315.0054626464844;-100.75764465332031;-10.136966705322266;2.752716064453125;-9.807632446289062;-3.51666259765625
1445421208230;315.37701416015625;-101.41053009033203;-10.793219566345215;3.8510589599609375;-8.94464111328125;0.3471527099609375
1445421208264;316.7705383300781;-101.07823944091797;-11.013040542602539;4.2237091064453125;-10.8863525390625;0.2883148193359375
1445421208296;321.6504821777344;-99.63956451416016;-10.607184410095215;4.6551971435546875;-10.454864501953125;-0.6138916015625
1445421208329;326.1463623046875;-97.52552795410156;-9.993682861328125;2.419281005859375;-7.944366455078125;3.465667724609375
1445421208363;328.3441162109375;-95.95672607421875;-9.822742462158203;0.4971771240234375;-10.7098388671875;3.289154052734375
1445421208395;329.6906433105469;-92.40225219726562;-9.767107963562012;0.0656890869140625;-11.51397705078125;2.2888641357421875
1445421208428;330.7207946777344;-91.46834564208984;-9.336430549621582;1.164031982421875;-11.200164794921875;1.1120758056640625
1445421208462;333.0774841308594;-90.0543441772461;-8.306042671203613;2.164306640625;-10.670608520507812;1.759307861328125
1445421208494;337.0055236816406;-87.75617980957031;-7.379007339477539;2.7134857177734375;-9.395751953125;2.720367431640625
1445421208528;340.7677917480469;-86.08924102783203;-7.094510555267334;2.0074005126953125;-9.356521606445312;2.64190673828125
1445421208561;342.3178405761719;-85.2386474609375;-7.041861534118652;1.9681854248046875;-9.729171752929688;1.7985382080078125
1445421208594;348.1519470214844;-83.8980712890625;-7.068670272827148;2.3996734619140625;-10.121444702148438;2.269256591796875
1445421208627;351.4856872558594;-83.41870880126953;-7.270188331604004;1.8308868408203125;-10.08221435546875;2.092742919921875
1445421208659;357.1280517578125;-82.8380126953125;-8.052006721496582;0.9678955078125;-10.101821899414062;2.0338897705078125
1445421208692;2.63214111328125;-83.03684997558594;-8.57262134552002;0.34027099609375;-10.02337646484375;2.6222991943359375
1445421208725;6.18389892578125;-83.28923034667969;-8.695149421691895;0.9678955078125;-9.611495971679688;2.838043212890625
1445421208759;13.305145263671875;-83.83898162841797;-9.205371856689453;-0.6992340087890625;-9.12115478515625;2.2300262451171875
1445421208791;20.99969482421875;-85.00273132324219;-9.48288345336914;-2.307525634765625;-10.670608520507812;0.2294769287109375
1445421208825;25.06817626953125;-86.06680297851562;-9.411253929138184;1.9485626220703125;-10.631378173828125;0.7394256591796875
1445421208858;31.9478759765625;-89.33112335205078;-10.619827270507812;4.1060333251953125;-10.337188720703125;1.9750518798828125
1445421208891;38.07794189453125;-92.79364013671875;-12.654296875;8.754379272460938;-10.376419067382812;2.58306884765625
1445421208924;40.86126708984375;-93.9117660522461;-13.601168632507324;8.930908203125;-11.023651123046875;1.4062652587890625
1445421208959;45.781341552734375;-94.49822998046875;-15.140949249267578;3.1449737548828125;-10.396026611328125;0.3471527099609375
1445421208989;48.459991455078125;-94.32669830322266;-15.637114524841309;1.5759124755859375;-8.042434692382812;1.3670501708984375
1445421209023;53.898895263671875;-94.05143737792969;-16.875755310058594;1.8701171875;-7.7089996337890625;1.0532379150390625
1445421209057;58.363128662109375;-94.00821685791016;-18.564224243164062;2.7134857177734375;-8.787734985351562;-1.437652587890625
1445421209090;60.34283447265625;-94.12225341796875;-19.529983520507812;4.0275726318359375;-9.748779296875;-0.9669342041015625
1445421209121;64.71505737304688;-94.75572967529297;-21.025156021118164;4.0275726318359375;-9.591873168945312;-0.3393096923828125
1445421209154;69.911376953125;-95.5777816772461;-21.956748962402344;3.7922210693359375;-9.376129150390625;-0.2608642578125
1445421209191;72.76800537109375;-96.05681610107422;-22.307737350463867;3.498016357421875;-9.278060913085938;-0.6727447509765625
1445421209220;78.80816650390625;-96.94422912597656;-22.6938419342041;3.2822723388671875;-8.964248657226562;-1.261138916015625
1445421209254;84.56094360351562;-97.60334777832031;-22.635581970214844;3.1449737548828125;-7.9835968017578125;-1.1042327880859375
1445421209286;87.12054443359375;-97.73233795166016;-22.508195877075195;2.7723236083984375;-7.80706787109375;-1.18267822265625
1445421209320;92.01022338867188;-97.65130615234375;-21.910083770751953;1.791656494140625;-8.905410766601562;-2.1829681396484375
1445421209352;94.47640991210938;-97.57128143310547;-21.41202735900879;2.693878173828125;-9.474197387695312;-4.47772216796875
1445421209385;98.46896362304688;-97.15729522705078;-20.257122039794922;2.4781341552734375;-9.944915771484375;-4.968048095703125
1445421209418;101.18212890625;-96.82623291015625;-18.924829483032227;4.498291015625;-10.042984008789062;-2.9282684326171875
1445421209453;102.239013671875;-96.72376251220703;-18.215898513793945;4.32177734375;-9.3369140625;-1.2415313720703125
1445421209484;104.35543823242188;-95.6768569946289;-16.52008819580078;3.57647705078125;-8.670059204101562;1.7200775146484375
1445421209517;108.38070678710938;-93.86444854736328;-14.874162673950195;3.1057586669921875;-10.964813232421875;1.9750518798828125
1445421209551;110.23231506347656;-92.52965545654297;-14.090841293334961;1.732818603515625;-11.023651123046875;2.328094482421875
1445421209584;112.84161376953125;-89.85139465332031;-12.298291206359863;0.7325439453125;-11.023651123046875;2.7988128662109375
1445421209616;115.3642578125;-87.6114730834961;-10.536787033081055;0.869842529296875;-11.004043579101562;2.1123504638671875
1445421209650;116.41836547851562;-86.388427734375;-9.878284454345703;0.595245361328125;-10.8863525390625;1.9750518798828125
1445421209707;120.90911865234375;-82.94473266601562;-8.408302307128906;0.22259521484375;-10.356796264648438;1.465118408203125
1445421209715;120.90911865234375;-82.94473266601562;-8.408302307128906;0.595245361328125;-10.042984008789062;1.26898193359375
1445421209751;124.46343994140625;-80.8585205078125;-7.608176231384277;1.438629150390625;-9.925308227539062;0.81787109375
1445421209782;127.99433898925781;-79.12985229492188;-7.649283409118652;1.5759124755859375;-10.101821899414062;0.36676025390625
1445421209820;131.08131408691406;-77.7035140991211;-8.194448471069336;0.5560302734375;-9.493820190429688;1.26898193359375
1445421209853;132.55479431152344;-76.99275970458984;-8.544605255126953;0.4383392333984375;-8.905410766601562;1.2885894775390625
1445421209879;134.1566162109375;-75.29476165771484;-9.289368629455566;0.7717742919921875;-9.376129150390625;0.7394256591796875
1445421209918;135.4164581298828;-73.69659423828125;-10.267931938171387;0.2029876708984375;-10.02337646484375;1.582794189453125
1445421209950;136.3757781982422;-72.95677185058594;-10.719761848449707;0.242218017578125;-10.239120483398438;1.6220245361328125
1445421209980;139.20957946777344;-71.7556381225586;-11.641565322875977;0.6148681640625;-10.631378173828125;0.386383056640625
1445421210022;142.08493041992188;-71.29434967041016;-12.380369186401367;0.928680419921875;-11.21978759765625;-1.12384033203125
1445421210051;143.43540954589844;-71.36775207519531;-12.565348625183105;0.22259521484375;-12.180831909179688;-0.88848876953125
1445421210079;145.44638061523438;-72.48872375488281;-12.098102569580078;-0.97381591796875;-13.90679931640625;-0.241241455078125
1445421210137;145.6575469970703;-75.23290252685547;-10.993976593017578;3.2038116455078125;-12.02392578125;0.4059906005859375
1445421210151;145.502685546875;-77.6817626953125;-10.814337730407715;3.2038116455078125;-12.02392578125;0.4059906005859375
1445421210177;145.20510864257812;-80.71380615234375;-10.834615707397461;3.7725982666015625;-12.376968383789062;1.56317138671875
1445421210253;146.09754943847656;-91.49019622802734;-10.640087127685547;3.1449737548828125;-10.807907104492188;1.1709136962890625
1445421210261;146.12747192382812;-93.73114776611328;-10.62617015838623;3.556854248046875;-10.356796264648438;0.935546875
1445421210286;146.1466064453125;-95.89056396484375;-10.657363891601562;3.2038116455078125;-9.670333862304688;1.0532379150390625
1445421210319;145.94058227539062;-97.7246322631836;-10.554574966430664;1.3209381103515625;-9.395751953125;1.1709136962890625
1445421210353;144.66700744628906;-100.67752838134766;-10.194991111755371;0.5560302734375;-9.023101806640625;1.2885894775390625
1445421210385;141.2863006591797;-104.2149429321289;-10.121184349060059;1.36016845703125;-7.493255615234375;0.680572509765625
1445421210418;139.13841247558594;-105.51692199707031;-10.28453540802002;2.2231597900390625;-6.1595458984375;1.3474273681640625
1445421210451;134.89939880371094;-107.10819244384766;-10.57034683227539;2.0858612060546875;-5.47308349609375;1.1512908935546875
1445421210485;132.02392578125;-106.8318862915039;-10.559536933898926;1.9485626220703125;-6.0418701171875;-0.005889892578125
1445421210518;131.08583068847656;-105.78041076660156;-10.531543731689453;1.53668212890625;-10.180282592773438;-3.51666259765625
1445421210550;130.79811096191406;-102.44242095947266;-9.996953964233398;1.41900634765625;-13.259567260742188;-6.8901519775390625
1445421210583;131.30227661132812;-100.8802719116211;-9.520727157592773;2.046630859375;-13.338027954101562;-7.7139129638671875
1445421210618;130.1183319091797;-99.94349670410156;-9.135847091674805;1.53668212890625;-11.33746337890625;-5.2622528076171875
1445421210649;126.929931640625;-100.68038940429688;-9.089156150817871;2.870391845703125;-9.042709350585938;-1.6730194091796875
1445421210682;126.16781616210938;-100.82878875732422;-9.451531410217285;5.4593505859375;-14.12255859375;-0.9277191162109375
1445421210715;126.54692077636719;-99.77336120605469;-10.543573379516602;5.1063079833984375;-12.02392578125;-1.8495330810546875
1445421210748;127.09765625;-99.00411224365234;-10.315494537353516;1.928955078125;-5.492706298828125;5.1916351318359375
1445421210781;127.32432556152344;-98.23143005371094;-9.529467582702637;3.57647705078125;-8.787734985351562;3.6225738525390625
1445421210815;129.97300720214844;-93.87262725830078;-9.230273246765137;3.1645965576171875;-11.867019653320312;1.9358367919921875
1445421210848;129.61758422851562;-90.89925384521484;-9.498452186584473;-1.1307220458984375;-10.396026611328125;2.210418701171875
1445421210880;129.0152130126953;-90.64663696289062;-9.287775993347168;0.3991241455078125;-10.042984008789062;1.38665771484375
1445421210913;129.82200622558594;-87.9266357421875;-8.250091552734375;0.928680419921875;-10.02337646484375;1.3474273681640625
1445421210947;130.85101318359375;-86.42224884033203;-7.781239032745361;0.6344757080078125;-9.434967041015625;0.386383056640625
1445421210979;132.9365692138672;-83.71184539794922;-7.303997993469238;1.164031982421875;-9.493820190429688;0.2294769287109375
1445421211013;135.55758666992188;-81.54258728027344;-7.305858612060547;1.5759124755859375;-9.552658081054688;-0.0254974365234375
1445421211046;137.85182189941406;-79.8106918334961;-7.537304401397705;0.5756378173828125;-9.474197387695312;0.8571014404296875
1445421211078;138.74420166015625;-78.93519592285156;-7.702264785766602;0.7913818359375;-9.278060913085938;1.38665771484375
1445421211111;140.03968811035156;-77.0560531616211;-8.5302734375;1.732818603515625;-9.434967041015625;1.6220245361328125
1445421211145;140.7486572265625;-76.10002136230469;-9.128253936767578;0.8306121826171875;-10.9451904296875;0.759033203125
1445421211177;141.4158172607422;-75.12191772460938;-9.675078392028809;0.2029876708984375;-11.200164794921875;1.0924530029296875
1445421211210;143.6443328857422;-73.5286636352539;-10.30340576171875;-0.091217041015625;-11.827789306640625;-0.123565673828125
1445421211246;146.50596618652344;-73.11548614501953;-10.396486282348633;-0.522705078125;-13.592987060546875;-0.692352294921875
1445421211276;149.53729248046875;-74.24354553222656;-10.241905212402344;-1.4445343017578125;-14.730560302734375;-0.0254974365234375
1445421211310;150.57908630371094;-77.51419830322266;-9.413896560668945;1.3993988037109375;-13.004592895507812;-1.2807464599609375
1445421211343;150.57965087890625;-80.0512924194336;-9.1664457321167;3.0076904296875;-11.16094970703125;1.2885894775390625
1445421211375;149.58042907714844;-85.9329605102539;-9.05907917022705;2.929229736328125;-11.670883178710938;2.661529541015625
1445421211409;148.7952423095703;-88.79755401611328;-9.239129066467285;1.5955352783203125;-12.35736083984375;1.2885894775390625
1445421211441;148.76885986328125;-94.17347717285156;-8.999985694885254;1.556304931640625;-12.690780639648438;0.36676025390625
1445421211475;149.52467346191406;-98.15535736083984;-7.576606273651123;1.2621002197265625;-10.14105224609375;0.7786407470703125
1445421211508;149.48731994628906;-99.42176818847656;-6.892317295074463;0.7913818359375;-8.3758544921875;1.6612396240234375
1445421211541;146.83558654785156;-101.71039581298828;-6.243866920471191;1.0267486572265625;-7.92474365234375;0.7001953125
1445421211575;140.44598388671875;-105.52104949951172;-6.941623210906982;2.301605224609375;-6.3949127197265625;1.759307861328125
1445421211607;137.2607421875;-106.84529876708984;-7.722729206085205;3.1253662109375;-5.159271240234375;1.50433349609375
1445421211645;132.18125915527344;-107.98889923095703;-9.27513313293457;2.9684600830078125;-5.41424560546875;0.7394256591796875
1445421211673;128.63421630859375;-106.96382904052734;-10.687459945678711;2.2819976806640625;-7.0813751220703125;-0.3785400390625
1445421211707;127.42604064941406;-105.6441650390625;-11.15699577331543;2.5173492431640625;-9.258453369140625;-2.5556182861328125
1445421211738;126.59794616699219;-102.93226623535156;-11.42933464050293;2.43890380859375;-12.906524658203125;-5.79180908203125
1445421211773;125.77766418457031;-102.33887481689453;-11.487496376037598;2.5369720458984375;-12.082763671875;-4.458099365234375
1445421211804;124.49736022949219;-102.51853942871094;-11.142716407775879;3.1253662109375;-10.376419067382812;-3.6931915283203125
1445421211837;123.0438232421875;-103.54615783691406;-10.862751960754395;4.262939453125;-7.1009979248046875;-1.457275390625
1445421211871;122.62403869628906;-103.80320739746094;-10.904434204101562;5.1651458740234375;-12.102386474609375;0.01373291015625
1445421211903;124.34420776367188;-102.90650939941406;-10.546823501586914;4.6159820556640625;-12.71038818359375;-0.2608642578125
1445421211936;128.47344970703125;-101.64205932617188;-8.942129135131836;3.0665283203125;-8.728897094726562;1.0336151123046875
1445421211970;128.84426879882812;-100.91350555419922;-8.33325481414795;1.53668212890625;-8.238555908203125;4.3090362548828125
1445421212003;130.40435791015625;-97.18036651611328;-7.385402202606201;1.0267486572265625;-10.631378173828125;3.014556884765625
1445421212035;131.2206268310547;-92.94123077392578;-6.918190956115723;-0.1108245849609375;-11.435531616210938;2.0338897705078125
1445421212070;131.18040466308594;-92.08873748779297;-6.69450044631958;0.7325439453125;-10.337188720703125;0.2098541259765625
1445421212102;131.96055603027344;-89.80502319335938;-5.851603984832764;0.4971771240234375;-9.748779296875;1.249359130859375
1445421212135;134.727783203125;-86.45857238769531;-4.832469940185547;0.418731689453125;-9.591873168945312;0.759033203125
1445421212167;136.6302490234375;-85.09293365478516;-4.434892177581787;0.7717742919921875;-9.68994140625;0.111785888671875
1445421212201;139.5597381591797;-82.667724609375;-4.142605781555176;1.1444244384765625;-9.631103515625;1.131683349609375
1445421212236;141.66371154785156;-80.65945434570312;-4.198648929595947;0.7325439453125;-9.68994140625;1.2885894775390625
1445421212267;142.5386199951172;-79.76555633544922;-4.371910095214844;0.7913818359375;-9.96453857421875;0.81787109375
1445421212299;144.37242126464844;-78.21491241455078;-5.2421793937683105;1.0267486572265625;-10.239120483398438;1.32781982421875
1445421212333;145.45700073242188;-77.43640899658203;-5.807427406311035;0.6737060546875;-10.376419067382812;0.935546875
1445421212365;148.10890197753906;-76.1417465209961;-6.854341983795166;-0.0519866943359375;-10.415634155273438;1.2297515869140625
1445421212398;151.34866333007812;-75.30448150634766;-7.51432466506958;-1.1895599365234375;-10.690231323242188;0.994384765625
1445421212441;154.84271240234375;-74.9764633178711;-7.8189592361450195;0.1245269775390625;-11.494369506835938;-0.5550537109375
1445421212483;157.1006317138672;-75.8541488647461;-7.249692916870117;0.1833648681640625;-13.573379516601562;-1.6730194091796875
1445421212498;157.84982299804688;-77.3019790649414;-6.920876502990723;1.5955352783203125;-13.024200439453125;-2.08489990234375
1445421212531;157.98912048339844;-79.61872100830078;-6.857531547546387;4.0864105224609375;-11.572830200195312;-0.3785400390625
1445421212563;156.58462524414062;-85.50054931640625;-7.17341947555542;5.2436065673828125;-12.886917114257812;2.7988128662109375
1445421212597;156.30352783203125;-91.6749496459961;-7.675570487976074;4.0471954345703125;-11.847412109375;1.6220245361328125
1445421212630;156.55801391601562;-94.20612335205078;-7.730914115905762;4.184478759765625;-10.807907104492188;1.190521240234375
1445421212663;156.272705078125;-98.01220703125;-7.913469314575195;4.1648712158203125;-8.94464111328125;1.1709136962890625
1445421212696;156.41729736328125;-99.68766784667969;-7.963540077209473;1.928955078125;-8.101272583007812;1.6808624267578125
1445421212728;156.416748046875;-102.83024597167969;-8.056978225708008;1.41900634765625;-7.493255615234375;1.2885894775390625
1445421212761;153.87588500976562;-105.88229370117188;-8.527026176452637;2.5369720458984375;-6.0418701171875;1.3474273681640625
1445421212796;152.35528564453125;-106.96047973632812;-8.959733963012695;3.3411102294921875;-5.5907745361328125;1.249359130859375
1445421212828;150.9757080078125;-107.8950424194336;-9.51970386505127;2.9684600830078125;-5.9634246826171875;0.621734619140625
1445421212860;151.84555053710938;-106.7741470336914;-9.319164276123047;1.0267486572265625;-8.4346923828125;-1.3592071533203125
1445421212894;152.65841674804688;-105.20086669921875;-8.95474624633789;0.4579620361328125;-10.042984008789062;-3.1047821044921875
1445421212926;156.64492797851562;-101.5915298461914;-7.647490978240967;1.12481689453125;-11.45513916015625;-6.3017578125
1445421212959;159.9549560546875;-100.2940444946289;-7.115289211273193;2.164306640625;-11.808181762695312;-4.909210205078125
1445421212992;159.91610717773438;-100.07725524902344;-7.042036056518555;2.3408355712890625;-11.415924072265625;-4.71307373046875
1445421213025;158.29376220703125;-99.98514556884766;-6.988137722015381;6.6165313720703125;-12.082763671875;-1.9868316650390625
1445421213059;158.3822021484375;-100.14652252197266;-7.294649600982666;4.812103271484375;-11.33746337890625;-1.437652587890625
1445421213092;160.82339477539062;-99.49222564697266;-7.051791191101074;2.2231597900390625;-8.630828857421875;0.58251953125
1445421213124;163.7688446044922;-98.38272857666016;-5.860555171966553;2.61541748046875;-6.924468994140625;3.8775482177734375
1445421213158;165.72796630859375;-96.49042510986328;-5.634253978729248;1.497467041015625;-11.45513916015625;1.6808624267578125
1445421213191;170.72137451171875;-92.18952941894531;-5.264516830444336;0.418731689453125;-11.553207397460938;1.465118408203125
1445421213224;174.23046875;-89.23300170898438;-4.384452819824219;0.28143310546875;-10.337188720703125;2.3673248291015625
1445421213260;176.52908325195312;-87.83396911621094;-3.7536497116088867;1.438629150390625;-9.513427734375;1.3670501708984375
1445421213291;181.3775634765625;-84.45228576660156;-3.00989031791687;1.0855865478515625;-9.572265625;1.32781982421875
1445421213323;184.385986328125;-83.00135040283203;-2.857307195663452;-0.228515625;-9.709564208984375;1.0924530029296875
1445421213355;191.564208984375;-80.52189636230469;-2.589627504348755;-0.3657989501953125;-9.68994140625;0.81787109375
1445421213390;198.6466064453125;-78.60236358642578;-2.1929116249084473;-0.0716094970703125;-10.219512939453125;0.896331787109375
1445421213422;201.85552978515625;-77.7937240600586;-2.0209102630615234;-0.032379150390625;-9.768402099609375;1.7200775146484375
1445421213454;207.4490966796875;-76.44442749023438;-2.2073287963867188;0.10491943359375;-9.827239990234375;1.7985382080078125
1445421213487;212.1104736328125;-75.31806182861328;-3.2899460792541504;2.066253662109375;-9.90570068359375;1.4062652587890625
1445421213520;214.9439697265625;-74.5216293334961;-4.308935165405273;0.7717742919921875;-9.846847534179688;2.6811370849609375
1445421213554;221.55184936523438;-72.76433563232422;-6.281193256378174;0.301055908203125;-10.474472045898438;1.4258880615234375
1445421213586;227.78192138671875;-71.72598266601562;-7.438368320465088;-1.1895599365234375;-11.651275634765625;-0.6727447509765625
1445421213619;230.55722045898438;-71.6797866821289;-7.823271751403809;-0.6992340087890625;-12.043548583984375;-1.810302734375
1445421213653;235.04891967773438;-72.48365020751953;-7.948648452758789;-0.85614013671875;-14.083328247070312;-2.575225830078125
1445421213685;236.47622680664062;-73.67864990234375;-7.620678901672363;1.497467041015625;-12.396575927734375;-2.457550048828125
1445421213718;239.6566162109375;-78.53952026367188;-6.986408233642578;3.4195709228515625;-11.808181762695312;-0.3589324951171875
1445421213751;243.540771484375;-85.46109008789062;-7.6323418617248535;6.0673675537109375;-13.632217407226562;3.4264373779296875
1445421213785;247.07452392578125;-88.81685638427734;-8.167634010314941;2.929229736328125;-11.847412109375;1.56317138671875
1445421213817;255.03082275390625;-93.96073913574219;-8.278282165527344;2.2623748779296875;-11.670883178710938;0.896331787109375
1445421213851;262.607421875;-97.67855072021484;-8.080676078796387;2.9096221923828125;-9.199615478515625;1.0336151123046875
1445421213885;266.5810546875;-99.3457260131836;-8.060932159423828;1.8308868408203125;-7.68939208984375;1.1709136962890625
1445421213916;272.0049743652344;-102.51589965820312;-7.970881462097168;1.6347503662109375;-6.944091796875;1.0336151123046875
1445421213949;274.3942565917969;-105.36177825927734;-8.42952823638916;2.6546478271484375;-5.41424560546875;1.582794189453125
1445421213986;275.77581787109375;-106.2780990600586;-8.97394847869873;2.73309326171875;-5.23773193359375;1.44549560546875
1445421214015;278.71136474609375;-106.65839385986328;-9.829134941101074;2.49774169921875;-5.9830322265625;0.759033203125
1445421214049;280.5875244140625;-104.71160125732422;-9.866815567016602;1.556304931640625;-8.82696533203125;-1.5945587158203125
1445421214086;280.9976501464844;-103.27103424072266;-9.618195533752441;1.3993988037109375;-10.788284301757812;-3.6931915283203125
1445421214114;282.29058837890625;-100.5715560913086;-8.498146057128906;2.10546875;-12.847686767578125;-7.3412628173828125
1445421214147;283.27923583984375;-99.71544647216797;-8.062033653259277;2.635040283203125;-11.768951416015625;-5.0072784423828125
1445421214180;283.66094970703125;-99.37152862548828;-7.843044757843018;1.98779296875;-10.121444702148438;-3.9677734375
1445421214216;286.01580810546875;-100.03189849853516;-8.211910247802734;3.9098968505859375;-8.905410766601562;-0.9669342041015625
1445421214247;288.8835144042969;-100.04829406738281;-8.619668006896973;4.3610076904296875;-12.043548583984375;-0.9080963134765625
1445421214280;295.4204406738281;-98.7724380493164;-8.724331855773926;3.7922210693359375;-12.396575927734375;-0.9277191162109375
1445421214312;302.5789794921875;-96.93447875976562;-7.606008529663086;2.635040283203125;-8.022811889648438;2.7988128662109375
1445421214348;306.3855285644531;-95.57246398925781;-7.1512603759765625;2.9684600830078125;-8.415084838867188;2.779205322265625
1445421214378;312.6354064941406;-91.6272201538086;-7.238076686859131;1.98779296875;-10.494094848632812;1.7397003173828125
1445421214411;314.24652099609375;-89.71234893798828;-7.189237117767334;-0.405029296875;-10.788284301757812;2.3477020263671875
1445421214445;316.8901672363281;-87.51695251464844;-6.542232513427734;-0.267730712890625;-10.31756591796875;1.38665771484375
1445421214477;320.37261962890625;-85.22318267822266;-5.817025184631348;0.5756378173828125;-10.042984008789062;1.32781982421875
1445421214511;323.4336853027344;-83.0701904296875;-5.294569969177246;0.4579620361328125;-9.258453369140625;1.818145751953125
1445421214547;324.96112060546875;-82.04071044921875;-5.090430736541748;0.7129364013671875;-9.611495971679688;1.0336151123046875
1445421214576;328.80889892578125;-79.98738861083984;-4.87615966796875;0.987518310546875;-9.925308227539062;1.5435638427734375
1445421214610;332.49139404296875;-78.08243560791016;-5.205782890319824;1.1444244384765625;-9.434967041015625;1.5435638427734375
1445421214643;333.83526611328125;-77.24150085449219;-5.678779125213623;1.2817230224609375;-9.631103515625;1.32781982421875
1445421214675;335.67718505859375;-75.76922607421875;-6.918230056762695;0.7521514892578125;-9.944915771484375;1.700469970703125
1445421214709;336.4412536621094;-75.02943420410156;-7.6163811683654785;0.1441497802734375;-10.5921630859375;1.0336151123046875
1445421214742;338.0813903808594;-73.58201599121094;-8.982772827148438;-0.0519866943359375;-10.9451904296875;0.36676025390625
1445421214775;339.8043212890625;-72.66740417480469;-9.937081336975098;-0.4834747314453125;-11.200164794921875;0.386383056640625
1445421214807;340.91497802734375;-72.536376953125;-10.34952163696289;-0.150054931640625;-11.259017944335938;-0.6727447509765625
1445421214842;342.89996337890625;-72.81161499023438;-10.81611156463623;-0.34619140625;-13.396865844726562;-1.8495330810546875
1445421214874;343.1846008300781;-73.33910369873047;-10.621962547302246;0.3206634521484375;-12.788848876953125;-1.3592071533203125
1445421214909;343.3142395019531;-76.51881408691406;-9.740691184997559;3.92950439453125;-12.318130493164062;1.6024017333984375
1445421214944;343.5829162597656;-82.3774185180664;-9.385138511657715;5.6358642578125;-12.945755004882812;2.7399749755859375
1445421214976;345.9081115722656;-87.97034454345703;-9.462754249572754;5.00823974609375;-11.376693725585938;2.328094482421875
1445421215007;347.61199951171875;-90.3580551147461;-9.396008491516113;4.5375213623046875;-10.435256958007812;1.44549560546875
1445421215039;349.45098876953125;-94.17761993408203;-9.58570671081543;3.57647705078125;-10.160659790039062;0.6609649658203125
1445421215071;350.2746887207031;-95.95003509521484;-9.608716011047363;2.870391845703125;-8.081649780273438;1.26898193359375
1445421215104;351.6302795410156;-99.39629364013672;-9.891722679138184;2.635040283203125;-7.3363494873046875;1.249359130859375
1445421215138;351.3144836425781;-101.20730590820312;-10.187348365783691;2.7134857177734375;-6.747955322265625;1.21014404296875
1445421215171;350.93658447265625;-104.32545471191406;-10.697611808776855;3.321502685546875;-6.120330810546875;1.44549560546875
1445421215203;351.2386474609375;-105.70289611816406;-11.349481582641602;2.9096221923828125;-6.120330810546875;1.0336151123046875
1445421215237;351.4412841796875;-105.58209991455078;-11.581221580505371;1.75244140625;-7.257904052734375;-0.1627960205078125
1445421215269;351.3503723144531;-103.51543426513672;-11.588339805603027;1.0071258544921875;-8.473922729492188;-1.378814697265625
1445421215302;351.516357421875;-100.3487777709961;-11.009637832641602;0.301055908203125;-11.180557250976562;-5.67413330078125
1445421215336;352.2732238769531;-99.060302734375;-10.519855499267578;2.0074005126953125;-13.181106567382812;-6.615570068359375
1445421215368;352.9172058105469;-97.72627258300781;-9.625181198120117;2.7723236083984375;-12.200454711914062;-6.0271759033203125
1445421215401;351.38592529296875;-98.2946548461914;-9.520445823669434;2.2623748779296875;-7.7874603271484375;-2.8105926513671875
1445421215435;351.849609375;-98.80206298828125;-9.929130554199219;5.027862548828125;-12.318130493164062;-0.4569854736328125
1445421215467;354.8816833496094;-98.45384979248047;-10.491408348083496;4.8709564208984375;-12.455429077148438;-1.06500244140625
1445421215501;359.0076904296875;-97.64585876464844;-9.469045639038086;3.262664794921875;-8.003204345703125;2.504608154296875
1445421215533;1.35821533203125;-96.80458068847656;-8.835474014282227;3.380340576171875;-6.4537506103515625;4.79937744140625
1445421215566;4.91973876953125;-92.9039535522461;-8.70667552947998;2.811553955078125;-9.611495971679688;2.1711883544921875
1445421215599;5.022003173828125;-90.86847686767578;-8.576796531677246;-0.4638671875;-11.16094970703125;2.3477020263671875
1445421215633;5.318939208984375;-88.40843963623047;-7.898221492767334;-1.2483978271484375;-10.572540283203125;2.3477020263671875
1445421215666;6.70208740234375;-86.15694427490234;-7.013122081756592;0.9678955078125;-10.14105224609375;1.5435638427734375
1445421215699;8.43243408203125;-83.56121826171875;-6.428880214691162;0.8502197265625;-9.709564208984375;1.7789306640625
1445421215731;9.039276123046875;-82.39612579345703;-6.235383987426758;0.6737060546875;-9.827239990234375;1.072845458984375
1445421215765;11.44775390625;-80.43721771240234;-5.982020854949951;0.4971771240234375;-9.944915771484375;1.21014404296875
1445421215798;12.95330810546875;-79.60584259033203;-5.862053871154785;1.36016845703125;-9.395751953125;1.26898193359375
1445421215831;15.08837890625;-77.8721923828125;-5.997473239898682;1.6543731689453125;-9.493820190429688;1.44549560546875
1445421215864;15.856719970703125;-76.59275817871094;-7.0345306396484375;1.105194091796875;-9.925308227539062;1.7985382080078125
1445421215902;16.159393310546875;-75.32295227050781;-8.404391288757324;0.595245361328125;-10.454864501953125;1.50433349609375
1445421215930;16.24359130859375;-74.57318115234375;-9.144798278808594;0.301055908203125;-10.5333251953125;1.5435638427734375
1445421215962;16.7615966796875;-73.0909423828125;-10.475109100341797;0.22259521484375;-11.082489013671875;0.896331787109375
1445421215995;17.369476318359375;-72.5491943359375;-11.057069778442383;0.2029876708984375;-11.062881469726562;0.1706390380859375
1445421216028;18.914825439453125;-72.08658599853516;-11.942717552185059;0.6148681640625;-11.474761962890625;-1.9279937744140625
1445421216062;19.65313720703125;-72.49933624267578;-12.296806335449219;-1.797576904296875;-13.691055297851562;-1.12384033203125
1445421216112;18.35723876953125;-74.969482421875;-11.275139808654785;-0.0716094970703125;-12.59271240234375;-0.9865570068359375
1445421216134;17.52008056640625;-77.44810485839844;-10.825928688049316;1.75244140625;-12.337738037109375;-0.005889892578125
