timestamp;gyro-alpha;gyro-beta;gyro-gamma;accel-x;accel-y;accel-z
1445419164367;290.2121887207031;-86.26411437988281;-6.6211748123168945;1.53668212890625;-10.866744995117188;1.0924530029296875
1445419164393;290.4497375488281;-86.43850708007812;-6.371559143066406;3.1645965576171875;-10.356796264648438;0.1510162353515625
1445419164437;291.5386962890625;-87.49693298339844;-6.192505836486816;1.9093475341796875;-10.08221435546875;0.0333404541015625
1445419164493;294.3572692871094;-90.4720458984375;-6.141677379608154;0.3795013427734375;-11.10211181640625;-0.2804718017578125
1445419164498;294.3572692871094;-90.4720458984375;-6.141677379608154;0.3795013427734375;-11.10211181640625;-0.2804718017578125
1445419164527;296.20257568359375;-93.07501220703125;-5.8139166831970215;0.34027099609375;-10.964813232421875;-0.3785400390625
1445419164560;297.1371154785156;-95.28437042236328;-5.4371843338012695;0.4383392333984375;-10.5333251953125;-0.7315826416015625
1445419164595;296.9866943359375;-96.04385375976562;-5.275166034698486;0.1441497802734375;-10.042984008789062;-0.3197021484375
1445419164625;296.0841979980469;-97.0420150756836;-5.000525951385498;0.6148681640625;-8.807342529296875;0.4059906005859375
1445419164658;294.6465148925781;-97.13831329345703;-4.985354423522949;1.222869873046875;-8.611221313476562;0.386383056640625
1445419164694;293.6652526855469;-96.68670654296875;-5.101010322570801;1.36016845703125;-8.630828857421875;0.2686920166015625
1445419164726;290.9815673828125;-94.8741226196289;-5.376516819000244;1.18365478515625;-8.238555908203125;-0.0451202392578125
1445419164760;288.1820373535156;-92.89041137695312;-5.7640838623046875;1.36016845703125;-8.218948364257812;-0.2020263671875
1445419164791;286.6249694824219;-92.0029067993164;-6.028759479522705;1.732818603515625;-8.748504638671875;0.0921783447265625
1445419164826;283.851806640625;-90.94334411621094;-6.556232929229736;3.3018798828125;-15.358184814453125;-1.712249755859375
1445419164856;282.7098388671875;-90.42948150634766;-6.834275722503662;0.654083251953125;-11.357070922851562;1.1120758056640625
1445419164890;282.69793701171875;-89.885009765625;-6.469933032989502;1.8897247314453125;-9.042709350585938;1.7789306640625
1445419164923;281.7239685058594;-90.19361877441406;-6.664858341217041;2.4585113525390625;-9.533035278320312;0.052947998046875
1445419164959;280.1197509765625;-89.93882751464844;-7.120397567749023;1.928955078125;-10.572540283203125;0.935546875
1445419164989;278.388916015625;-89.23157501220703;-7.611292362213135;1.9485626220703125;-10.474472045898438;1.0924530029296875
1445419165022;277.5838623046875;-88.28235626220703;-7.710858345031738;0.7913818359375;-9.68994140625;1.32781982421875
1445419165054;277.3088073730469;-87.80987548828125;-7.699907302856445;0.7913818359375;-9.68994140625;0.994384765625
1445419165087;276.98455810546875;-86.73343658447266;-7.674110412597656;1.3993988037109375;-10.121444702148438;0.4059906005859375
1445419165121;276.8070068359375;-86.31013488769531;-7.7304911613464355;0.6737060546875;-10.31756591796875;0.111785888671875
1445419165153;276.0000305175781;-85.84138488769531;-8.01968002319336;0.595245361328125;-10.239120483398438;0.24908447265625
1445419165187;274.8716735839844;-85.69258117675781;-8.409960746765137;0.987518310546875;-9.807632446289062;0.562896728515625
1445419165221;274.2204284667969;-85.53907775878906;-8.621729850769043;1.2621002197265625;-10.494094848632812;0.19024658203125
1445419165253;273.0635681152344;-85.21487426757812;-9.138736724853516;1.0071258544921875;-10.611770629882812;0.24908447265625
1445419165285;271.94000244140625;-85.06177520751953;-9.648611068725586;-0.9345855712890625;-11.004043579101562;-0.3197021484375
1445419165318;270.97735595703125;-85.15071868896484;-9.639500617980957;-1.856414794921875;-11.945480346679688;-0.0254974365234375
1445419165351;268.6789245605469;-87.26712036132812;-8.69934368133545;0.34027099609375;-10.905975341796875;0.4648284912109375
1445419165385;269.37506103515625;-92.21470642089844;-7.950533390045166;3.9883575439453125;-10.08221435546875;0.680572509765625
1445419165417;270.8031005859375;-94.9912338256836;-7.7250847816467285;4.77288818359375;-11.141326904296875;-0.5354461669921875
1445419165450;271.6568908691406;-99.3752670288086;-7.705348014831543;0.5167999267578125;-11.39630126953125;-0.8492584228515625
1445419165485;271.2862854003906;-102.64834594726562;-7.204250335693359;0.3991241455078125;-9.807632446289062;-0.2020263671875
1445419165518;271.28759765625;-103.62216186523438;-6.790641784667969;0.928680419921875;-8.807342529296875;-0.1431732177734375
1445419165550;270.0729064941406;-104.7911605834961;-6.1913275718688965;1.12481689453125;-7.6501617431640625;-0.88848876953125
1445419165582;269.06121826171875;-105.30150604248047;-6.216247081756592;2.0074005126953125;-7.6501617431640625;-0.692352294921875
1445419165616;267.11993408203125;-105.66943359375;-6.7047014236450195;2.0270233154296875;-8.042434692382812;-0.574676513671875
1445419165649;265.791748046875;-104.50084686279297;-7.0207624435424805;1.850494384765625;-8.179718017578125;-1.00616455078125
1445419165682;265.30364990234375;-103.50253295898438;-7.1600542068481445;1.8308868408203125;-8.062042236328125;-1.084625244140625
1445419165716;264.6227722167969;-101.0863265991211;-7.54319953918457;2.0270233154296875;-9.160385131835938;-0.8492584228515625
1445419165748;263.9832763671875;-97.99038696289062;-7.8201069831848145;1.7132110595703125;-9.807632446289062;0.07257080078125
1445419165782;263.58551025390625;-96.17911529541016;-7.798586845397949;1.556304931640625;-9.023101806640625;0.58251953125
1445419165813;261.5153503417969;-92.12316131591797;-7.766743183135986;4.635589599609375;-15.3778076171875;-5.595672607421875
1445419165847;263.2539367675781;-89.98147583007812;-8.976760864257812;3.1842041015625;-7.3363494873046875;1.072845458984375
1445419165879;264.15020751953125;-90.10255432128906;-9.052226066589355;3.2234344482421875;-6.49298095703125;1.6808624267578125
1445419165912;263.2979736328125;-88.74180603027344;-10.318360328674316;0.026458740234375;-12.220062255859375;2.092742919921875
1445419165946;263.601806640625;-87.872802734375;-10.659942626953125;0.928680419921875;-10.121444702148438;1.0336151123046875
1445419165979;265.725830078125;-85.7835464477539;-10.378473281860352;2.929229736328125;-9.278060913085938;-0.5354461669921875
1445419166011;267.7552490234375;-83.93244171142578;-10.510092735290527;1.8308868408203125;-8.807342529296875;0.680572509765625
1445419166045;268.5622863769531;-83.19670104980469;-11.057779312133789;-0.150054931640625;-10.631378173828125;0.327545166015625
1445419166077;269.9841003417969;-81.7918701171875;-12.164558410644531;-0.777679443359375;-10.297958374023438;0.562896728515625
1445419166110;270.3337097167969;-80.32003784179688;-13.20980167388916;-0.718841552734375;-10.042984008789062;0.2686920166015625
1445419166147;270.0914611816406;-79.51917266845703;-13.743496894836426;-0.97381591796875;-10.6510009765625;-0.5942840576171875
1445419166176;268.72393798828125;-77.80718994140625;-14.531828880310059;-1.03265380859375;-10.964813232421875;-0.9277191162109375
1445419166210;267.5813903808594;-76.69035339355469;-14.639747619628906;-0.91497802734375;-10.847137451171875;-1.12384033203125
1445419166243;267.1620788574219;-76.62248229980469;-14.43227767944336;-1.287628173828125;-10.552932739257812;-0.82965087890625
1445419166279;266.2629089355469;-78.31902313232422;-13.058615684509277;-1.3268585205078125;-12.35736083984375;0.5236663818359375
1445419166309;265.34967041015625;-80.08416748046875;-11.75610637664795;3.1645965576171875;-16.18194580078125;-1.9868316650390625
1445419166352;263.0609130859375;-88.63069152832031;-8.81473445892334;3.498016357421875;-15.220901489257812;-0.9277191162109375
1445419166376;264.7718505859375;-93.15121459960938;-8.177921295166016;4.1648712158203125;-15.005157470703125;2.6811370849609375
1445419166410;266.9798583984375;-99.93339538574219;-6.555287837982178;0.654083251953125;-12.435806274414062;3.8187103271484375
1445419166442;267.3542175292969;-101.3359603881836;-5.294788837432861;-1.5033721923828125;-12.063156127929688;1.38665771484375
1445419166475;266.275146484375;-103.08565521240234;-2.406609296798706;-0.7972869873046875;-10.7686767578125;-0.7119598388671875
1445419166506;264.3406982421875;-104.15519714355469;-1.6122106313705444;1.1444244384765625;-8.297409057617188;0.935546875
1445419166539;259.3921813964844;-107.31226348876953;-1.3383761644363403;2.066253662109375;-4.8062286376953125;0.759033203125
1445419166573;254.72698974609375;-109.4555435180664;-1.939638614654541;2.49774169921875;-4.590484619140625;0.4648284912109375
1445419166608;252.92330932617188;-109.72874450683594;-2.410834312438965;3.1253662109375;-5.3358001708984375;-0.0843353271484375
1445419166638;249.79583740234375;-109.06395721435547;-3.962618827819824;3.1253662109375;-6.2183990478515625;-1.4768829345703125
1445419166672;248.4854736328125;-108.34540557861328;-4.7069902420043945;0.6344757080078125;-9.140777587890625;-3.5558929443359375
1445419166704;247.72756958007812;-106.20201873779297;-4.949814796447754;-0.3069610595703125;-10.631378173828125;-5.536834716796875
1445419166737;248.83700561523438;-104.96985626220703;-4.881772994995117;0.5560302734375;-9.611495971679688;-5.301483154296875
1445419166773;249.13690185546875;-104.75430297851562;-4.876335620880127;-0.522705078125;-16.044662475585938;-3.0459442138671875
1445419166804;251.11984252929688;-103.6969223022461;-3.8602659702301025;0.4383392333984375;-15.750457763671875;-2.3006439208984375
1445419166836;256.7291259765625;-102.49122619628906;-2.823298215866089;4.3021697998046875;-7.63055419921875;1.1120758056640625
1445419166872;258.1687316894531;-101.24419403076172;-3.231046199798584;5.6358642578125;-6.0026397705078125;2.2888641357421875
1445419166903;259.1297302246094;-96.3526840209961;-5.612719535827637;5.7339324951171875;-10.7686767578125;3.7402496337890625
1445419166937;256.5982666015625;-92.56535339355469;-10.446480751037598;-0.7580718994140625;-11.965087890625;2.269256591796875
1445419166969;256.37274169921875;-91.38565063476562;-11.059121131896973;0.418731689453125;-10.964813232421875;2.0731201171875
1445419167002;258.2127990722656;-88.2776107788086;-10.50103759765625;2.301605224609375;-9.12115478515625;-0.2216339111328125
1445419167035;258.8893127441406;-86.40544891357422;-10.449426651000977;2.2623748779296875;-8.748504638671875;0.111785888671875
1445419167068;259.716064453125;-83.28942108154297;-11.129415512084961;1.6543731689453125;-9.140777587890625;0.504058837890625
1445419167101;260.4580383300781;-80.7376937866211;-12.408656120300293;1.2817230224609375;-9.788009643554688;0.0921783447265625
1445419167135;261.1329345703125;-79.54572296142578;-13.075174331665039;1.222869873046875;-10.042984008789062;0.5432891845703125
1445419167167;261.5932312011719;-77.11283111572266;-14.42441463470459;0.3795013427734375;-10.121444702148438;0.4059906005859375
1445419167199;261.5773010253906;-75.1777572631836;-15.56811809539795;-0.3657989501953125;-10.7686767578125;0.36676025390625
1445419167232;261.64630126953125;-74.52787780761719;-15.918583869934082;0.0853118896484375;-11.239395141601562;0.2883148193359375
1445419167266;261.8683776855469;-73.94851684570312;-16.424625396728516;1.5170745849609375;-12.631942749023438;-0.3589324951171875
1445419167298;261.61895751953125;-74.4359359741211;-16.947011947631836;-0.777679443359375;-15.868133544921875;-0.4373779296875
1445419167332;260.94512939453125;-75.4858169555664;-16.286954879760742;-0.0519866943359375;-15.711227416992188;-2.1045074462890625
1445419167364;259.9070739746094;-79.8301773071289;-14.0598783493042;2.242767333984375;-12.220062255859375;-1.771087646484375
1445419167398;260.19451904296875;-83.3285140991211;-13.055787086486816;5.655487060546875;-13.514541625976562;2.4850006103515625
1445419167431;261.2341613769531;-91.71015930175781;-11.177997589111328;6.714599609375;-14.35791015625;4.7601470947265625
1445419167464;262.74591064453125;-97.4488525390625;-11.576849937438965;3.92950439453125;-11.945480346679688;1.50433349609375
1445419167496;263.5730285644531;-99.80057525634766;-11.013650894165039;1.5759124755859375;-10.219512939453125;0.994384765625
1445419167533;262.9767150878906;-103.4261474609375;-9.643916130065918;1.2032623291015625;-8.689666748046875;2.2300262451171875
1445419167563;259.87188720703125;-108.47753143310547;-9.300946235656738;0.8502197265625;-5.5711517333984375;1.32781982421875
1445419167598;257.4751281738281;-110.73223876953125;-9.640233039855957;1.732818603515625;-4.296295166015625;1.6612396240234375
1445419167629;253.16815185546875;-113.2525405883789;-11.025752067565918;3.92950439453125;-3.3548583984375;2.8184356689453125
1445419167661;251.71734619140625;-113.22003173828125;-11.704726219177246;3.831451416015625;-3.335235595703125;2.1711883544921875
1445419167694;249.91793823242188;-111.12841033935547;-12.469324111938477;2.183929443359375;-5.0219879150390625;-0.3785400390625
1445419167729;248.142578125;-106.14434051513672;-12.328439712524414;1.791656494140625;-14.514816284179688;-8.047332763671875
1445419167760;248.280029296875;-104.08224487304688;-12.037141799926758;3.63531494140625;-15.358184814453125;-10.440155029296875
1445419167794;245.8624267578125;-104.22557067871094;-12.692338943481445;3.9687347412109375;-12.161224365234375;-6.439056396484375
1445419167829;245.04376220703125;-105.5859146118164;-12.90349006652832;3.69415283203125;-12.847686767578125;-1.2219085693359375
1445419167859;246.89059448242188;-106.43323516845703;-12.672948837280273;5.6162567138671875;-10.042984008789062;0.621734619140625
1445419167893;251.42965698242188;-105.84150695800781;-12.37764835357666;4.812103271484375;-6.43414306640625;4.5640106201171875
1445419167926;256.9898376464844;-101.73624420166016;-12.572616577148438;5.3024444580078125;-10.670608520507812;4.6816864013671875
1445419167959;257.23236083984375;-98.79084777832031;-13.2732515335083;4.0471954345703125;-11.259017944335938;3.210693359375
1445419167992;256.6420593261719;-95.77532958984375;-14.37425422668457;-0.267730712890625;-10.788284301757812;1.9162139892578125
1445419168027;256.145263671875;-92.4264907836914;-13.857309341430664;1.9681854248046875;-9.297683715820312;1.582794189453125
1445419168058;257.0452880859375;-90.43262481689453;-13.336116790771484;2.4781341552734375;-8.670059204101562;0.680572509765625
1445419168090;258.8960266113281;-86.41263580322266;-13.258407592773438;3.1057586669921875;-8.532760620117188;0.2294769287109375
1445419168123;259.165283203125;-84.4875259399414;-13.716713905334473;1.0267486572265625;-9.768402099609375;0.2098541259765625
1445419168159;260.2340087890625;-81.05085754394531;-14.948919296264648;0.8109893798828125;-9.96453857421875;-0.2020263671875
1445419168189;260.2715759277344;-77.94322204589844;-16.096973419189453;-0.601165771484375;-10.749069213867188;-0.515838623046875
1445419168222;259.8033142089844;-76.7242431640625;-16.527856826782227;0.7325439453125;-10.905975341796875;-0.0254974365234375
1445419168255;258.87066650390625;-74.96436309814453;-16.964195251464844;2.125091552734375;-10.552932739257812;0.4256134033203125
1445419168289;258.0264892578125;-74.14224243164062;-17.469472885131836;2.066253662109375;-11.690505981445312;0.7982635498046875
1445419168322;257.53485107421875;-74.25984191894531;-17.694332122802734;1.811279296875;-13.946029663085938;-2.02606201171875
1445419168355;256.2792663574219;-75.42103576660156;-17.789306640625;0.5167999267578125;-15.868133544921875;-2.02606201171875
1445419168388;255.018798828125;-80.25286102294922;-17.13531494140625;-1.974090576171875;-13.808746337890625;-1.378814697265625
1445419168420;254.85015869140625;-84.66023254394531;-16.188339233398438;0.2029876708984375;-12.278900146484375;0.7198028564453125
1445419168454;252.60488891601562;-93.86416625976562;-14.728224754333496;5.655487060546875;-14.86785888671875;4.7013092041015625
1445419168486;253.54409790039062;-100.93059539794922;-14.57632064819336;3.9883575439453125;-12.47503662109375;3.60296630859375
1445419168520;255.23635864257812;-103.21612548828125;-13.166974067687988;2.2035369873046875;-12.180831909179688;1.26898193359375
1445419168552;255.82452392578125;-105.63874053955078;-10.343602180480957;3.1057586669921875;-9.866470336914062;1.2297515869140625
1445419168585;254.31100463867188;-107.09803009033203;-9.86114501953125;2.5369720458984375;-6.61065673828125;1.1120758056640625
1445419168618;249.21551513671875;-111.0252685546875;-9.554911613464355;2.242767333984375;-5.0612030029296875;1.1709136962890625
1445419168651;244.03765869140625;-113.93537139892578;-10.64625358581543;3.75299072265625;-3.217559814453125;2.40655517578125
1445419168685;242.46823120117188;-114.47925567626953;-11.494648933410645;4.1648712158203125;-3.3744659423828125;2.2496490478515625
1445419168717;240.69134521484375;-113.2618637084961;-13.26931381225586;3.81182861328125;-3.8647918701171875;1.2885894775390625
1445419168751;238.50448608398438;-109.17139434814453;-14.807588577270508;2.2035369873046875;-8.454315185546875;-2.281036376953125
1445419168784;237.3017578125;-106.28147888183594;-14.706443786621094;1.8701171875;-16.280014038085938;-10.57745361328125
1445419168817;236.06375122070312;-103.59291076660156;-13.837369918823242;2.066253662109375;-14.240234375;-9.7733154296875
1445419168850;233.75079345703125;-104.46111297607422;-13.958066940307617;5.832000732421875;-14.338302612304688;-4.3208160400390625
1445419168882;233.96401977539062;-104.87313079833984;-14.403916358947754;5.8712310791015625;-16.06427001953125;-3.653961181640625
1445419168915;236.59457397460938;-106.57115936279297;-13.68596076965332;4.1060333251953125;-6.7675628662109375;3.6225738525390625
1445419168949;238.71417236328125;-106.5936279296875;-12.58533000946045;6.32232666015625;-6.0026397705078125;6.2115325927734375
1445419168982;244.264892578125;-102.26347351074219;-11.751492500305176;7.1264801025390625;-8.591598510742188;4.3482666015625
1445419169015;245.88052368164062;-96.47000122070312;-12.293355941772461;-0.150054931640625;-10.611770629882812;3.26953125
1445419169049;245.87857055664062;-95.13275146484375;-12.261364936828613;-0.3069610595703125;-10.670608520507812;1.4847259521484375
1445419169080;247.46258544921875;-92.6461410522461;-11.472864151000977;-0.01275634765625;-10.160659790039062;1.7397003173828125
1445419169113;249.73641967773438;-88.6615219116211;-10.277863502502441;1.850494384765625;-9.258453369140625;0.621734619140625
1445419169146;250.57412719726562;-86.84896850585938;-10.063891410827637;2.752716064453125;-8.866195678710938;0.621734619140625
1445419169179;253.023193359375;-83.70435333251953;-10.538484573364258;2.5369720458984375;-9.00347900390625;1.014007568359375
1445419169212;254.15423583984375;-82.17213439941406;-11.00250244140625;2.61541748046875;-9.356521606445312;1.6612396240234375
1445419169246;254.98138427734375;-79.22613525390625;-12.220662117004395;0.7325439453125;-9.944915771484375;0.7786407470703125
1445419169278;255.30120849609375;-76.37934112548828;-13.742899894714355;1.3405609130859375;-10.5333251953125;0.896331787109375
1445419169312;255.59674072265625;-75.23936462402344;-14.509650230407715;-0.1304473876953125;-11.33746337890625;1.1120758056640625
1445419169344;256.2210998535156;-74.07658386230469;-15.443735122680664;0.359893798828125;-11.357070922851562;0.111785888671875
1445419169379;256.6708984375;-73.76192474365234;-15.818344116210938;0.9482879638671875;-12.41619873046875;-0.2608642578125
1445419169411;256.59588623046875;-74.04084777832031;-15.719451904296875;0.242218017578125;-14.35791015625;-0.2608642578125
1445419169444;255.45306396484375;-76.42491149902344;-13.971308708190918;1.8701171875;-14.573654174804688;-1.712249755859375
1445419169476;255.24114990234375;-78.98019409179688;-13.033967018127441;5.4985809326171875;-11.886642456054688;-0.810028076171875
1445419169512;256.3822937011719;-87.06958770751953;-11.887391090393066;7.8129425048828125;-13.455703735351562;3.5441131591796875
1445419169542;258.7451171875;-95.41644287109375;-11.581092834472656;7.34222412109375;-13.2203369140625;3.2499237060546875
1445419169576;260.6238098144531;-98.7789535522461;-11.523261070251465;4.4198455810546875;-11.141326904296875;1.3474273681640625
1445419169615;264.84722900390625;-105.7498779296875;-10.28541374206543;2.183929443359375;-9.768402099609375;1.1709136962890625
1445419169644;264.93939208984375;-107.53011322021484;-10.060729026794434;1.556304931640625;-8.4346923828125;1.4258880615234375
1445419169675;264.43621826171875;-109.50321197509766;-10.156734466552734;1.5170745849609375;-5.4338531494140625;1.876983642578125
1445419169708;262.43267822265625;-113.27771759033203;-10.806913375854492;2.3996734619140625;-4.4532012939453125;2.092742919921875
1445419169741;261.1349792480469;-115.1027603149414;-12.034032821655273;3.615692138671875;-3.4136962890625;2.3673248291015625
1445419169775;261.2962646484375;-114.9797134399414;-12.461305618286133;3.1842041015625;-4.610107421875;1.0336151123046875
1445419169808;261.7648620605469;-111.64776611328125;-12.916193962097168;2.360443115234375;-6.72833251953125;0.36676025390625
1445419169841;261.29278564453125;-105.98982238769531;-11.830562591552734;1.791656494140625;-14.259841918945312;-6.439056396484375
1445419169874;262.08380126953125;-104.06647491455078;-10.522562026977539;3.0076904296875;-11.062881469726562;-8.792648315429688
1445419169906;262.7969055175781;-103.64280700683594;-10.070231437683105;2.55657958984375;-10.062606811523438;-4.7523040771484375
1445419169939;264.9974670410156;-103.28227996826172;-10.76740550994873;6.832275390625;-17.7117919921875;-3.9873809814453125
1445419169972;267.0257873535156;-103.94842529296875;-10.891522407531738;5.6358642578125;-15.4954833984375;-1.96722412109375
1445419170004;272.42462158203125;-104.95038604736328;-8.990060806274414;5.027862548828125;-6.0026397705078125;4.9954986572265625
1445419170038;280.34619140625;-101.2061538696289;-7.692321300506592;6.4988555908203125;-7.1598358154296875;5.5054473876953125
1445419170070;283.4341125488281;-98.45294952392578;-8.287056922912598;6.400787353515625;-10.494094848632812;3.465667724609375
1445419170103;288.5030212402344;-94.74005889892578;-8.285390853881836;1.791656494140625;-10.6510009765625;3.1910858154296875
1445419170136;291.9616394042969;-93.501953125;-7.815633773803711;0.928680419921875;-10.180282592773438;3.289154052734375
1445419170169;298.4541931152344;-90.31103515625;-6.986781120300293;0.359893798828125;-10.062606811523438;2.896881103515625
1445419170202;304.2496337890625;-88.01116180419922;-6.779016017913818;0.595245361328125;-10.042984008789062;1.6612396240234375
1445419170235;306.7574157714844;-87.17574310302734;-6.857016563415527;1.0855865478515625;-10.847137451171875;1.56317138671875
1445419170269;311.56488037109375;-85.99996185302734;-7.057015419006348;1.2621002197265625;-11.004043579101562;1.6220245361328125
1445419170302;316.74627685546875;-85.49752044677734;-7.076262950897217;2.10546875;-10.180282592773438;0.994384765625
1445419170335;320.3667907714844;-85.72766876220703;-7.017159938812256;2.046630859375;-10.160659790039062;1.4847259521484375
1445419170368;329.8133239746094;-86.74901580810547;-6.2427978515625;0.595245361328125;-9.670333862304688;2.4850006103515625
1445419170401;335.00787353515625;-87.3136978149414;-5.461462497711182;1.18365478515625;-9.631103515625;0.445220947265625
1445419170435;345.7977294921875;-89.26245880126953;-4.164777755737305;3.75299072265625;-9.297683715820312;-0.6138916015625
1445419170466;354.27728271484375;-92.90522766113281;-4.884138584136963;6.5380859375;-10.101821899414062;0.81787109375
1445419170500;358.9417724609375;-97.41024780273438;-8.198651313781738;4.32177734375;-12.41619873046875;0.4648284912109375
1445419170533;1.15765380859375;-98.90966796875;-9.582318305969238;2.5958099365234375;-11.867019653320312;-0.633514404296875
1445419170566;5.452850341796875;-100.0927734375;-11.972860336303711;0.5756378173828125;-10.219512939453125;-1.18267822265625
1445419170600;7.1051025390625;-100.64582824707031;-13.044859886169434;0.359893798828125;-8.4935302734375;-2.4771575927734375
1445419170631;8.55999755859375;-101.63841247558594;-15.152938842773438;1.3405609130859375;-8.160110473632812;-3.0459442138671875
1445419170665;9.009521484375;-102.0244140625;-16.333091735839844;2.5761871337890625;-7.80706787109375;-2.516387939453125
1445419170702;9.425262451171875;-102.72396850585938;-18.9612979888916;2.9096221923828125;-7.4148101806640625;-2.1829681396484375
1445419170731;9.66876220703125;-103.16173553466797;-21.5308895111084;2.811553955078125;-7.885528564453125;-2.4379425048828125
1445419170763;9.848663330078125;-103.27618408203125;-22.68653106689453;2.360443115234375;-8.88580322265625;-3.39898681640625
1445419170797;10.191802978515625;-103.21704864501953;-24.07560157775879;2.1446990966796875;-8.709274291992188;-3.771636962890625
1445419170830;10.546539306640625;-102.74616241455078;-24.4096736907959;2.2623748779296875;-7.80706787109375;-3.85009765625
1445419170863;11.6043701171875;-102.11531829833984;-23.835416793823242;3.439178466796875;-7.86590576171875;-4.8307647705078125
1445419170896;12.0040283203125;-101.72246551513672;-23.507408142089844;3.6549224853515625;-7.92474365234375;-5.1837921142578125
1445419170928;12.457122802734375;-100.83099365234375;-22.803892135620117;4.0864105224609375;-9.827239990234375;-6.18408203125
1445419170962;12.509674072265625;-100.44343566894531;-22.27824592590332;4.498291015625;-11.10211181640625;-3.9677734375
1445419170995;11.97283935546875;-99.33679962158203;-21.003190994262695;3.949127197265625;-8.5523681640625;-1.829925537109375
1445419171027;14.253997802734375;-97.74411010742188;-19.148929595947266;5.2436065673828125;-6.7871856689453125;1.190521240234375
1445419171062;15.481842041015625;-96.19438171386719;-18.479738235473633;4.3413848876953125;-9.06231689453125;1.21014404296875
1445419171094;16.336334228515625;-92.00755310058594;-16.9145450592041;1.53668212890625;-11.51397705078125;1.21014404296875
1445419171127;15.2935791015625;-88.9457778930664;-15.54829216003418;1.3405609130859375;-9.709564208984375;0.36676025390625
1445419171160;13.89215087890625;-87.65206909179688;-15.18446159362793;0.869842529296875;-10.454864501953125;1.249359130859375
1445419171193;11.003936767578125;-84.95852661132812;-14.160664558410645;-0.208892822265625;-11.27862548828125;1.44549560546875
1445419171228;9.519805908203125;-82.09590148925781;-12.762426376342773;1.732818603515625;-10.239120483398438;0.504058837890625
1445419171259;9.80535888671875;-80.88972473144531;-12.000312805175781;2.9684600830078125;-9.042709350585938;0.3471527099609375
1445419171292;10.4788818359375;-78.35420989990234;-11.304563522338867;4.0864105224609375;-8.689666748046875;0.8571014404296875
1445419171326;10.178009033203125;-75.86311340332031;-11.816473960876465;1.98779296875;-9.533035278320312;0.6021270751953125
1445419171358;9.743194580078125;-74.74507904052734;-12.305323600769043;1.105194091796875;-9.807632446289062;1.0924530029296875
1445419171393;8.0921630859375;-72.79075622558594;-13.120182037353516;0.987518310546875;-10.25872802734375;0.935546875
1445419171423;7.338531494140625;-71.86026000976562;-13.441099166870117;1.8308868408203125;-10.297958374023438;0.19024658203125
1445419171458;6.321929931640625;-70.4262924194336;-14.026287078857422;1.53668212890625;-10.964813232421875;0.504058837890625
1445419171490;5.952667236328125;-70.04928588867188;-14.617880821228027;2.2035369873046875;-10.788284301757812;0.36676025390625
1445419171524;6.5013427734375;-70.08982849121094;-14.94044303894043;1.3405609130859375;-12.220062255859375;-1.319976806640625
1445419171555;6.16363525390625;-70.41741943359375;-15.421050071716309;-0.150054931640625;-14.102935791015625;-0.4766082763671875
1445419171589;3.450225830078125;-73.00261688232422;-14.581690788269043;1.1444244384765625;-14.416748046875;-0.5942840576171875
1445419171621;2.227874755859375;-75.64039611816406;-13.988061904907227;3.7725982666015625;-12.494644165039062;0.0333404541015625
1445419171655;1.78900146484375;-82.9503402709961;-13.824819564819336;6.8715057373046875;-11.867019653320312;1.523956298828125
1445419171688;2.64697265625;-86.90454864501953;-14.247517585754395;4.4002227783203125;-11.10211181640625;1.876983642578125
1445419171721;3.31512451171875;-92.74787902832031;-14.746092796325684;2.73309326171875;-10.7098388671875;1.6220245361328125
1445419171754;1.29620361328125;-97.15489196777344;-14.787433624267578;0.6933135986328125;-10.690231323242188;0.994384765625
1445419171787;359.9100341796875;-99.1991195678711;-14.388916969299316;0.026458740234375;-9.356521606445312;0.641357421875
1445419171819;355.5951843261719;-102.75453186035156;-13.76401424407959;0.987518310546875;-7.7678375244140625;0.9747772216796875
1445419171853;350.1178894042969;-106.27713775634766;-13.849397659301758;2.988067626953125;-5.8653564453125;1.4062652587890625
1445419171885;347.70123291015625;-107.60308074951172;-14.113343238830566;3.69415283203125;-5.041595458984375;1.6024017333984375
1445419171919;343.8971252441406;-108.18896484375;-14.764369010925293;3.6549224853515625;-4.8258514404296875;1.1512908935546875
1445419171951;341.065673828125;-105.9103775024414;-15.215096473693848;3.321502685546875;-5.669219970703125;-0.515838623046875
1445419171984;340.0476379394531;-104.12867736816406;-15.297392845153809;3.3999481201171875;-7.375579833984375;-1.712249755859375
1445419172017;338.91888427734375;-100.07991790771484;-15.113509178161621;3.046905517578125;-12.749618530273438;-6.92938232421875
1445419172051;337.5455322265625;-98.5927963256836;-15.161476135253906;3.3411102294921875;-12.945755004882812;-7.4393310546875
1445419172084;335.6021423339844;-98.80687713623047;-15.319300651550293;3.4784088134765625;-11.553207397460938;-5.55645751953125
1445419172116;333.8362731933594;-99.89154052734375;-15.57982063293457;3.3411102294921875;-9.944915771484375;0.8374786376953125
1445419172149;335.40887451171875;-100.42350006103516;-15.30639362335205;4.9101715087890625;-10.925582885742188;-0.7119598388671875
1445419172183;339.4625549316406;-99.672119140625;-14.426111221313477;4.7924957275390625;-9.807632446289062;-0.2216339111328125
1445419172216;344.79754638671875;-97.20631408691406;-13.9755859375;3.9098968505859375;-7.7089996337890625;2.46539306640625
1445419172249;346.4444274902344;-94.77700805664062;-14.018595695495605;0.7913818359375;-10.513702392578125;1.759307861328125
1445419172282;345.90869140625;-90.83523559570312;-14.278980255126953;-0.405029296875;-10.9451904296875;1.4847259521484375
1445419172314;344.63726806640625;-88.93965911865234;-14.00723648071289;1.2032623291015625;-10.415634155273438;0.680572509765625
1445419172349;344.1423645019531;-87.44676208496094;-13.703859329223633;1.497467041015625;-10.003753662109375;1.308197021484375
1445419172381;343.5089416503906;-84.7636489868164;-13.08425521850586;1.5170745849609375;-9.415359497070312;0.30792236328125
1445419172413;343.573486328125;-82.332763671875;-12.598453521728516;2.32122802734375;-9.12115478515625;0.386383056640625
1445419172447;343.50048828125;-81.13651275634766;-12.533194541931152;2.301605224609375;-9.199615478515625;0.7394256591796875
1445419172480;343.6783142089844;-78.86095428466797;-12.6400785446167;2.164306640625;-9.317291259765625;1.1120758056640625
1445419172513;343.9452209472656;-77.71296691894531;-12.853538513183594;2.5761871337890625;-9.552658081054688;1.014007568359375
1445419172546;343.4801330566406;-75.54984283447266;-13.76451301574707;2.2819976806640625;-9.90570068359375;0.7786407470703125
1445419172579;342.9466857910156;-73.64185333251953;-14.718973159790039;1.6935882568359375;-10.31756591796875;0.562896728515625
1445419172612;342.85107421875;-72.76589965820312;-15.045400619506836;0.8502197265625;-11.533599853515625;1.0532379150390625
1445419172645;343.24359130859375;-71.84675598144531;-15.616864204406738;0.7913818359375;-11.886642456054688;0.01373291015625
1445419172677;344.19256591796875;-72.0472183227539;-15.978425979614258;1.0071258544921875;-13.0438232421875;-2.14373779296875
1445419172711;344.3492126464844;-72.4542007446289;-16.026531219482422;-0.1304473876953125;-14.4755859375;-1.712249755859375
1445419172744;344.32452392578125;-75.09288787841797;-15.279685020446777;1.5170745849609375;-13.61260986328125;-1.3003692626953125
1445419172777;344.55865478515625;-81.33848571777344;-14.231935501098633;5.7535552978515625;-12.063156127929688;1.1709136962890625
1445419172809;345.05615234375;-85.02548217773438;-14.028717994689941;6.910736083984375;-12.02392578125;3.0341796875
1445419172843;346.9161682128906;-90.99440002441406;-13.927684783935547;5.2828216552734375;-11.749343872070312;1.9162139892578125
1445419172877;347.8639221191406;-93.47241973876953;-13.789566040039062;3.0272979736328125;-11.259017944335938;0.58251953125
1445419172909;349.3663330078125;-97.78681945800781;-13.210766792297363;3.0272979736328125;-10.494094848632812;0.621734619140625
1445419172943;350.0842590332031;-101.23214721679688;-12.963098526000977;2.870391845703125;-8.179718017578125;1.3474273681640625
1445419172976;349.13116455078125;-102.9885025024414;-13.097723960876465;2.066253662109375;-6.72833251953125;0.7198028564453125
1445419173008;346.19189453125;-106.23214721679688;-13.32305908203125;2.2623748779296875;-6.2183990478515625;0.81787109375
1445419173040;343.2242431640625;-108.18228149414062;-14.40699577331543;3.046905517578125;-4.9435272216796875;1.50433349609375
1445419173074;342.0248107910156;-108.52365112304688;-15.141169548034668;2.5369720458984375;-5.100433349609375;0.327545166015625
1445419173106;339.3601989746094;-106.85088348388672;-16.34370994567871;1.8897247314453125;-6.179168701171875;-0.82965087890625
1445419173140;335.66937255859375;-102.78459930419922;-16.15694236755371;1.438629150390625;-11.553207397460938;-4.8896026611328125
1445419173173;334.58978271484375;-101.04076385498047;-15.536352157592773;2.7134857177734375;-13.1614990234375;-8.223861694335938
1445419173206;333.08148193359375;-100.05023193359375;-15.071468353271484;3.81182861328125;-12.141616821289062;-7.2628021240234375
1445419173239;331.3575134277344;-100.262939453125;-15.159524917602539;3.6745452880859375;-8.846572875976562;-4.281585693359375
1445419173271;328.6254577636719;-101.67810821533203;-15.48859977722168;4.0864105224609375;-7.63055419921875;-2.281036376953125
1445419173304;330.3686218261719;-102.02995300292969;-15.458072662353516;6.9303436279296875;-10.905975341796875;-1.3592071533203125
1445419173339;331.97247314453125;-101.53353881835938;-15.088046073913574;3.9098968505859375;-6.37530517578125;4.91705322265625
1445419173372;335.9372253417969;-100.4900894165039;-14.229474067687988;4.066802978515625;-7.257904052734375;5.172027587890625
1445419173404;340.038330078125;-96.18879699707031;-13.493581771850586;2.5173492431640625;-10.749069213867188;2.661529541015625
1445419173439;340.2279968261719;-93.4787368774414;-13.342684745788574;0.359893798828125;-11.435531616210938;1.8573760986328125
1445419173470;338.9691467285156;-90.98117065429688;-13.076842308044434;-0.0519866943359375;-10.356796264648438;0.896331787109375
1445419173503;338.10296630859375;-88.76782989501953;-12.37031078338623;2.49774169921875;-9.670333862304688;1.2885894775390625
1445419173536;338.5745849609375;-87.3143539428711;-11.906457901000977;2.0074005126953125;-9.415359497070312;1.190521240234375
1445419173569;339.6366271972656;-84.4453353881836;-11.415741920471191;2.2819976806640625;-9.12115478515625;0.504058837890625
1445419173602;340.3906555175781;-82.02522277832031;-11.549735069274902;2.183929443359375;-9.533035278320312;0.1706390380859375
1445419173635;340.8473815917969;-80.9643325805664;-11.726978302001953;2.1446990966796875;-9.68994140625;0.0333404541015625
1445419173667;341.90509033203125;-79.1157455444336;-12.39905071258545;1.2621002197265625;-9.376129150390625;1.249359130859375
1445419173701;341.8761901855469;-78.1036148071289;-12.908452033996582;0.869842529296875;-9.944915771484375;1.523956298828125
1445419173733;341.37335205078125;-75.84862518310547;-14.081490516662598;1.0071258544921875;-9.886077880859375;1.641632080078125
1445419173766;341.20709228515625;-73.31075286865234;-15.041824340820312;1.811279296875;-10.180282592773438;1.21014404296875
1445419173802;341.1538391113281;-72.24832153320312;-15.424626350402832;1.497467041015625;-11.612045288085938;0.8571014404296875
1445419173833;341.40643310546875;-71.09918212890625;-16.30084228515625;1.30133056640625;-11.729736328125;0.2686920166015625
1445419173866;341.5918884277344;-70.99063110351562;-16.79551124572754;-0.0716094970703125;-13.2791748046875;0.6021270751953125
1445419173899;340.7784729003906;-71.26138305664062;-16.542129516601562;-1.4249267578125;-14.102935791015625;0.504058837890625
1445419173931;338.59271240234375;-73.27789306640625;-15.1788330078125;2.67425537109375;-13.318405151367188;-1.261138916015625
1445419173964;338.04742431640625;-75.26042175292969;-14.641929626464844;5.1063079833984375;-10.7686767578125;-0.7904205322265625
1445419173998;338.92822265625;-82.15953063964844;-14.146123886108398;6.0477447509765625;-11.553207397460938;0.8374786376953125
1445419174030;339.8288879394531;-89.1808090209961;-14.039137840270996;5.2828216552734375;-11.90625;3.1322479248046875
1445419174065;340.2409362792969;-92.01622009277344;-14.100735664367676;3.2234344482421875;-11.239395141601562;1.014007568359375
1445419174097;341.0110168457031;-97.06732940673828;-13.98979377746582;1.5955352783203125;-10.905975341796875;1.072845458984375
1445419174130;341.7185974121094;-100.92953491210938;-13.081269264221191;2.164306640625;-9.199615478515625;0.7394256591796875
1445419174163;341.096435546875;-102.47622680664062;-12.866114616394043;2.2035369873046875;-6.7675628662109375;1.308197021484375
1445419174198;337.6119079589844;-105.51630401611328;-13.010872840881348;2.301605224609375;-6.2772369384765625;1.32781982421875
1445419174229;333.7627258300781;-107.37605285644531;-13.900190353393555;3.1645965576171875;-5.0219879150390625;1.56317138671875
1445419174261;332.2950744628906;-107.7951889038086;-14.47635269165039;3.1645965576171875;-4.4335784912109375;1.3670501708984375
1445419174295;330.3933410644531;-106.55475616455078;-15.400657653808594;2.6546478271484375;-5.6888275146484375;-0.4766082763671875
1445419174328;328.2756652832031;-102.61724853515625;-15.511285781860352;1.928955078125;-10.31756591796875;-3.45782470703125
1445419174360;327.98004150390625;-100.89862060546875;-15.043598175048828;2.301605224609375;-12.828079223632812;-6.8901519775390625
1445419174394;327.2822265625;-100.22393035888672;-14.556222915649414;2.9488525390625;-11.808181762695312;-5.3995513916015625
1445419174426;325.3121643066406;-100.32477569580078;-14.51513671875;2.5958099365234375;-7.80706787109375;-2.967498779296875
1445419174459;321.96636962890625;-101.4218978881836;-14.361225128173828;4.0275726318359375;-10.219512939453125;-2.20257568359375
1445419174495;321.34124755859375;-101.65934753417969;-14.578339576721191;4.459075927734375;-11.847412109375;-1.378814697265625
1445419174526;321.4808349609375;-101.22116088867188;-14.354321479797363;5.027862548828125;-6.355682373046875;2.955718994140625
1445419174559;325.2295837402344;-101.251220703125;-13.644447326660156;5.5574188232421875;-5.1985015869140625;5.5250701904296875
1445419174593;330.5974426269531;-98.9805679321289;-13.116740226745605;5.2436065673828125;-9.650726318359375;2.4261627197265625
1445419174625;331.5941467285156;-95.86994934082031;-13.281407356262207;-0.9934234619140625;-11.670883178710938;3.289154052734375
1445419174659;331.0361328125;-91.9765396118164;-12.65902328491211;-1.6798858642578125;-10.866744995117188;1.50433349609375
1445419174693;330.5726013183594;-89.93638610839844;-12.285572052001953;1.811279296875;-9.846847534179688;1.6220245361328125
1445419174723;330.6164855957031;-88.5321044921875;-11.989752769470215;2.2623748779296875;-9.984146118164062;1.6808624267578125
1445419174756;331.6393737792969;-85.54953002929688;-11.298262596130371;1.9681854248046875;-9.513427734375;1.21014404296875
1445419174790;332.503662109375;-84.0201416015625;-11.127503395080566;2.5958099365234375;-9.376129150390625;0.327545166015625
1445419174823;333.6650390625;-81.46393585205078;-11.320571899414062;2.32122802734375;-9.533035278320312;-0.0451202392578125
1445419174855;334.26324462890625;-79.35768127441406;-11.814238548278809;1.8308868408203125;-9.611495971679688;0.81787109375
1445419174893;334.2598876953125;-77.48171997070312;-12.458767890930176;1.30133056640625;-9.611495971679688;0.955169677734375
1445419174922;334.14239501953125;-76.50387573242188;-12.907959938049316;1.2032623291015625;-9.68994140625;1.2885894775390625
1445419174956;333.7955017089844;-74.33771514892578;-13.88701343536377;1.673980712890625;-9.944915771484375;1.38665771484375
1445419174989;333.4393310546875;-73.32209777832031;-14.272703170776367;1.811279296875;-10.14105224609375;0.994384765625
1445419175021;333.4972839355469;-71.84223175048828;-15.041175842285156;1.36016845703125;-11.004043579101562;1.700469970703125
1445419175054;334.3994445800781;-71.29337310791016;-15.454346656799316;2.046630859375;-11.10211181640625;-0.574676513671875
1445419175092;334.4647216796875;-71.3176040649414;-15.498876571655273;-0.954193115234375;-14.495208740234375;0.2686920166015625
1445419175119;332.927490234375;-73.0265121459961;-14.604214668273926;-0.718841552734375;-15.04437255859375;0.2686920166015625
1445419175152;331.9981994628906;-74.8943862915039;-13.947364807128906;4.812103271484375;-12.239669799804688;-0.82965087890625
1445419175186;331.3767395019531;-80.67904663085938;-13.513179779052734;5.7927703857421875;-10.807907104492188;-0.5550537109375
1445419175219;331.45721435546875;-87.7881088256836;-13.615154266357422;3.57647705078125;-11.612045288085938;1.641632080078125
1445419175255;330.2134704589844;-90.70030212402344;-13.93232250213623;-0.150054931640625;-11.965087890625;2.328094482421875
1445419175284;327.0249328613281;-96.20926666259766;-14.327770233154297;0.0068511962890625;-11.847412109375;2.0731201171875
1445419175317;324.6385803222656;-100.99309539794922;-13.876912117004395;0.7325439453125;-10.6510009765625;1.582794189453125
1445419175351;323.27520751953125;-102.77539825439453;-13.387027740478516;0.3795013427734375;-9.591873168945312;1.759307861328125
1445419175383;318.906982421875;-105.54003143310547;-12.468889236450195;0.4383392333984375;-8.728897094726562;2.1319580078125
1445419175417;312.8453369140625;-107.59510040283203;-11.792403221130371;1.222869873046875;-7.1990509033203125;2.70074462890625
1445419175449;309.4158020019531;-108.0670394897461;-11.668253898620605;1.3209381103515625;-6.865631103515625;2.386932373046875
1445419175483;302.189697265625;-107.6880111694336;-12.49389362335205;1.2817230224609375;-8.395462036132812;2.0142822265625
1445419175516;292.3591613769531;-104.33673095703125;-14.938093185424805;1.0659637451171875;-10.807907104492188;2.58306884765625
1445419175549;286.63189697265625;-101.90111541748047;-15.794828414916992;1.6543731689453125;-11.082489013671875;0.9159393310546875
1445419175582;274.87408447265625;-97.7505874633789;-17.326589584350586;4.1060333251953125;-10.5921630859375;-1.4180450439453125
1445419175614;269.3944091796875;-97.04824829101562;-18.380592346191406;5.322052001953125;-8.591598510742188;6.486114501953125
1445419175648;266.35589599609375;-99.06005096435547;-18.977508544921875;6.3811798095703125;-7.7089996337890625;6.9568328857421875
1445419175681;264.8146057128906;-99.4398193359375;-18.231212615966797;8.185592651367188;-11.27862548828125;-0.5550537109375
1445419175715;259.26129150390625;-96.59519958496094;-19.621007919311523;-1.8367919921875;-14.573654174804688;-0.751190185546875
1445419175747;253.54525756835938;-95.10356903076172;-21.701705932617188;-3.54315185546875;-11.376693725585938;2.0535125732421875
1445419175780;251.31137084960938;-96.06025695800781;-20.12297821044922;2.4585113525390625;-8.650436401367188;1.9946746826171875
1445419175813;248.16213989257812;-94.86627960205078;-19.987873077392578;4.77288818359375;-9.552658081054688;0.8571014404296875
1445419175846;242.17233276367188;-92.11380767822266;-20.748750686645508;4.0864105224609375;-9.729171752929688;0.876708984375
1445419175879;238.35882568359375;-90.22954559326172;-21.373382568359375;2.8311614990234375;-9.631103515625;0.562896728515625
1445419175911;236.19497680664062;-88.98026275634766;-21.72515869140625;2.046630859375;-9.591873168945312;0.680572509765625
1445419175945;231.88272094726562;-86.3431625366211;-22.312740325927734;1.53668212890625;-9.68994140625;0.955169677734375
1445419175978;229.63632202148438;-85.06244659423828;-22.611005783081055;1.2032623291015625;-9.886077880859375;0.7982635498046875
1445419176011;224.99468994140625;-82.52967071533203;-23.25878143310547;1.18365478515625;-9.768402099609375;0.935546875
1445419176043;220.442138671875;-80.36944580078125;-23.792871475219727;1.30133056640625;-9.866470336914062;1.0532379150390625
1445419176076;218.535400390625;-79.50834655761719;-24.052444458007812;1.47784423828125;-10.121444702148438;0.896331787109375
1445419176111;215.06417846679688;-78.18067169189453;-24.608564376831055;0.8306121826171875;-10.396026611328125;1.190521240234375
1445419176143;213.440185546875;-77.69851684570312;-24.749631881713867;1.6935882568359375;-11.082489013671875;1.523956298828125
1445419176176;210.14459228515625;-77.87353515625;-24.66820526123047;4.9297943115234375;-12.29852294921875;-0.3785400390625
1445419176209;207.1846923828125;-80.16490173339844;-25.40334701538086;5.655487060546875;-13.455703735351562;-1.4180450439453125
1445419176242;205.37445068359375;-84.41539001464844;-26.54742431640625;3.6549224853515625;-13.1614990234375;-1.96722412109375
1445419176275;204.66064453125;-87.40020751953125;-26.75432014465332;2.9684600830078125;-12.965362548828125;-1.00616455078125
1445419176309;203.5089111328125;-93.85284423828125;-26.759601593017578;2.7919464111328125;-12.47503662109375;1.131683349609375
1445419176340;202.93206787109375;-96.45384979248047;-26.410011291503906;0.6737060546875;-9.650726318359375;2.40655517578125
1445419176373;201.3748779296875;-100.11812591552734;-24.487722396850586;0.5756378173828125;-9.219223022460938;2.838043212890625
1445419176406;199.54254150390625;-102.02223205566406;-21.296520233154297;1.5759124755859375;-9.846847534179688;2.0142822265625
1445419176441;197.7869873046875;-102.5233383178711;-20.10500144958496;2.4781341552734375;-9.199615478515625;0.7198028564453125
1445419176473;192.0791015625;-104.00703430175781;-18.52072525024414;3.890289306640625;-8.964248657226562;0.8374786376953125
1445419176506;185.8046875;-106.07940673828125;-17.2021427154541;4.262939453125;-8.081649780273438;0.7001953125
1445419176544;182.72906494140625;-106.71519470214844;-16.74285316467285;4.6551971435546875;-6.3949127197265625;0.58251953125
1445419176572;177.14691162109375;-106.85912322998047;-16.495731353759766;4.6159820556640625;-5.9241943359375;0.680572509765625
1445419176605;174.8783416748047;-106.44257354736328;-16.595182418823242;4.0275726318359375;-6.9048614501953125;-0.6138916015625
1445419176638;171.4725799560547;-104.76103973388672;-16.83315086364746;3.615692138671875;-8.415084838867188;-2.4967803955078125
1445419176670;169.07264709472656;-102.09693908691406;-16.831172943115234;3.5960845947265625;-11.239395141601562;-6.223297119140625
1445419176703;168.5574951171875;-101.17091369628906;-16.732078552246094;2.635040283203125;-10.5921630859375;-5.3210906982421875
1445419176737;167.12124633789062;-100.99591064453125;-16.87090301513672;1.8701171875;-10.02337646484375;-3.9285430908203125
1445419176770;164.92526245117188;-101.48985290527344;-17.274999618530273;2.2231597900390625;-13.083053588867188;-2.32025146484375
1445419176803;164.9554443359375;-101.71321105957031;-17.239238739013672;4.77288818359375;-8.925033569335938;-0.4373779296875
1445419176835;166.33413696289062;-102.2099609375;-16.471107482910156;4.89056396484375;-6.8460235595703125;2.0731201171875
1445419176869;168.18856811523438;-100.85338592529297;-15.61807632446289;5.086700439453125;-7.92474365234375;3.8775482177734375
1445419176903;169.92250061035156;-99.01299285888672;-15.43326187133789;3.3607330322265625;-10.925582885742188;1.190521240234375
1445419176934;172.18174743652344;-94.53343963623047;-15.550288200378418;1.7132110595703125;-10.905975341796875;2.0731201171875
1445419176967;172.31533813476562;-92.25357055664062;-15.150405883789062;0.22259521484375;-10.297958374023438;1.1120758056640625
1445419177000;172.39669799804688;-91.59495544433594;-14.96500301361084;1.0659637451171875;-10.611770629882812;0.445220947265625
1445419177034;173.68792724609375;-89.18798828125;-14.502278327941895;0.2029876708984375;-9.925308227539062;1.582794189453125
1445419177066;174.76754760742188;-86.68822479248047;-13.93151569366455;2.0270233154296875;-8.983871459960938;0.4844512939453125
1445419177100;175.08421325683594;-85.37608337402344;-13.926923751831055;3.1057586669921875;-8.905410766601562;0.4648284912109375
1445419177133;176.41140747070312;-82.94170379638672;-14.379547119140625;2.125091552734375;-9.395751953125;0.994384765625
1445419177166;177.23960876464844;-81.754638671875;-14.657716751098633;2.0270233154296875;-9.45458984375;1.26898193359375
1445419177198;178.47669982910156;-79.34977722167969;-15.29323959350586;1.8701171875;-9.788009643554688;0.9747772216796875
1445419177231;179.88589477539062;-77.10417175292969;-16.094356536865234;1.36016845703125;-10.042984008789062;0.7786407470703125
1445419177265;180.6815185546875;-76.25837707519531;-16.34844398498535;1.222869873046875;-10.513702392578125;1.50433349609375
1445419177297;182.77301025390625;-75.11373901367188;-16.77630615234375;1.18365478515625;-10.7686767578125;2.1907958984375
1445419177331;185.530517578125;-74.40506744384766;-17.580881118774414;2.2623748779296875;-11.21978759765625;1.465118408203125
1445419177364;186.7974853515625;-74.07638549804688;-18.09614372253418;1.6543731689453125;-12.180831909179688;0.81787109375
1445419177397;188.552734375;-74.06425476074219;-18.24722671508789;-0.3069610595703125;-13.808746337890625;-0.1039581298828125
1445419177429;188.474853515625;-75.86460876464844;-17.130517959594727;2.2819976806640625;-13.024200439453125;-1.771087646484375
1445419177463;188.529541015625;-77.66836547851562;-16.688194274902344;3.321502685546875;-12.180831909179688;-1.6533966064453125
1445419177496;190.27349853515625;-84.2924575805664;-16.1832218170166;4.1648712158203125;-11.808181762695312;0.111785888671875
1445419177528;190.98870849609375;-88.2075424194336;-15.900676727294922;4.6551971435546875;-10.905975341796875;2.8576507568359375
1445419177562;191.8165283203125;-94.16869354248047;-15.81522274017334;3.87066650390625;-10.5333251953125;1.308197021484375
1445419177594;192.97991943359375;-98.88458251953125;-15.683197021484375;1.2032623291015625;-10.121444702148438;0.876708984375
1445419177628;193.1512451171875;-100.92950439453125;-15.325736999511719;1.9681854248046875;-8.709274291992188;1.249359130859375
1445419177661;193.12384033203125;-104.85108947753906;-14.616378784179688;2.38006591796875;-7.7089996337890625;0.935546875
1445419177694;190.27801513671875;-108.20846557617188;-14.389391899108887;2.61541748046875;-6.355682373046875;0.8571014404296875
1445419177727;188.22918701171875;-109.34090423583984;-14.553510665893555;3.5960845947265625;-5.35540771484375;1.1120758056640625
1445419177759;184.44366455078125;-110.47435760498047;-14.95090389251709;3.6745452880859375;-4.963134765625;0.876708984375
1445419177826;181.7227783203125;-108.17874908447266;-14.818113327026367;2.73309326171875;-7.8462982177734375;-1.947601318359375
1445419177793;182.3353271484375;-109.72193145751953;-14.999457359313965;3.1842041015625;-5.9830322265625;-0.4962158203125
1445419177858;181.44036865234375;-103.92606353759766;-13.730835914611816;2.55657958984375;-13.573379516601562;-8.929931640625
1445419177892;181.89874267578125;-102.3587646484375;-12.732301712036133;2.8899993896484375;-11.553207397460938;-7.2628021240234375
1445419177925;181.17657470703125;-102.3529281616211;-12.80369758605957;2.0858612060546875;-10.25872802734375;-5.3406982421875
1445419177959;179.76568603515625;-103.12870788574219;-13.016180038452148;3.2038116455078125;-10.690231323242188;0.111785888671875
1445419177990;180.51593017578125;-103.62393188476562;-13.036914825439453;7.28338623046875;-11.729736328125;-0.8492584228515625
1445419178026;183.0616455078125;-102.65116882324219;-12.911641120910645;5.949676513671875;-10.278350830078125;0.994384765625
1445419178059;186.11749267578125;-101.06719970703125;-12.361892700195312;4.243316650390625;-6.55181884765625;5.230865478515625
1445419178090;188.15863037109375;-99.24942779541016;-12.032783508300781;3.57647705078125;-10.180282592773438;2.6026763916015625
1445419178123;191.042724609375;-93.95978546142578;-12.706572532653809;1.30133056640625;-11.200164794921875;3.093017578125
1445419178156;192.3876953125;-92.5237045288086;-12.778005599975586;-0.718841552734375;-11.239395141601562;0.052947998046875
1445419178189;194.45843505859375;-90.75750732421875;-12.443017959594727;0.16375732421875;-10.552932739257812;0.7982635498046875
1445419178222;198.39141845703125;-87.84285736083984;-11.451970100402832;0.8894500732421875;-9.552658081054688;1.3670501708984375
1445419178254;199.9427490234375;-86.42427062988281;-11.092489242553711;2.5958099365234375;-9.199615478515625;0.24908447265625
1445419178288;201.69390869140625;-83.50639343261719;-11.353555679321289;2.32122802734375;-9.415359497070312;-0.0451202392578125
1445419178320;204.36614990234375;-81.38964080810547;-12.130800247192383;0.869842529296875;-9.846847534179688;0.5236663818359375
1445419178353;205.67169189453125;-80.39479064941406;-12.414289474487305;0.9482879638671875;-9.631103515625;0.58251953125
1445419178386;207.2994384765625;-78.29106903076172;-13.115099906921387;0.987518310546875;-9.788009643554688;0.5236663818359375
1445419178420;208.21896362304688;-76.15645599365234;-14.199716567993164;1.12481689453125;-10.160659790039062;1.131683349609375
1445419178453;208.9979248046875;-75.29488372802734;-14.788436889648438;1.497467041015625;-10.474472045898438;0.759033203125
1445419178486;210.14678955078125;-74.17815399169922;-15.455398559570312;1.98779296875;-10.9451904296875;0.6021270751953125
1445419178518;211.28955078125;-73.84015655517578;-15.939600944519043;1.75244140625;-11.200164794921875;-0.2804718017578125
1445419178552;211.84857177734375;-74.06903076171875;-16.140222549438477;1.24249267578125;-12.02392578125;-0.515838623046875
1445419178585;212.15292358398438;-75.98760986328125;-16.036479949951172;0.301055908203125;-14.377532958984375;-1.2415313720703125
1445419178618;211.94796752929688;-78.28460693359375;-15.829329490661621;3.3607330322265625;-11.710113525390625;-0.4962158203125
1445419178651;211.7791748046875;-85.53813171386719;-15.37752628326416;4.184478759765625;-12.318130493164062;0.7982635498046875
1445419178683;212.26727294921875;-93.11125183105469;-15.14132308959961;2.49774169921875;-12.867294311523438;3.1322479248046875
1445419178716;212.97940063476562;-96.12908935546875;-15.177189826965332;1.2817230224609375;-11.984695434570312;1.876983642578125
1445419178749;216.24932861328125;-101.51631164550781;-14.483509063720703;1.75244140625;-10.9451904296875;0.4059906005859375
1445419178782;218.15338134765625;-105.00142669677734;-12.879141807556152;2.2231597900390625;-9.572265625;0.7786407470703125
1445419178817;217.3701171875;-106.14188385009766;-12.338425636291504;1.9681854248046875;-7.23828125;0.896331787109375
1445419178861;211.960205078125;-110.56158447265625;-11.860657691955566;2.693878173828125;-6.2183990478515625;1.26898193359375
1445419178881;209.84759521484375;-111.5767822265625;-12.215681076049805;3.4587860107421875;-5.8653564453125;1.6220245361328125
1445419178915;207.9371337890625;-112.1211166381836;-12.682641983032227;4.1648712158203125;-4.845458984375;1.21014404296875
1445419178948;204.92236328125;-111.5805892944336;-13.622406959533691;4.262939453125;-4.8258514404296875;0.7786407470703125
1445419178980;203.3123779296875;-109.03905487060547;-14.415162086486816;3.51763916015625;-7.23828125;-0.5942840576171875
1445419179013;202.941162109375;-107.0142593383789;-14.652374267578125;2.9684600830078125;-9.631103515625;-3.28131103515625
1445419179046;203.77197265625;-103.1024398803711;-14.359192848205566;0.477569580078125;-14.12255859375;-7.870819091796875
1445419179081;203.3551025390625;-102.05113220214844;-14.21446704864502;1.615142822265625;-12.435806274414062;-4.8699798583984375
1445419179113;201.28466796875;-101.48739624023438;-13.529647827148438;3.498016357421875;-11.729736328125;-3.9873809814453125
1445419179145;200.25030517578125;-101.85895538330078;-13.692551612854004;3.51763916015625;-11.90625;-1.437652587890625
1445419179179;201.14508056640625;-102.17217254638672;-13.637181282043457;3.9687347412109375;-7.7874603271484375;0.2098541259765625
1445419179211;203.9447021484375;-102.31636047363281;-12.501582145690918;3.51763916015625;-6.120330810546875;3.38720703125
1445419179244;206.70098876953125;-99.22404479980469;-11.51826000213623;3.9098968505859375;-9.45458984375;3.210693359375
1445419179277;207.6444091796875;-96.67185974121094;-11.373550415039062;1.791656494140625;-11.16094970703125;2.1123504638671875
1445419179311;208.06674194335938;-93.21207427978516;-11.78746509552002;0.8502197265625;-10.435256958007812;2.269256591796875
1445419179344;208.00726318359375;-92.71925354003906;-11.805526733398438;2.870391845703125;-9.709564208984375;1.50433349609375
1445419179377;209.21209716796875;-90.2515640258789;-11.27313232421875;2.2623748779296875;-9.788009643554688;1.8966064453125
1445419179409;211.57073974609375;-87.35990905761719;-10.527544975280762;0.5756378173828125;-9.866470336914062;1.2885894775390625
1445419179443;212.18185424804688;-85.9683609008789;-10.250688552856445;2.32122802734375;-9.06231689453125;0.58251953125
1445419179482;213.20803833007812;-83.57524108886719;-10.42287826538086;2.2819976806640625;-9.552658081054688;1.21014404296875
1445419179511;214.70068359375;-81.2917251586914;-11.156981468200684;1.8308868408203125;-9.572265625;1.38665771484375
1445419179541;215.26885986328125;-80.20825958251953;-11.478585243225098;1.5955352783203125;-9.925308227539062;1.0336151123046875
1445419179576;216.430908203125;-78.03917694091797;-12.284918785095215;1.5759124755859375;-10.14105224609375;0.8374786376953125
1445419179609;217.70864868164062;-76.07836151123047;-13.247157096862793;1.41900634765625;-10.180282592773438;0.7198028564453125
1445419179641;218.393310546875;-75.23310852050781;-13.701761245727539;0.418731689453125;-10.964813232421875;1.2297515869140625
1445419179679;220.09878540039062;-74.15860748291016;-14.404365539550781;0.4383392333984375;-11.141326904296875;0.994384765625
1445419179707;220.87835693359375;-73.85604095458984;-14.65347957611084;-0.150054931640625;-13.0438232421875;0.759033203125
1445419179740;221.97320556640625;-73.61664581298828;-14.84156608581543;-0.522705078125;-13.357635498046875;0.13140869140625
1445419179772;220.41455078125;-74.67550659179688;-13.886300086975098;2.5173492431640625;-13.181106567382812;-1.2415313720703125
1445419179805;219.34454345703125;-76.15919494628906;-13.379584312438965;4.77288818359375;-11.200164794921875;-0.9669342041015625
1445419179838;219.06707763671875;-81.94779968261719;-12.775413513183594;5.4005126953125;-11.768951416015625;0.445220947265625
1445419179872;220.4371337890625;-88.93630981445312;-12.412139892578125;5.6947021484375;-11.572830200195312;3.073394775390625
1445419179905;221.25445556640625;-92.07675170898438;-12.451932907104492;4.3413848876953125;-11.121719360351562;1.6808624267578125
1445419179937;223.52481079101562;-97.70818328857422;-12.778446197509766;3.1449737548828125;-10.513702392578125;1.072845458984375
1445419179970;225.93243408203125;-101.9915542602539;-12.549898147583008;1.928955078125;-9.788009643554688;1.1512908935546875
1445419180004;226.98828125;-103.82535552978516;-12.29527759552002;2.066253662109375;-7.80706787109375;1.50433349609375
1445419180037;227.71514892578125;-107.05660247802734;-11.972540855407715;2.4585113525390625;-7.042144775390625;1.523956298828125
1445419180069;226.2508544921875;-109.52159118652344;-12.126971244812012;3.9883575439453125;-5.728057861328125;1.3670501708984375
1445419180102;225.49252319335938;-110.28089141845703;-12.34988784790039;4.439453125;-5.2573394775390625;1.26898193359375
1445419180136;225.10003662109375;-110.28787994384766;-12.943670272827148;4.498291015625;-5.3750152587890625;0.81787109375
1445419180169;225.76043701171875;-107.55174255371094;-13.325176239013672;3.4784088134765625;-8.513153076171875;-0.5354461669921875
1445419180202;226.2489013671875;-105.6394271850586;-13.05521011352539;2.9488525390625;-10.31756591796875;-3.16363525390625
1445419180235;227.94317626953125;-102.6920394897461;-11.967531204223633;1.438629150390625;-10.670608520507812;-5.7722015380859375
1445419180268;228.86618041992188;-101.96700286865234;-11.562929153442383;1.36016845703125;-11.51397705078125;-4.2031402587890625
1445419180301;230.2738037109375;-101.25859832763672;-10.912729263305664;2.0270233154296875;-11.062881469726562;-4.3011932373046875
1445419180334;231.21466064453125;-101.82777404785156;-10.792678833007812;4.4786834716796875;-10.239120483398438;-1.2807464599609375
1445419180367;232.5125732421875;-102.0034408569336;-11.303311347961426;5.9300689697265625;-13.946029663085938;-1.8495330810546875
1445419180400;234.740966796875;-100.40105438232422;-11.314130783081055;5.5574188232421875;-11.33746337890625;-1.712249755859375
1445419180433;240.34408569335938;-98.9316635131836;-9.97658920288086;4.1060333251953125;-6.630279541015625;3.2303009033203125
1445419180466;243.45355224609375;-97.16461181640625;-9.726075172424316;3.949127197265625;-7.493255615234375;2.70074462890625
1445419180499;247.87557983398438;-94.12777709960938;-10.152162551879883;2.066253662109375;-10.474472045898438;2.2300262451171875
1445419180532;252.404052734375;-91.85504913330078;-9.653180122375488;0.928680419921875;-11.592437744140625;1.465118408203125
1445419180564;255.66650390625;-90.79518127441406;-8.824361801147461;1.850494384765625;-11.16094970703125;1.7200775146484375
1445419180597;262.341552734375;-88.08518981933594;-7.385744094848633;2.870391845703125;-9.650726318359375;2.2496490478515625
1445419180631;265.3200988769531;-86.98540496826172;-7.009873867034912;2.38006591796875;-9.199615478515625;2.504608154296875
1445419180664;271.18438720703125;-85.04619598388672;-6.713003635406494;2.2819976806640625;-9.650726318359375;2.1711883544921875
1445419180696;277.6099853515625;-83.70118713378906;-6.800563812255859;0.869842529296875;-10.5921630859375;1.8377685546875
1445419180732;280.1569519042969;-83.25350952148438;-6.813858509063721;-0.542327880859375;-11.023651123046875;1.4847259521484375
1445419180762;284.9362487792969;-82.48736572265625;-6.842805862426758;-0.228515625;-10.396026611328125;2.4850006103515625
1445419180796;287.15814208984375;-82.35032653808594;-6.893688678741455;1.5170745849609375;-10.180282592773438;0.07257080078125
1445419180832;290.3563537597656;-82.27130889892578;-7.296098709106445;3.439178466796875;-9.572265625;1.6808624267578125
1445419180862;295.66845703125;-82.18222045898438;-8.239505767822266;2.5761871337890625;-10.160659790039062;1.3474273681640625
1445419180895;298.8660583496094;-82.33280944824219;-9.521129608154297;-0.8169097900390625;-10.552932739257812;0.30792236328125
1445419180928;300.1434631347656;-82.9615249633789;-10.082674026489258;-0.5619354248046875;-10.219512939453125;-1.00616455078125
1445419180962;305.1461486816406;-85.54640197753906;-10.885848045349121;1.732818603515625;-10.905975341796875;0.36676025390625
1445419180993;313.727294921875;-89.14022827148438;-11.108256340026855;5.4005126953125;-11.847412109375;2.1123504638671875
1445419181026;319.2706298828125;-91.21036529541016;-11.353224754333496;6.6949920654296875;-10.180282592773438;1.4258880615234375
1445419181059;328.7608642578125;-94.8376235961914;-12.941991806030273;6.5380859375;-8.160110473632812;1.6808624267578125
1445419181093;331.7684020996094;-96.27831268310547;-14.191560745239258;3.498016357421875;-9.670333862304688;1.1120758056640625
1445419181127;334.8215026855469;-98.68333435058594;-16.78313446044922;2.4585113525390625;-9.827239990234375;0.13140869140625
1445419181161;335.30169677734375;-100.15768432617188;-18.916973114013672;1.2817230224609375;-9.748779296875;-1.0257720947265625
1445419181192;335.897705078125;-100.81608581542969;-19.744422912597656;3.1253662109375;-9.00347900390625;-0.77081298828125
1445419181225;337.76641845703125;-102.0174331665039;-21.297245025634766;3.9883575439453125;-8.473922729492188;-0.77081298828125
1445419181258;338.44189453125;-102.30342864990234;-23.194467544555664;4.32177734375;-8.218948364257812;-0.6138916015625
1445419181291;338.5640869140625;-102.3264389038086;-24.175395965576172;3.92950439453125;-8.336624145507812;-0.8492584228515625
1445419181323;338.9807434082031;-102.3740234375;-25.759565353393555;2.6546478271484375;-8.532760620117188;-1.771087646484375
1445419181359;339.36102294921875;-101.98977661132812;-26.521053314208984;2.5369720458984375;-8.395462036132812;-2.14373779296875
1445419181389;339.8324279785156;-101.76216125488281;-26.583614349365234;3.2234344482421875;-8.277786254882812;-2.516387939453125
1445419181423;340.3117980957031;-101.2435302734375;-26.433143615722656;3.2822723388671875;-8.532760620117188;-3.536285400390625
1445419181455;340.3130798339844;-100.99469757080078;-26.207921981811523;3.87066650390625;-8.905410766601562;-4.1246795654296875
1445419181489;340.51361083984375;-100.54998016357422;-25.41794776916504;3.9883575439453125;-8.591598510742188;-4.340423583984375
1445419181521;339.86700439453125;-99.79042053222656;-24.626811981201172;4.517913818359375;-8.473922729492188;-3.7520294189453125
1445419181555;339.7672119140625;-99.48641204833984;-24.29097557067871;5.8123931884765625;-11.043258666992188;-3.202850341796875
1445419181588;339.2291564941406;-99.01936340332031;-23.72512435913086;4.439453125;-11.317855834960938;-2.8105926513671875
1445419181621;339.08843994140625;-98.37901306152344;-22.146547317504883;2.8507843017578125;-7.5913238525390625;1.9946746826171875
1445419181654;340.45697021484375;-97.46343231201172;-21.214479446411133;4.3413848876953125;-9.160385131835938;1.759307861328125
1445419181687;342.43841552734375;-94.43739318847656;-19.860992431640625;3.498016357421875;-10.31756591796875;0.9159393310546875
1445419181719;341.91375732421875;-91.57875061035156;-18.33252716064453;1.164031982421875;-10.376419067382812;0.9747772216796875
1445419181754;341.57415771484375;-90.30535125732422;-17.389408111572266;1.41900634765625;-10.02337646484375;0.935546875
1445419181785;341.0381164550781;-88.12010192871094;-15.83619213104248;1.5955352783203125;-10.25872802734375;0.6021270751953125
1445419181821;341.0285339355469;-87.26428985595703;-15.203947067260742;1.30133056640625;-10.572540283203125;0.504058837890625
1445419181851;340.70123291015625;-85.51486206054688;-13.937019348144531;1.0855865478515625;-10.25872802734375;0.5432891845703125
1445419181885;341.4444885253906;-83.64567565917969;-12.494587898254395;2.0858612060546875;-9.434967041015625;0.9747772216796875
1445419181918;342.5276184082031;-82.65631103515625;-11.982973098754883;2.3996734619140625;-9.278060913085938;1.4062652587890625
1445419181951;343.43896484375;-80.4117202758789;-11.677868843078613;1.9681854248046875;-9.533035278320312;1.1512908935546875
1445419181984;343.8982849121094;-78.0231704711914;-11.808993339538574;1.222869873046875;-9.846847534179688;0.445220947265625
1445419182017;343.8323059082031;-76.99490356445312;-11.915804862976074;1.046356201171875;-10.239120483398438;0.6609649658203125
1445419182050;342.8387756347656;-75.36257934570312;-12.180718421936035;0.8894500732421875;-10.062606811523438;0.9159393310546875
1445419182084;341.6169128417969;-74.0584945678711;-12.421513557434082;1.1444244384765625;-10.042984008789062;1.6024017333984375
1445419182115;341.3980407714844;-73.60491180419922;-12.478228569030762;1.8701171875;-10.180282592773438;1.465118408203125
1445419182148;341.6625061035156;-73.00028228759766;-12.681177139282227;2.67425537109375;-10.454864501953125;1.5435638427734375
1445419182181;342.0369873046875;-72.89934539794922;-12.87869644165039;2.3408355712890625;-11.39630126953125;-0.1039581298828125
1445419182214;341.55712890625;-72.82916259765625;-13.238923072814941;0.6737060546875;-12.690780639648438;0.052947998046875
1445419182247;338.7803039550781;-73.68043518066406;-12.99264907836914;-1.6210479736328125;-13.946029663085938;0.5432891845703125
1445419182281;337.01727294921875;-74.83267211914062;-12.455354690551758;3.51763916015625;-12.435806274414062;-0.692352294921875
1445419182313;334.3829345703125;-79.18876647949219;-12.474125862121582;4.8513336181640625;-10.866744995117188;-0.3981475830078125
1445419182346;333.84393310546875;-85.99806213378906;-13.735377311706543;5.145538330078125;-11.317855834960938;1.26898193359375
1445419182379;333.8897705078125;-89.4491958618164;-14.430654525756836;2.046630859375;-11.16094970703125;3.15185546875
1445419182413;333.3706970214844;-95.02516174316406;-15.181412696838379;1.9485626220703125;-11.062881469726562;2.9361114501953125
1445419182446;333.5220031738281;-99.49299621582031;-15.43702507019043;2.870391845703125;-10.396026611328125;0.876708984375
1445419182478;333.6280822753906;-101.36432647705078;-15.520583152770996;2.8311614990234375;-9.768402099609375;0.5236663818359375
1445419182512;333.3230895996094;-104.61790466308594;-15.271077156066895;2.73309326171875;-8.454315185546875;0.4059906005859375
1445419182544;332.2252197265625;-105.97794342041016;-15.172473907470703;2.4781341552734375;-6.8852386474609375;0.6021270751953125
1445419182578;329.08221435546875;-108.2212142944336;-15.211160659790039;2.8507843017578125;-6.37530517578125;0.7198028564453125
1445419182611;326.3028259277344;-108.97875213623047;-15.531352043151855;3.2822723388671875;-5.3358001708984375;0.6021270751953125
1445419182643;325.3323669433594;-108.80799102783203;-15.699563026428223;3.2822723388671875;-5.610382080078125;-0.3197021484375
1445419182677;324.3918151855469;-107.06108856201172;-15.997937202453613;2.9684600830078125;-6.983306884765625;-0.9865570068359375
1445419182709;323.64434814453125;-103.39947509765625;-15.566727638244629;2.5173492431640625;-11.259017944335938;-5.085723876953125
1445419182743;323.4564208984375;-101.92218780517578;-15.18433952331543;2.360443115234375;-12.043548583984375;-6.9686126708984375
1445419182777;321.8473815917969;-100.9884262084961;-15.041848182678223;2.2231597900390625;-11.16094970703125;-5.419158935546875
1445419182809;319.6408386230469;-101.04943084716797;-15.231996536254883;3.1449737548828125;-9.788009643554688;-1.2415313720703125
1445419182842;319.8801574707031;-101.4268569946289;-15.36667537689209;4.498291015625;-11.984695434570312;-0.4569854736328125
1445419182878;322.72869873046875;-101.32025146484375;-14.699113845825195;5.4201202392578125;-11.670883178710938;-1.888763427734375
1445419182909;326.27313232421875;-100.29695129394531;-13.29908561706543;3.321502685546875;-6.1595458984375;4.485565185546875
1445419182941;328.8604736328125;-99.65503692626953;-12.52417278289795;3.87066650390625;-6.924468994140625;4.152130126953125
1445419182973;333.45257568359375;-95.49115753173828;-11.68842601776123;2.32122802734375;-10.788284301757812;1.6220245361328125
1445419183007;333.5024719238281;-93.17311096191406;-11.609953880310059;-0.895355224609375;-11.062881469726562;0.641357421875
1445419183039;333.37249755859375;-91.41604614257812;-11.172513008117676;-0.1108245849609375;-10.788284301757812;0.4256134033203125
1445419183073;333.0248107910156;-89.23180389404297;-10.587236404418945;0.8502197265625;-10.5333251953125;1.4847259521484375
1445419183106;333.5138854980469;-88.1160659790039;-10.120543479919434;0.8306121826171875;-9.788009643554688;1.4062652587890625
1445419183138;335.2437744140625;-85.80552673339844;-8.972623825073242;2.5369720458984375;-8.964248657226562;0.759033203125
1445419183172;336.6653137207031;-83.52540588378906;-8.868118286132812;3.1645965576171875;-9.160385131835938;1.0532379150390625
1445419183204;337.2685241699219;-82.50431060791016;-9.220895767211914;2.3408355712890625;-9.415359497070312;1.308197021484375
1445419183237;338.4150695800781;-80.4546127319336;-9.960453987121582;1.3209381103515625;-9.650726318359375;1.876983642578125
1445419183271;339.2921447753906;-78.12139129638672;-10.83132266998291;1.2032623291015625;-9.552658081054688;1.6024017333984375
1445419183306;339.4702453613281;-76.82103729248047;-11.333417892456055;1.4582366943359375;-9.886077880859375;0.9159393310546875
1445419183337;339.2882080078125;-74.50211334228516;-12.342989921569824;0.987518310546875;-10.474472045898438;0.994384765625
1445419183370;339.326904296875;-73.74774169921875;-12.715836524963379;1.3209381103515625;-10.729446411132812;1.4847259521484375
1445419183404;339.6204833984375;-72.70760345458984;-13.225341796875;1.5955352783203125;-10.905975341796875;1.6612396240234375
1445419183436;340.3221740722656;-72.1173324584961;-13.86258316040039;2.360443115234375;-10.847137451171875;0.7786407470703125
1445419183469;340.567626953125;-71.92195129394531;-14.12303352355957;0.359893798828125;-12.200454711914062;1.1512908935546875
1445419183501;339.83270263671875;-71.97382354736328;-13.976615905761719;-0.777679443359375;-12.47503662109375;0.896331787109375
1445419183535;338.167236328125;-73.57591247558594;-12.526326179504395;1.8897247314453125;-12.828079223632812;-0.2020263671875
1445419183568;337.6656188964844;-75.0984115600586;-12.016695022583008;3.57647705078125;-11.90625;-0.2608642578125
1445419183601;337.9754333496094;-80.45413208007812;-11.992534637451172;4.7924957275390625;-11.239395141601562;0.4648284912109375
1445419183633;338.368896484375;-86.74893188476562;-12.29008960723877;3.87066650390625;-11.317855834960938;2.386932373046875
1445419183666;338.4732971191406;-89.74291229248047;-12.341570854187012;3.7333831787109375;-11.317855834960938;2.2496490478515625
1445419183700;338.6927795410156;-94.9946517944336;-12.58477783203125;3.2430419921875;-10.807907104492188;1.44549560546875
1445419183733;339.6358947753906;-99.52621459960938;-12.438887596130371;2.301605224609375;-10.121444702148438;0.327545166015625
1445419183765;339.9345703125;-101.50574493408203;-12.290660858154297;2.242767333984375;-9.45458984375;0.641357421875
1445419183799;338.7605895996094;-105.03315734863281;-12.161534309387207;1.8701171875;-8.356246948242188;0.896331787109375
1445419183832;337.0542297363281;-106.38639831542969;-12.301271438598633;2.301605224609375;-6.865631103515625;0.9747772216796875
1445419183865;333.43194580078125;-108.21424102783203;-13.048988342285156;3.1645965576171875;-5.23773193359375;1.014007568359375
1445419183898;331.190673828125;-108.71028137207031;-13.923428535461426;2.7723236083984375;-5.41424560546875;-0.0254974365234375
1445419183930;330.605712890625;-108.0722427368164;-14.27690601348877;1.811279296875;-9.474197387695312;-2.6732940673828125
1445419183964;328.5087890625;-104.9151611328125;-14.61864948272705;1.9093475341796875;-11.612045288085938;-5.3406982421875
1445419183996;326.46099853515625;-102.0479736328125;-14.146784782409668;3.3018798828125;-11.768951416015625;-7.0862884521484375
1445419184029;325.43017578125;-101.48401641845703;-14.098889350891113;3.0861358642578125;-11.16094970703125;-5.67413330078125
1445419184062;321.8116149902344;-101.402099609375;-14.554877281188965;4.0864105224609375;-9.729171752929688;-2.8694305419921875
1445419184095;320.56549072265625;-101.7049789428711;-14.793872833251953;5.086700439453125;-10.239120483398438;-0.3393096923828125
1445419184129;321.65826416015625;-102.56118774414062;-15.021639823913574;5.4593505859375;-9.96453857421875;0.24908447265625
1445419184162;323.8326721191406;-101.94722747802734;-14.749342918395996;3.7922210693359375;-8.571990966796875;2.3084869384765625
1445419184194;324.9892883300781;-101.14702606201172;-14.453384399414062;3.046905517578125;-9.023101806640625;3.7598724365234375
1445419184227;327.974365234375;-97.56838989257812;-13.512735366821289;2.7134857177734375;-9.90570068359375;2.1907958984375
1445419184260;327.1706237792969;-93.94939422607422;-13.733381271362305;1.046356201171875;-10.670608520507812;1.4258880615234375
1445419184294;326.6171875;-92.93946075439453;-13.666135787963867;1.6935882568359375;-9.807632446289062;1.26898193359375
1445419184327;327.04901123046875;-90.5609359741211;-12.764290809631348;2.242767333984375;-9.650726318359375;1.1709136962890625
1445419184360;329.0198974609375;-87.74594116210938;-11.821585655212402;1.5759124755859375;-9.886077880859375;1.26898193359375
1445419184395;330.0543518066406;-86.4360580444336;-11.481634140014648;1.615142822265625;-9.180007934570312;0.07257080078125
1445419184427;330.7878112792969;-84.03707122802734;-11.235711097717285;1.438629150390625;-9.533035278320312;-0.123565673828125
1445419184459;330.878662109375;-83.0705795288086;-11.268096923828125;1.0659637451171875;-10.631378173828125;0.562896728515625
1445419184492;331.71942138671875;-81.55534362792969;-11.186909675598145;1.53668212890625;-10.14105224609375;0.81787109375
1445419184526;332.50128173828125;-80.072265625;-11.389829635620117;2.10546875;-9.238845825195312;1.1120758056640625
1445419184558;332.80889892578125;-79.25997924804688;-11.72783374786377;1.18365478515625;-9.415359497070312;1.50433349609375
1445419184591;333.28692626953125;-77.281494140625;-12.406518936157227;0.7521514892578125;-9.807632446289062;1.38665771484375
1445419184623;333.3581848144531;-75.17759704589844;-12.830413818359375;1.47784423828125;-10.219512939453125;1.1120758056640625
1445419184657;333.29376220703125;-74.44212341308594;-13.00648021697998;1.8897247314453125;-10.807907104492188;1.1709136962890625
1445419184690;333.9315185546875;-73.83720397949219;-13.468696594238281;1.8701171875;-11.082489013671875;0.5432891845703125
1445419184725;334.3103942871094;-73.75137329101562;-13.575265884399414;1.36016845703125;-11.651275634765625;-0.6727447509765625
1445419184756;333.7547607421875;-74.03804016113281;-13.580036163330078;-0.1696624755859375;-12.769241333007812;-0.3785400390625
1445419184789;331.65362548828125;-75.75987243652344;-12.935035705566406;-0.4246368408203125;-13.90679931640625;-0.3981475830078125
1445419184821;329.6974182128906;-80.09855651855469;-12.354393005371094;3.3999481201171875;-11.768951416015625;-0.3981475830078125
1445419184856;329.2954406738281;-83.39940643310547;-12.433646202087402;4.3413848876953125;-11.043258666992188;0.5432891845703125
1445419184888;329.17572021484375;-89.78218841552734;-12.699225425720215;4.3021697998046875;-11.21978759765625;2.386932373046875
1445419184921;329.3748779296875;-92.4776382446289;-12.600354194641113;3.0076904296875;-11.415924072265625;1.641632080078125
1445419184954;330.32830810546875;-97.07772827148438;-12.024076461791992;2.811553955078125;-10.572540283203125;0.7394256591796875
1445419184987;331.76416015625;-100.53783416748047;-11.178760528564453;2.046630859375;-9.160385131835938;0.6021270751953125
1445419185020;331.5570983886719;-101.80963897705078;-10.961662292480469;2.2623748779296875;-7.610931396484375;1.0336151123046875
1445419185053;330.26123046875;-104.76815032958984;-10.985692977905273;2.4585113525390625;-7.1402130126953125;0.621734619140625
1445419185085;327.5349426269531;-107.22429656982422;-11.452614784240723;2.9096221923828125;-6.865631103515625;0.9159393310546875
1445419185121;325.9718017578125;-107.84983825683594;-11.908425331115723;3.1842041015625;-6.120330810546875;0.7198028564453125
1445419185151;323.6880187988281;-108.03141784667969;-12.756616592407227;3.1842041015625;-6.2183990478515625;0.19024658203125
1445419185185;322.73760986328125;-106.37741088867188;-13.034337043762207;2.7723236083984375;-8.1993408203125;-1.496490478515625
1445419185217;322.5797424316406;-104.99314880371094;-12.953442573547363;2.61541748046875;-9.238845825195312;-2.967498779296875
1445419185251;322.4344482421875;-102.29476928710938;-12.418968200683594;1.18365478515625;-11.239395141601562;-5.73297119140625
1445419185284;322.01611328125;-101.35313415527344;-12.026497840881348;1.8308868408203125;-11.51397705078125;-5.1053466796875
1445419185317;319.8560791015625;-100.31080627441406;-11.225738525390625;2.43890380859375;-10.670608520507812;-4.6934661865234375
1445419185349;318.33782958984375;-100.68017578125;-10.946476936340332;3.1842041015625;-8.2581787109375;-2.5556182861328125
1445419185383;317.96954345703125;-101.0422134399414;-11.183837890625;5.9300689697265625;-13.239959716796875;-0.82965087890625
1445419185416;318.6328430175781;-100.60945892333984;-12.039828300476074;5.890838623046875;-12.553482055664062;-1.06500244140625
1445419185448;321.3208923339844;-100.19664764404297;-12.009247779846191;3.6745452880859375;-7.552093505859375;2.1711883544921875
1445419185481;323.02838134765625;-99.73174285888672;-11.68614673614502;3.63531494140625;-7.7874603271484375;3.77947998046875
1445419185514;326.6221618652344;-95.76097106933594;-11.335421562194824;3.439178466796875;-10.415634155273438;2.2300262451171875
1445419185548;326.9282531738281;-91.87799072265625;-11.404661178588867;0.6737060546875;-10.8863525390625;1.7397003173828125
1445419185581;327.295654296875;-90.9851303100586;-11.111846923828125;0.7129364013671875;-10.278350830078125;1.523956298828125
1445419185614;328.793701171875;-88.81495666503906;-10.16260051727295;2.870391845703125;-9.96453857421875;0.8571014404296875
1445419185647;331.19586181640625;-86.60440826416016;-9.34520149230957;2.2035369873046875;-10.376419067382812;1.014007568359375
1445419185680;332.5124816894531;-85.94188690185547;-8.926436424255371;2.183929443359375;-10.121444702148438;1.308197021484375
1445419185713;336.1966552734375;-85.15074157714844;-8.21054458618164;2.5958099365234375;-9.591873168945312;1.9554443359375
1445419185747;340.6596374511719;-84.45013427734375;-7.842248439788818;2.9096221923828125;-9.493820190429688;3.0537872314453125
1445419185779;342.8475646972656;-83.99812316894531;-7.816263198852539;2.6546478271484375;-9.434967041015625;3.0341796875
1445419185812;347.2462158203125;-83.06144714355469;-8.127504348754883;2.164306640625;-9.90570068359375;2.896881103515625
1445419185848;352.0767822265625;-82.36734771728516;-8.714424133300781;2.1446990966796875;-10.08221435546875;2.2496490478515625
1445419185877;354.85687255859375;-82.16474914550781;-9.035049438476562;2.3408355712890625;-9.846847534179688;2.2300262451171875
1445419185912;357.81280517578125;-82.08879852294922;-9.356941223144531;1.5955352783203125;-9.238845825195312;3.15185546875
1445419185944;4.042816162109375;-82.08409118652344;-9.777240753173828;-0.777679443359375;-10.6510009765625;2.1319580078125
1445419185976;11.5008544921875;-82.38614654541016;-10.002985000610352;-0.8169097900390625;-10.9451904296875;1.249359130859375
1445419186009;15.249481201171875;-82.69120025634766;-10.07846450805664;1.791656494140625;-12.141616821289062;1.190521240234375
1445419186049;22.37322998046875;-84.16253662109375;-10.569500923156738;6.400787353515625;-10.101821899414062;1.21014404296875
1445419186077;31.95257568359375;-87.66101837158203;-12.42224407196045;8.754379272460938;-8.709274291992188;2.1319580078125
1445419186111;42.04815673828125;-91.13630676269531;-14.506538391113281;8.322891235351562;-8.76812744140625;2.5438385009765625
1445419186142;46.588409423828125;-92.48614501953125;-15.820467948913574;4.8513336181640625;-10.121444702148438;2.0731201171875
1445419186176;53.478790283203125;-94.48973846435547;-18.06330108642578;-2.0133209228515625;-11.043258666992188;1.9554443359375
1445419186209;56.36077880859375;-95.31127166748047;-18.589820861816406;-1.287628173828125;-10.003753662109375;1.4258880615234375
1445419186241;61.97454833984375;-96.21674346923828;-19.335729598999023;1.850494384765625;-7.9639739990234375;-0.005889892578125
1445419186275;66.30099487304688;-96.20436096191406;-20.864830017089844;4.184478759765625;-8.179718017578125;-1.2219085693359375
1445419186309;67.962158203125;-96.05998229980469;-21.924015045166016;4.6551971435546875;-8.670059204101562;-1.0257720947265625
1445419186341;71.21630859375;-96.07872009277344;-24.040081024169922;3.75299072265625;-9.278060913085938;-0.2608642578125
1445419186373;76.6771240234375;-96.80738830566406;-25.035533905029297;3.949127197265625;-8.88580322265625;-0.3393096923828125
1445419186406;79.655029296875;-97.16710662841797;-25.369802474975586;3.556854248046875;-8.807342529296875;-0.2804718017578125
1445419186439;85.23019409179688;-97.64138793945312;-25.87194061279297;2.066253662109375;-8.964248657226562;-1.261138916015625
1445419186472;87.87567138671875;-97.74739837646484;-25.90489959716797;2.1446990966796875;-8.925033569335938;-2.1241302490234375
1445419186505;93.5125732421875;-98.00955200195312;-25.513317108154297;2.5173492431640625;-8.905410766601562;-2.4771575927734375
1445419186539;98.50579833984375;-97.86441802978516;-24.78436279296875;2.5173492431640625;-8.787734985351562;-2.5556182861328125
1445419186573;100.56149291992188;-97.4652328491211;-24.208423614501953;2.9096221923828125;-9.611495971679688;-2.1241302490234375
1445419186604;104.01516723632812;-95.56387329101562;-22.848955154418945;4.4198455810546875;-11.33746337890625;-2.6144561767578125
1445419186636;107.14059448242188;-93.1358413696289;-21.80791664123535;4.1060333251953125;-11.180557250976562;-4.222747802734375
1445419186669;108.91343688964844;-92.7830581665039;-21.157936096191406;3.439178466796875;-8.983871459960938;-0.88848876953125
1445419186702;110.909423828125;-91.56786346435547;-19.870399475097656;4.498291015625;-7.9639739990234375;1.7397003173828125
1445419186736;111.70767211914062;-90.37850952148438;-19.394615173339844;1.53668212890625;-10.376419067382812;1.818145751953125
1445419186768;114.00921630859375;-88.44673156738281;-18.030778884887695;1.3209381103515625;-10.847137451171875;1.6808624267578125
1445419186802;115.70668029785156;-86.54826354980469;-16.389984130859375;0.8502197265625;-10.337188720703125;1.6220245361328125
1445419186835;116.14340209960938;-85.75141906738281;-15.630200386047363;-0.1892852783203125;-10.631378173828125;1.8377685546875
1445419186867;117.9432373046875;-84.38214111328125;-14.000396728515625;0.242218017578125;-10.807907104492188;1.4062652587890625
1445419186900;121.62689208984375;-82.9752197265625;-12.427543640136719;1.36016845703125;-10.297958374023438;1.131683349609375
1445419186933;123.2410888671875;-82.3012466430664;-11.836709022521973;3.1253662109375;-9.376129150390625;0.7198028564453125
1445419186967;125.42535400390625;-80.79268646240234;-11.457293510437012;2.419281005859375;-9.356521606445312;0.994384765625
1445419186999;127.94741821289062;-79.50789642333984;-11.44155216217041;0.8894500732421875;-10.042984008789062;0.876708984375
1445419187033;129.5069580078125;-78.9168930053711;-11.405981063842773;1.222869873046875;-9.631103515625;0.504058837890625
1445419187066;131.7985382080078;-77.63717651367188;-11.509777069091797;1.0659637451171875;-9.68994140625;0.81787109375
1445419187099;132.98992919921875;-76.26515197753906;-11.855111122131348;1.12481689453125;-9.807632446289062;1.0924530029296875
1445419187132;133.73233032226562;-75.66741180419922;-11.97351360321045;1.2032623291015625;-10.062606811523438;1.072845458984375
1445419187164;136.19979858398438;-74.85395812988281;-12.23809814453125;1.2817230224609375;-10.180282592773438;1.7789306640625
1445419187197;137.93312072753906;-74.63371276855469;-12.54063606262207;1.30133056640625;-10.415634155273438;1.308197021484375
1445419187231;141.58673095703125;-74.28582000732422;-13.537878036499023;0.9482879638671875;-12.02392578125;1.6612396240234375
1445419187264;144.2331085205078;-74.05018615722656;-13.898358345031738;0.6148681640625;-13.436080932617188;-0.1627960205078125
1445419187296;144.8335418701172;-74.21794128417969;-13.491257667541504;2.3996734619140625;-12.906524658203125;-1.9868316650390625
1445419187329;145.83067321777344;-76.23084259033203;-12.759378433227539;3.2430419921875;-12.828079223632812;-1.7318572998046875
1445419187362;147.19476318359375;-80.91885375976562;-12.91171932220459;4.517913818359375;-11.631668090820312;-0.4373779296875
1445419187397;148.37384033203125;-84.23719787597656;-13.243521690368652;5.5770263671875;-11.200164794921875;0.935546875
1445419187429;150.8866729736328;-91.2931137084961;-13.743474960327148;4.694427490234375;-9.886077880859375;3.1126251220703125
1445419187461;151.628173828125;-93.66909790039062;-14.166553497314453;2.301605224609375;-9.886077880859375;0.680572509765625
1445419187495;153.27508544921875;-97.52713775634766;-14.676721572875977;0.987518310546875;-10.180282592773438;0.0333404541015625
1445419187528;154.0769500732422;-100.81949615478516;-14.067870140075684;1.2817230224609375;-8.983871459960938;0.641357421875
1445419187563;153.71200561523438;-102.14446258544922;-13.960479736328125;1.7720489501953125;-7.86590576171875;0.896331787109375
1445419187594;151.8143768310547;-104.96631622314453;-14.01227855682373;2.8899993896484375;-6.4537506103515625;0.504058837890625
1445419187628;149.7064666748047;-106.36084747314453;-14.152909278869629;3.439178466796875;-6.61065673828125;0.13140869140625
1445419187661;147.93653869628906;-105.91422271728516;-14.16390609741211;3.1449737548828125;-6.414520263671875;-0.123565673828125
1445419187692;147.24668884277344;-105.13333129882812;-14.06198501586914;2.635040283203125;-7.1009979248046875;-0.574676513671875
1445419187725;146.14010620117188;-102.23223114013672;-13.636109352111816;1.6347503662109375;-9.886077880859375;-3.3793792724609375
1445419187758;146.25942993164062;-100.72425079345703;-13.273561477661133;1.6935882568359375;-12.494644165039062;-7.870819091796875
1445419187794;146.062744140625;-99.27607727050781;-12.968276023864746;2.2231597900390625;-12.29852294921875;-6.8901519775390625
1445419187825;143.57760620117188;-99.92803192138672;-13.033187866210938;3.6549224853515625;-10.31756591796875;-3.1047821044921875
1445419187858;142.90878295898438;-100.67405700683594;-13.046305656433105;4.459075927734375;-9.376129150390625;0.1510162353515625
1445419187891;143.35704040527344;-101.825927734375;-12.924915313720703;5.4593505859375;-8.76812744140625;0.19024658203125
1445419187923;143.75927734375;-101.19661712646484;-12.876984596252441;4.6159820556640625;-8.728897094726562;1.700469970703125
1445419187965;146.25701904296875;-97.07172393798828;-12.124713897705078;3.0861358642578125;-9.140777587890625;2.6222991943359375
1445419187992;147.3709259033203;-94.88040161132812;-11.948019981384277;2.1446990966796875;-10.297958374023438;1.4258880615234375
1445419188023;147.4987030029297;-93.090087890625;-11.944438934326172;-0.640380859375;-10.749069213867188;0.935546875
1445419188056;146.90402221679688;-91.2184066772461;-11.774293899536133;-0.4246368408203125;-10.494094848632812;0.876708984375
1445419188088;147.50563049316406;-89.14320373535156;-10.933645248413086;1.5170745849609375;-10.160659790039062;1.4062652587890625
1445419188123;147.9466552734375;-88.02472686767578;-10.463521957397461;2.2231597900390625;-9.238845825195312;0.6021270751953125
1445419188154;148.9717254638672;-85.66776275634766;-9.733716011047363;2.9096221923828125;-8.925033569335938;0.30792236328125
1445419188188;149.6421356201172;-83.45089721679688;-9.919869422912598;1.9681854248046875;-9.45458984375;0.58251953125
1445419188224;150.32342529296875;-82.44042205810547;-10.182988166809082;1.18365478515625;-9.827239990234375;1.0336151123046875
1445419188253;151.8330841064453;-80.44868469238281;-10.561639785766602;1.4582366943359375;-9.807632446289062;0.7786407470703125
1445419188287;152.41488647460938;-79.45838165283203;-10.793587684631348;1.0071258544921875;-10.08221435546875;1.21014404296875
1445419188319;153.80360412597656;-77.57637786865234;-11.544380187988281;1.12481689453125;-10.31756591796875;1.2885894775390625
1445419188353;155.7479248046875;-75.92859649658203;-12.307180404663086;1.928955078125;-10.572540283203125;0.8374786376953125
1445419188386;156.88885498046875;-75.37006378173828;-12.6491060256958;0.8894500732421875;-11.082489013671875;0.36676025390625
1445419188419;160.1996307373047;-75.01616668701172;-13.415742874145508;1.0071258544921875;-11.082489013671875;-0.515838623046875
1445419188452;163.38858032226562;-75.31692504882812;-13.99804401397705;0.7521514892578125;-12.063156127929688;-0.6531219482421875
1445419188485;164.9685821533203;-75.7944564819336;-14.303017616271973;-0.1892852783203125;-13.514541625976562;-0.5942840576171875
1445419188518;166.45721435546875;-78.19334411621094;-14.310075759887695;1.4582366943359375;-13.49493408203125;-0.633514404296875
1445419188551;166.20179748535156;-83.37743377685547;-14.166711807250977;3.81182861328125;-11.474761962890625;0.4844512939453125
1445419188583;165.8343505859375;-86.56575012207031;-14.247404098510742;4.066802978515625;-11.357070922851562;1.4847259521484375
1445419188616;165.7621612548828;-92.49812316894531;-14.521683692932129;2.419281005859375;-11.474761962890625;2.4850006103515625
1445419188649;167.37054443359375;-97.24646759033203;-14.127138137817383;1.9093475341796875;-11.121719360351562;0.876708984375
1445419188682;168.22654724121094;-99.21214294433594;-13.607027053833008;2.1446990966796875;-10.180282592773438;0.759033203125
1445419188716;169.52890014648438;-101.9008560180664;-12.389876365661621;1.6543731689453125;-8.689666748046875;0.9747772216796875
1445419188748;168.25656127929688;-103.80183410644531;-11.960362434387207;1.75244140625;-7.9639739990234375;1.2297515869140625
1445419188782;167.07359313964844;-104.98462677001953;-11.800236701965332;2.5761871337890625;-7.7874603271484375;0.935546875
1445419188816;163.45509338378906;-106.31842803955078;-11.795730590820312;3.4587860107421875;-7.0813751220703125;1.0532379150390625
1445419188851;161.4584197998047;-106.47320556640625;-12.09308910369873;3.2430419921875;-6.355682373046875;0.7394256591796875
1445419188881;158.14315795898438;-105.38461303710938;-12.778879165649414;3.0076904296875;-6.7087249755859375;0.1510162353515625
1445419188914;156.76077270507812;-102.9449234008789;-12.972182273864746;3.1253662109375;-9.180007934570312;-2.7909698486328125
1445419188947;157.25352478027344;-101.62577056884766;-12.856496810913086;1.3797760009765625;-11.474761962890625;-5.654510498046875
1445419188979;158.1397247314453;-100.14958190917969;-12.622373580932617;0.8306121826171875;-11.847412109375;-4.0070037841796875
1445419189012;157.70095825195312;-99.94387817382812;-12.001314163208008;1.497467041015625;-10.454864501953125;-3.595123291015625
1445419189045;157.56307983398438;-100.18496704101562;-11.65272045135498;1.5759124755859375;-9.513427734375;-3.85009765625
1445419189079;157.01766967773438;-100.68046569824219;-11.099539756774902;2.752716064453125;-10.9451904296875;-0.868865966796875
1445419189111;156.8604278564453;-100.37684631347656;-10.966863632202148;5.6947021484375;-11.572830200195312;-1.437652587890625
1445419189146;158.13209533691406;-99.53294372558594;-10.735687255859375;5.3612823486328125;-10.31756591796875;-1.319976806640625
1445419189177;157.93495178222656;-97.99056243896484;-9.8050537109375;3.262664794921875;-8.670059204101562;3.210693359375
1445419189210;158.50466918945312;-95.73291015625;-9.295220375061035;0.6148681640625;-11.572830200195312;1.38665771484375
1445419189245;160.8634796142578;-92.02342224121094;-9.190281867980957;-0.718841552734375;-10.964813232421875;1.0532379150390625
1445419189276;161.2694854736328;-90.92539978027344;-9.088719367980957;1.7132110595703125;-9.807632446289062;1.818145751953125
1445419189311;161.8519744873047;-89.86542510986328;-8.696333885192871;2.066253662109375;-9.925308227539062;1.26898193359375
1445419189343;163.92758178710938;-87.28034210205078;-7.92913818359375;1.7720489501953125;-9.68994140625;0.9159393310546875
1445419189376;167.26434326171875;-85.08674621582031;-7.780010223388672;1.3993988037109375;-9.552658081054688;0.562896728515625
1445419189409;168.89675903320312;-84.25322723388672;-7.819413185119629;1.12481689453125;-9.807632446289062;0.9159393310546875
1445419189445;172.41395568847656;-82.64038848876953;-8.109261512756348;0.8502197265625;-9.807632446289062;1.131683349609375
1445419189474;173.97496032714844;-81.86038208007812;-8.288016319274902;1.2032623291015625;-9.729171752929688;1.014007568359375
1445419189509;176.33575439453125;-80.3819808959961;-8.718152046203613;1.6543731689453125;-9.944915771484375;0.994384765625
1445419189542;179.10243225097656;-78.99087524414062;-9.444911003112793;1.36016845703125;-10.062606811523438;1.38665771484375
1445419189573;180.89288330078125;-78.23678588867188;-9.886549949645996;1.105194091796875;-9.925308227539062;1.7789306640625
1445419189607;184.42626953125;-76.75603485107422;-10.628715515136719;1.164031982421875;-10.19989013671875;1.50433349609375
1445419189639;187.67181396484375;-75.17713165283203;-11.40208911895752;1.0071258544921875;-10.572540283203125;0.8571014404296875
1445419189672;189.39892578125;-74.48922729492188;-11.824851989746094;0.8502197265625;-11.474761962890625;0.2686920166015625
1445419189705;193.08453369140625;-73.47411346435547;-12.387411117553711;-0.2481231689453125;-12.671173095703125;0.4059906005859375
1445419189739;194.8056640625;-73.81712341308594;-11.641491889953613;0.9678955078125;-13.49493408203125;-0.4373779296875
1445419189772;194.40631103515625;-74.67848205566406;-11.12902545928955;3.87066650390625;-11.729736328125;-1.574951171875
1445419189804;193.8880615234375;-78.36506652832031;-10.814545631408691;3.890289306640625;-10.7098388671875;-1.18267822265625
1445419189838;195.23187255859375;-84.28815460205078;-10.933755874633789;4.2825469970703125;-11.298233032226562;0.7982635498046875
1445419189871;195.750732421875;-87.3908462524414;-10.981396675109863;4.125640869140625;-11.317855834960938;2.092742919921875
1445419189904;197.71563720703125;-92.71154022216797;-11.196932792663574;3.3999481201171875;-11.141326904296875;1.523956298828125
1445419189936;198.97308349609375;-94.93180084228516;-11.409370422363281;2.49774169921875;-10.376419067382812;0.58251953125
1445419189969;201.75799560546875;-98.82592010498047;-11.495397567749023;2.5958099365234375;-9.96453857421875;0.4256134033203125
1445419190003;203.66558837890625;-102.06118774414062;-11.700675964355469;2.3408355712890625;-8.1405029296875;1.308197021484375
1445419190036;203.9053955078125;-103.4588394165039;-11.905770301818848;2.870391845703125;-7.12060546875;1.38665771484375
1445419190069;203.00018310546875;-105.25737762451172;-12.492412567138672;3.262664794921875;-6.473358154296875;1.4847259521484375
1445419190102;201.5289306640625;-105.36214447021484;-13.217455863952637;3.5372467041015625;-5.9438018798828125;1.0924530029296875
1445419190135;201.0406494140625;-104.77802276611328;-13.615889549255371;3.0272979736328125;-8.042434692382812;0.5432891845703125
1445419190168;200.4412841796875;-101.90520477294922;-13.895216941833496;2.67425537109375;-8.82696533203125;0.2098541259765625
1445419190200;202.27880859375;-99.69022369384766;-12.881465911865234;3.2822723388671875;-10.6510009765625;-5.1249542236328125
1445419190236;202.8089599609375;-99.1070785522461;-12.759305000305176;3.0076904296875;-10.494094848632812;-3.6147308349609375
1445419190266;202.69183349609375;-97.82544708251953;-12.705273628234863;2.55657958984375;-10.14105224609375;-3.3205413818359375
1445419190299;202.50469970703125;-97.48535919189453;-12.56558895111084;3.4784088134765625;-10.494094848632812;-2.8302001953125
1445419190333;202.576904296875;-97.89276885986328;-12.606245040893555;4.71405029296875;-12.886917114257812;-2.516387939453125
1445419190366;204.06280517578125;-98.1417236328125;-12.622275352478027;4.125640869140625;-10.670608520507812;-0.5354461669921875
1445419190399;205.24481201171875;-98.08695220947266;-12.16927719116211;3.556854248046875;-7.1402130126953125;2.75958251953125
1445419190432;207.81719970703125;-97.08108520507812;-10.739398002624512;4.243316650390625;-8.179718017578125;2.4850006103515625
1445419190465;211.16278076171875;-94.11961364746094;-10.111024856567383;2.7134857177734375;-10.19989013671875;2.0338897705078125
1445419190498;213.64312744140625;-92.99678039550781;-10.086374282836914;1.3797760009765625;-10.415634155273438;2.1319580078125
1445419190531;219.92572021484375;-91.32691955566406;-9.366490364074707;1.5759124755859375;-10.396026611328125;1.6612396240234375
1445419190563;225.80233764648438;-89.1395034790039;-8.21276569366455;2.3408355712890625;-10.042984008789062;2.1123504638671875
1445419190597;228.28997802734375;-88.12859344482422;-7.780699729919434;2.3996734619140625;-9.846847534179688;1.9946746826171875
1445419190629;233.38275146484375;-86.52527618408203;-7.331883430480957;2.929229736328125;-9.219223022460938;1.759307861328125
1445419190662;236.60086059570312;-85.92170715332031;-7.4431610107421875;2.32122802734375;-9.886077880859375;2.1907958984375
1445419190696;244.96533203125;-85.1083984375;-7.961670875549316;1.3209381103515625;-10.121444702148438;2.70074462890625
1445419190729;253.77536010742188;-84.15441131591797;-8.168907165527344;0.418731689453125;-10.572540283203125;2.1123504638671875
1445419190763;259.07415771484375;-83.14656829833984;-8.455011367797852;0.6933135986328125;-10.474472045898438;0.8571014404296875
1445419190795;260.87744140625;-82.77745056152344;-8.743207931518555;0.7129364013671875;-10.356796264648438;0.641357421875
1445419190828;264.67926025390625;-82.28296661376953;-9.286465644836426;1.47784423828125;-10.121444702148438;0.7001953125
1445419190861;267.0838623046875;-82.17501831054688;-9.578911781311035;1.9093475341796875;-9.886077880859375;1.2297515869140625
1445419190894;272.7560729980469;-82.33565521240234;-10.399368286132812;1.1444244384765625;-9.944915771484375;1.2885894775390625
1445419190927;278.4419250488281;-83.08429718017578;-11.612462997436523;-0.3854217529296875;-10.239120483398438;0.876708984375
1445419190960;280.8205261230469;-83.62955474853516;-12.22072982788086;0.6933135986328125;-10.25872802734375;1.0924530029296875
1445419190993;284.6323547363281;-85.0500717163086;-13.494423866271973;1.791656494140625;-10.631378173828125;1.759307861328125
1445419191026;289.7400817871094;-86.77881622314453;-14.837353706359863;5.4005126953125;-10.494094848632812;2.1711883544921875
1445419191060;293.00604248046875;-87.67044830322266;-15.56468677520752;5.8712310791015625;-9.376129150390625;1.759307861328125
1445419191092;300.5852355957031;-89.33958435058594;-16.84197425842285;4.9297943115234375;-8.866195678710938;1.818145751953125
1445419191125;304.1256103515625;-90.047607421875;-17.498817443847656;3.5960845947265625;-8.905410766601562;1.4847259521484375
1445419191163;309.55572509765625;-91.06199645996094;-18.717517852783203;3.5960845947265625;-9.729171752929688;0.4844512939453125
1445419191193;314.7700500488281;-92.00505828857422;-19.541587829589844;3.63531494140625;-9.90570068359375;-0.2608642578125
1445419191231;317.6701354980469;-92.89926147460938;-20.50691032409668;2.242767333984375;-10.062606811523438;-1.5945587158203125
1445419191256;318.54913330078125;-93.43800354003906;-20.835330963134766;1.8897247314453125;-9.846847534179688;-1.3984375
1445419191293;320.7039489746094;-94.25804138183594;-21.467309951782227;3.51763916015625;-8.3170166015625;0.111785888671875
1445419191323;321.9140930175781;-94.58700561523438;-21.863479614257812;4.498291015625;-8.630828857421875;-0.4766082763671875
1445419191355;323.6817321777344;-95.03309631347656;-22.8266658782959;4.4002227783203125;-8.866195678710938;-0.810028076171875
1445419191389;325.2251281738281;-95.23445892333984;-23.644731521606445;4.32177734375;-8.748504638671875;-0.810028076171875
1445419191421;326.4701232910156;-95.3703384399414;-23.892436981201172;4.262939453125;-8.5523681640625;-0.574676513671875
1445419191454;329.3888244628906;-95.69358825683594;-24.21312713623047;4.0275726318359375;-8.395462036132812;-0.751190185546875
1445419191488;330.74688720703125;-95.77561950683594;-24.326648712158203;3.7725982666015625;-8.356246948242188;-0.9865570068359375
1445419191520;333.039794921875;-95.75764465332031;-24.37759780883789;3.75299072265625;-8.336624145507812;-1.084625244140625
1445419191554;335.6415100097656;-95.85738372802734;-23.947067260742188;3.69415283203125;-8.591598510742188;-1.75146484375
1445419191588;336.7122497558594;-95.7850341796875;-23.59166145324707;3.2822723388671875;-9.219223022460938;-2.4771575927734375
1445419191619;338.01983642578125;-95.25352478027344;-22.61244010925293;3.63531494140625;-10.297958374023438;-3.3205413818359375
1445419191652;338.4418029785156;-94.53865051269531;-21.22296714782715;3.5372467041015625;-11.435531616210938;-3.3793792724609375
1445419191686;338.7509460449219;-94.31019592285156;-20.460865020751953;3.9687347412109375;-7.92474365234375;1.641632080078125
1445419191719;341.5813903808594;-93.84442138671875;-18.74723243713379;5.322052001953125;-7.35595703125;2.0142822265625
1445419191751;341.626953125;-91.05536651611328;-17.79290771484375;1.8897247314453125;-11.51397705078125;0.9747772216796875
1445419191785;341.239013671875;-89.87132263183594;-17.375633239746094;0.242218017578125;-10.925582885742188;1.1120758056640625
1445419191822;340.8509521484375;-88.51124572753906;-16.16499900817871;-0.405029296875;-10.180282592773438;1.5435638427734375
1445419191851;340.8750915527344;-86.98095703125;-14.118428230285645;0.8502197265625;-10.572540283203125;1.44549560546875
1445419191883;341.588623046875;-86.16741180419922;-13.211711883544922;1.791656494140625;-10.494094848632812;1.1512908935546875
1445419191917;342.61151123046875;-84.2788314819336;-11.994466781616211;1.6935882568359375;-9.846847534179688;0.7786407470703125
1445419191949;342.7451171875;-83.58963775634766;-11.607839584350586;1.164031982421875;-9.68994140625;0.8374786376953125
1445419191983;343.5896911621094;-82.49456024169922;-10.982379913330078;0.9678955078125;-9.68994140625;1.1709136962890625
1445419192016;343.73883056640625;-81.1241455078125;-10.324153900146484;0.6344757080078125;-10.08221435546875;1.4258880615234375
1445419192048;343.82476806640625;-80.39044952392578;-10.027753829956055;0.6148681640625;-9.984146118164062;1.2885894775390625
1445419192082;344.55126953125;-78.8942642211914;-9.588629722595215;1.30133056640625;-9.886077880859375;0.8571014404296875
1445419192115;344.76708984375;-77.15547180175781;-9.64254093170166;1.928955078125;-9.866470336914062;0.36676025390625
1445419192147;344.58203125;-76.44422912597656;-9.895031929016113;1.30133056640625;-10.062606811523438;0.9159393310546875
1445419192180;344.1448974609375;-75.42797088623047;-10.258755683898926;0.7521514892578125;-10.180282592773438;1.38665771484375
1445419192214;344.14837646484375;-74.61663055419922;-10.427607536315918;1.791656494140625;-10.02337646484375;0.680572509765625
1445419192247;344.4922180175781;-74.23246765136719;-10.63359546661377;2.183929443359375;-10.19989013671875;0.8571014404296875
1445419192279;344.85418701171875;-73.57649993896484;-11.338168144226074;1.615142822265625;-10.729446411132812;0.562896728515625
1445419192314;344.6745300292969;-73.38579559326172;-11.707651138305664;-0.34619140625;-12.671173095703125;0.7001953125
1445419192354;342.2572021484375;-74.27136993408203;-11.068302154541016;2.3408355712890625;-13.0438232421875;-1.0257720947265625
1445419192378;341.2330627441406;-75.44805145263672;-10.491744995117188;4.380615234375;-11.925857543945312;-2.006439208984375
1445419192411;340.533203125;-77.16971588134766;-10.427356719970703;5.596649169921875;-10.7686767578125;-0.1039581298828125
1445419192444;341.2361145019531;-83.24349212646484;-11.85997200012207;4.6748199462890625;-11.474761962890625;1.8966064453125
1445419192478;341.2799987792969;-89.23550415039062;-13.188689231872559;0.5756378173828125;-11.16094970703125;3.4264373779296875
1445419192510;341.3307800292969;-91.56660461425781;-13.3212890625;0.5560302734375;-10.866744995117188;2.3673248291015625
1445419192544;341.76788330078125;-95.07559967041016;-13.113306999206543;1.850494384765625;-10.14105224609375;0.935546875
1445419192577;341.0227966308594;-97.57511138916016;-13.253456115722656;2.1446990966796875;-8.748504638671875;0.2883148193359375
1445419192610;340.09033203125;-98.6059341430664;-13.346129417419434;2.0074005126953125;-8.1405029296875;0.504058837890625
1445419192650;337.9491271972656;-100.9117431640625;-13.393328666687012;2.55657958984375;-7.5324859619140625;0.386383056640625
1445419192677;336.7918395996094;-101.74430084228516;-13.389596939086914;2.811553955078125;-7.3363494873046875;0.2883148193359375
1445419192708;334.4298400878906;-102.55301666259766;-13.535931587219238;2.7919464111328125;-7.179443359375;0.111785888671875
1445419192742;331.6725158691406;-102.25931549072266;-14.049769401550293;2.9096221923828125;-7.2775115966796875;-0.3981475830078125
1445419192774;330.100341796875;-101.62187194824219;-14.345914840698242;2.10546875;-8.670059204101562;-2.3006439208984375
1445419192808;327.71295166015625;-99.76664733886719;-14.773755073547363;1.5955352783203125;-9.846847534179688;-4.026611328125
1445419192842;325.9700012207031;-98.62491607666016;-14.981587409973145;2.10546875;-10.807907104492188;-4.47772216796875
1445419192878;323.37054443359375;-98.80107879638672;-15.107192993164062;2.635040283203125;-9.96453857421875;-3.3793792724609375
1445419192906;322.4705810546875;-99.30462646484375;-14.993843078613281;3.1253662109375;-9.180007934570312;-3.2420806884765625
1445419192939;322.3709411621094;-100.00999450683594;-14.93298625946045;5.4201202392578125;-12.435806274414062;-2.634063720703125
1445419192973;322.63568115234375;-101.03080749511719;-15.045207023620605;2.929229736328125;-10.729446411132812;-0.4569854736328125
1445419193005;323.2583923339844;-102.22848510742188;-14.312084197998047;3.0076904296875;-7.57171630859375;2.0731201171875
1445419193039;328.0378723144531;-101.50861358642578;-12.96001148223877;4.83172607421875;-7.7678375244140625;3.524505615234375
1445419193072;331.6197204589844;-99.56181335449219;-12.666065216064453;4.9297943115234375;-9.866470336914062;2.3673248291015625
1445419193105;334.27813720703125;-94.81182861328125;-12.19636058807373;1.53668212890625;-11.023651123046875;1.7789306640625
1445419193139;334.4736633300781;-93.5120620727539;-11.88653564453125;-0.5030975341796875;-10.25872802734375;1.700469970703125
1445419193171;334.3919677734375;-91.31438446044922;-11.260455131530762;0.7913818359375;-10.062606811523438;1.0336151123046875
1445419193205;334.89654541015625;-88.85680389404297;-10.575055122375488;1.164031982421875;-10.866744995117188;0.621734619140625
1445419193237;335.0173034667969;-87.62159729003906;-10.158259391784668;0.6344757080078125;-9.944915771484375;1.131683349609375
1445419193269;336.2591857910156;-85.5203857421875;-9.149250030517578;1.18365478515625;-9.376129150390625;0.935546875
1445419193303;337.02142333984375;-84.59351348876953;-8.820634841918945;2.55657958984375;-9.317291259765625;0.445220947265625
1445419193336;337.7139892578125;-82.83602905273438;-8.793773651123047;1.8308868408203125;-9.827239990234375;0.562896728515625
1445419193369;338.510986328125;-81.24541473388672;-8.951726913452148;0.8894500732421875;-9.984146118164062;1.4258880615234375
1445419193402;338.99932861328125;-80.41156005859375;-9.043549537658691;2.0074005126953125;-9.807632446289062;0.7982635498046875
1445419193436;339.6689453125;-78.69915008544922;-9.58591365814209;1.8701171875;-9.866470336914062;0.6609649658203125
1445419193467;339.8882141113281;-77.01632690429688;-10.30318832397461;0.7325439453125;-10.062606811523438;1.2885894775390625
1445419193501;340.07781982421875;-76.21846008300781;-10.652039527893066;0.7913818359375;-10.572540283203125;1.3670501708984375
1445419193534;340.80352783203125;-74.99824523925781;-11.099627494812012;1.222869873046875;-10.7686767578125;1.1512908935546875
1445419193566;342.1572570800781;-74.15219116210938;-11.630372047424316;2.10546875;-11.121719360351562;-0.123565673828125
1445419193600;342.708251953125;-73.89115142822266;-11.958012580871582;-0.85614013671875;-13.1026611328125;0.7786407470703125
1445419193633;342.8016662597656;-73.90164947509766;-12.258695602416992;-1.20916748046875;-13.475311279296875;0.13140869140625
1445419193666;342.1455078125;-74.44950103759766;-11.832416534423828;3.321502685546875;-12.788848876953125;-1.5357208251953125
1445419193699;341.1799011230469;-77.30886840820312;-11.19837760925293;4.5375213623046875;-11.16094970703125;-0.4373779296875
1445419193731;342.0811767578125;-83.47457122802734;-11.763893127441406;4.498291015625;-11.45513916015625;1.38665771484375
1445419193764;342.3532409667969;-86.64136505126953;-12.169205665588379;2.4781341552734375;-11.357070922851562;2.720367431640625
1445419193799;342.563720703125;-92.22175598144531;-12.724456787109375;2.7134857177734375;-11.023651123046875;2.386932373046875
1445419193830;342.83416748046875;-96.80168914794922;-12.938889503479004;2.5369720458984375;-9.846847534179688;0.896331787109375
1445419193863;343.0580139160156;-98.6036376953125;-12.935437202453613;2.2819976806640625;-9.3369140625;0.7982635498046875
1445419193896;343.3005676269531;-101.68168640136719;-12.720844268798828;1.8897247314453125;-8.728897094726562;0.8374786376953125
1445419193929;342.439453125;-104.32324981689453;-12.509354591369629;2.32122802734375;-7.4736480712890625;0.6609649658203125
1445419193962;341.41180419921875;-105.36876678466797;-12.4369535446167;2.870391845703125;-7.0813751220703125;0.7786407470703125
1445419193995;338.7308044433594;-106.45962524414062;-12.66923999786377;2.929229736328125;-6.7871856689453125;0.8374786376953125
1445419194029;336.5961608886719;-106.29541778564453;-13.071710586547852;2.9684600830078125;-6.414520263671875;0.052947998046875
1445419194062;335.6016540527344;-105.54664611816406;-13.291107177734375;2.2819976806640625;-8.670059204101562;-1.6730194091796875
1445419194095;333.4425354003906;-103.18738555908203;-13.458171844482422;2.10546875;-10.062606811523438;-3.653961181640625
1445419194128;332.01019287109375;-101.26762390136719;-12.965875625610352;1.732818603515625;-11.21978759765625;-6.105621337890625
1445419194160;331.0054931640625;-100.80191802978516;-12.700563430786133;1.732818603515625;-11.121719360351562;-5.026885986328125
1445419194195;328.5810852050781;-100.48139190673828;-12.190336227416992;2.8311614990234375;-9.846847534179688;-4.3011932373046875
1445419194227;327.5132141113281;-100.85031127929688;-12.091384887695312;5.4201202392578125;-11.945480346679688;-2.08489990234375
1445419194259;327.4203186035156;-101.7445068359375;-12.419509887695312;6.08697509765625;-13.122268676757812;-2.0456695556640625
1445419194293;328.41943359375;-101.9111099243164;-12.600225448608398;3.615692138671875;-8.395462036132812;1.26898193359375
1445419194327;330.0099792480469;-101.7180404663086;-12.201546669006348;4.125640869140625;-6.8264007568359375;4.544403076171875
