sep=;
timestamp;gyro-alpha;gyro-beta;gyro-gamma;accel-x;accel-y;accel-z
1445425678465;190.7264404296875;-98.93885040283203;-0.43311840295791626;0.301055908203125;-9.827239990234375;-1.00616455078125
1445425678497;194.842529296875;-96.5984878540039;-1.0271728038787842;0.359893798828125;-7.9835968017578125;-3.202850341796875
1445425678531;196.76776123046875;-95.69189453125;-1.53390371799469;0.242218017578125;-7.5324859619140625;-3.9873809814453125
1445425678563;199.99163818359375;-94.39400482177734;-2.8493027687072754;-2.935150146484375;-7.4540252685546875;-5.870269775390625
1445425678597;201.55908203125;-93.53179168701172;-3.710476875305176;-4.484588623046875;-9.023101806640625;-7.184356689453125
1445425678632;201.28668212890625;-93.61149597167969;-3.881953716278076;-4.0334930419921875;-9.670333862304688;-7.1451263427734375
1445425678662;199.0611572265625;-95.489013671875;-3.95310640335083;-2.935150146484375;-10.003753662109375;-5.1053466796875
1445425678696;196.48394775390625;-98.62108612060547;-3.8139657974243164;-0.6992340087890625;-9.12115478515625;-2.3006439208984375
1445425678728;194.97723388671875;-99.91901397705078;-3.688124418258667;-0.6796112060546875;-8.670059204101562;-0.692352294921875
1445425678762;192.90875244140625;-101.49209594726562;-3.1107656955718994;-0.9934234619140625;-9.650726318359375;1.190521240234375
1445425678795;191.53973388671875;-102.20508575439453;-1.9224916696548462;3.380340576171875;-12.906524658203125;1.308197021484375
1445425678828;191.99267578125;-101.84598541259766;-1.2383832931518555;4.1060333251953125;-14.102935791015625;1.6612396240234375
1445425678860;193.6781005859375;-99.85364532470703;-0.580895721912384;2.9684600830078125;-12.965362548828125;2.1123504638671875
1445425678893;194.7613525390625;-98.9218978881836;-0.961219310760498;0.987518310546875;-12.573104858398438;1.2885894775390625
1445425678927;197.8536376953125;-97.1265640258789;-1.9815877676010132;0.5560302734375;-11.51397705078125;0.6021270751953125
1445425678960;201.5562744140625;-94.57451629638672;-2.926351308822632;0.301055908203125;-9.434967041015625;-0.9277191162109375
1445425678993;203.50225830078125;-93.44451904296875;-3.427589178085327;0.595245361328125;-8.454315185546875;-1.9279937744140625
1445425679025;207.84283447265625;-91.95446014404297;-4.609031677246094;0.026458740234375;-7.74822998046875;-3.1244049072265625
1445425679059;212.6341552734375;-91.82708740234375;-5.717912673950195;-3.3470306396484375;-8.611221313476562;-3.9677734375
1445425679092;214.7213134765625;-92.37906646728516;-5.73162841796875;-5.4652557373046875;-9.12115478515625;-4.163909912109375
1445425679125;218.01605224609375;-95.62981414794922;-3.9691696166992188;-5.190673828125;-9.278060913085938;-3.3009185791015625
1445425679158;218.98306274414062;-98.54875183105469;-2.6427345275878906;-0.895355224609375;-9.96453857421875;-4.909210205078125
1445425679190;220.90118408203125;-105.43487548828125;0.0595797523856163;0.2618255615234375;-10.513702392578125;-5.7525787353515625
1445425679224;222.27032470703125;-113.27413177490234;2.028993606567383;0.595245361328125;-9.788009643554688;-4.399261474609375
1445425679258;222.46282958984375;-116.70648193359375;2.9546148777008057;1.3797760009765625;-10.180282592773438;-3.6931915283203125
1445425679289;221.06475830078125;-120.31302642822266;3.1129062175750732;2.2623748779296875;-13.122268676757812;-2.9282684326171875
1445425679322;218.09527587890625;-121.92285919189453;0.35795891284942627;-0.601165771484375;-12.847686767578125;-5.987945556640625
1445425679357;215.33612060546875;-122.32537078857422;-2.0037240982055664;-0.5619354248046875;-12.004318237304688;-5.9487152099609375
1445425679388;209.69549560546875;-121.04336547851562;-5.676447868347168;0.6737060546875;-9.513427734375;-4.0462188720703125
1445425679421;205.47412109375;-117.75270080566406;-7.460707187652588;1.046356201171875;-6.3949127197265625;-1.712249755859375
1445425679455;203.5595703125;-115.68997192382812;-8.2149019241333;0.869842529296875;-5.0808258056640625;-1.4180450439453125
1445425679488;200.192138671875;-111.29987335205078;-9.810246467590332;1.2032623291015625;-4.923919677734375;-2.1829681396484375
1445425679520;198.1251220703125;-107.52525329589844;-10.982853889465332;2.5369720458984375;-7.12060546875;-4.5757904052734375
1445425679554;197.69525146484375;-106.43321228027344;-11.37111759185791;2.5761871337890625;-8.160110473632812;-5.7525787353515625
1445425679586;197.90924072265625;-106.81108093261719;-12.22506046295166;2.0270233154296875;-7.63055419921875;-4.36004638671875
1445425679619;198.9664306640625;-108.40540313720703;-12.460358619689941;2.67425537109375;-6.55181884765625;-2.08489990234375
1445425679653;203.10150146484375;-112.73733520507812;-12.19583511352539;2.870391845703125;-6.8852386474609375;-1.0453948974609375
1445425679685;206.81707763671875;-116.60366821289062;-11.735909461975098;4.3413848876953125;-10.062606811523438;-1.5357208251953125
1445425679718;208.79336547851562;-118.11715698242188;-10.783802032470703;5.1651458740234375;-12.65155029296875;-3.2420806884765625
1445425679751;212.11090087890625;-119.63196563720703;-8.418103218078613;2.4585113525390625;-14.318679809570312;-5.96832275390625
1445425679786;213.36038208007812;-119.92300415039062;-7.88287878036499;-0.150054931640625;-13.592987060546875;-6.8313140869140625
1445425679819;212.63916015625;-119.86865234375;-8.695816993713379;-0.150054931640625;-12.65155029296875;-6.478271484375
1445425679851;208.9715576171875;-118.80891418457031;-11.137472152709961;0.536407470703125;-10.7098388671875;-4.222747802734375
1445425679886;205.67022705078125;-116.62721252441406;-12.091686248779297;1.24249267578125;-7.92474365234375;-2.2221832275390625
1445425679917;204.50244140625;-115.40508270263672;-12.038634300231934;1.18365478515625;-6.355682373046875;-1.8691558837890625
1445425679950;202.16326904296875;-112.90022277832031;-11.890063285827637;0.5756378173828125;-3.8647918701171875;-2.4379425048828125
1445425679983;200.355712890625;-110.43055725097656;-11.777519226074219;1.3405609130859375;-3.98248291015625;-3.7520294189453125
1445425680017;200.599853515625;-109.55941009521484;-11.39123249053955;2.32122802734375;-4.963134765625;-4.59539794921875
1445425680047;203.6309814453125;-109.3375015258789;-10.744714736938477;3.2430419921875;-7.7286224365234375;-6.9489898681640625
1445425680082;205.5291748046875;-109.95198059082031;-10.718921661376953;-1.6995086669921875;-8.3758544921875;-4.9876708984375
1445425680114;211.47235107421875;-113.6306381225586;-8.743807792663574;-1.738739013671875;-6.630279541015625;-4.36004638671875
1445425680148;215.79190063476562;-117.00492858886719;-5.752014636993408;0.869842529296875;-4.963134765625;-4.65423583984375
1445425680181;216.59005737304688;-118.26612854003906;-4.889878749847412;1.8897247314453125;-6.6498870849609375;-5.1053466796875
1445425680213;217.81622314453125;-120.2668685913086;-3.2948782444000244;1.3209381103515625;-14.35791015625;-6.3998260498046875
1445425680246;217.7176513671875;-121.61538696289062;-3.073979377746582;2.752716064453125;-14.044097900390625;-5.55645751953125
1445425680280;216.76589965820312;-121.88766479492188;-4.047247409820557;2.8507843017578125;-13.259567260742188;-4.47772216796875
1445425680312;214.82171630859375;-121.79598236083984;-5.7788848876953125;3.046905517578125;-13.416473388671875;-5.301483154296875
1445425680346;213.58685302734375;-119.87104797363281;-6.384725570678711;3.4784088134765625;-12.494644165039062;-4.71307373046875
1445425680378;212.9835205078125;-118.47979736328125;-6.513992786407471;2.2231597900390625;-10.631378173828125;-3.6735687255859375
1445425680412;211.41140747070312;-114.7977523803711;-6.4020867347717285;0.28143310546875;-8.003204345703125;-3.6147308349609375
1445425680444;210.23681640625;-112.40069580078125;-6.3249688148498535;-0.6207733154296875;-5.6888275146484375;-4.850372314453125
1445425680478;206.47015380859375;-107.23412322998047;-7.0604448318481445;-1.228790283203125;-4.8846893310546875;-4.59539794921875
1445425680510;201.23602294921875;-103.1780776977539;-8.29807186126709;-0.522705078125;-4.1393890380859375;-4.8699798583984375
1445425680543;199.033447265625;-101.73370361328125;-8.679680824279785;0.3991241455078125;-5.29656982421875;-5.419158935546875
1445425680576;195.28662109375;-100.17927551269531;-8.72859001159668;-0.777679443359375;-10.905975341796875;-5.2622528076171875
1445425680609;192.62615966796875;-100.95301055908203;-7.2045183181762695;-1.9544830322265625;-11.670883178710938;-1.12384033203125
1445425680644;192.1700439453125;-101.96583557128906;-5.964663982391357;0.7129364013671875;-9.00347900390625;-1.0257720947265625
1445425680675;190.5499267578125;-104.79188537597656;-4.328354358673096;1.732818603515625;-8.277786254882812;1.1512908935546875
1445425680708;190.5460205078125;-107.28785705566406;-3.1107699871063232;3.046905517578125;-13.691055297851562;-0.0254974365234375
1445425680742;191.349365234375;-108.0029525756836;-2.3720991611480713;2.4781341552734375;-14.142166137695312;-0.0843353271484375
1445425680775;192.94244384765625;-107.78642272949219;-1.6005022525787354;0.654083251953125;-12.965362548828125;0.13140869140625
1445425680808;193.819091796875;-106.56411743164062;-2.328181028366089;-0.4246368408203125;-11.827789306640625;-0.810028076171875
1445425680840;194.0677490234375;-105.68081665039062;-2.787196636199951;-0.1696624755859375;-10.8275146484375;-2.0456695556640625
1445425680874;194.97271728515625;-103.29115295410156;-3.3465352058410645;0.242218017578125;-8.160110473632812;-4.281585693359375
1445425680907;195.67523193359375;-101.9394302368164;-3.6375155448913574;-0.267730712890625;-6.944091796875;-6.18408203125
1445425680939;197.21630859375;-99.8723373413086;-4.371131896972656;-1.0130462646484375;-7.23828125;-6.615570068359375
1445425680973;198.101318359375;-99.18023681640625;-4.528237342834473;-2.91552734375;-8.160110473632812;-5.419158935546875
1445425681007;197.593994140625;-99.39468383789062;-4.404036045074463;-2.719390869140625;-8.5523681640625;-5.2034149169921875
1445425681039;194.79522705078125;-101.68191528320312;-3.821343421936035;-2.11138916015625;-8.5523681640625;-3.9677734375
1445425681071;193.20086669921875;-103.32768249511719;-3.406383514404297;-0.5030975341796875;-9.395751953125;0.504058837890625
1445425681106;189.3736572265625;-105.6619873046875;-2.785818576812744;0.6933135986328125;-10.376419067382812;0.955169677734375
1445425681137;186.2955322265625;-106.86183166503906;-2.5155482292175293;3.7922210693359375;-14.377532958984375;1.700469970703125
1445425681170;186.94964599609375;-107.02491760253906;-1.6400225162506104;3.498016357421875;-13.808746337890625;1.523956298828125
1445425681204;190.8704833984375;-105.68269348144531;0.2639288306236267;1.98779296875;-13.416473388671875;1.190521240234375
1445425681237;194.655517578125;-103.61567687988281;0.34167587757110596;-0.5619354248046875;-12.220062255859375;0.111785888671875
1445425681270;196.66668701171875;-102.6099853515625;0.1945241540670395;-1.03265380859375;-9.925308227539062;-2.4771575927734375
1445425681304;200.7188720703125;-100.30184936523438;0.020144790410995483;-0.601165771484375;-8.630828857421875;-3.39898681640625
1445425681336;205.20794677734375;-97.7510986328125;0.2577115595340729;-2.307525634765625;-7.297119140625;-4.6934661865234375
1445425681368;206.8319091796875;-96.47147369384766;0.5533589124679565;-3.8961944580078125;-7.257904052734375;-5.2034149169921875
1445425681401;206.952392578125;-94.63835144042969;1.5643315315246582;-5.2887420654296875;-8.76812744140625;-4.6934661865234375
1445425681434;204.63665771484375;-94.3315658569336;3.4237847328186035;-4.190399169921875;-9.356521606445312;0.13140869140625
1445425681469;203.25396728515625;-94.46194458007812;4.39284086227417;1.850494384765625;-8.3758544921875;-0.3197021484375
1445425681501;199.92333984375;-95.84780883789062;5.418366432189941;3.4587860107421875;-7.669769287109375;-3.085174560546875
1445425681536;199.391357421875;-98.95610809326172;5.251919269561768;0.22259521484375;-10.278350830078125;0.30792236328125
1445425681566;200.59423828125;-100.10786437988281;5.314834117889404;-0.5619354248046875;-12.35736083984375;0.8374786376953125
1445425681600;202.1993408203125;-101.33570861816406;5.3869547843933105;0.16375732421875;-15.005157470703125;0.111785888671875
1445425681632;202.67572021484375;-101.93582916259766;5.005161762237549;0.301055908203125;-14.671722412109375;0.3471527099609375
1445425681673;204.21429443359375;-103.15474700927734;3.1105880737304688;-0.7580718994140625;-13.78912353515625;0.0333404541015625
1445425681700;206.3199462890625;-102.80133819580078;0.7907236814498901;-1.1307220458984375;-11.925857543945312;-0.1431732177734375
1445425681734;207.212158203125;-102.14352416992188;-0.2773793339729309;-0.6796112060546875;-9.68994140625;-1.4768829345703125
1445425681764;208.8968505859375;-100.75641632080078;-2.024217128753662;-0.208892822265625;-8.513153076171875;-2.0456695556640625
1445425681797;211.30029296875;-99.56829833984375;-2.9323079586029053;0.1833648681640625;-7.316741943359375;-2.20257568359375
1445425681831;213.2340087890625;-99.48006439208984;-3.068028211593628;0.0656890869140625;-7.23828125;-2.1633453369140625
1445425681863;218.369873046875;-100.53363800048828;-2.4887850284576416;-1.3072357177734375;-6.5125885009765625;-1.8495330810546875
1445425681897;220.7413330078125;-101.6532211303711;-1.9084123373031616;-3.4058685302734375;-6.2576141357421875;-1.261138916015625
1445425681930;223.768798828125;-104.9747314453125;-0.3463934361934662;-2.974365234375;-7.0225372314453125;-2.1829681396484375
1445425681964;224.84835815429688;-109.52843475341797;1.567679524421692;-2.719390869140625;-9.611495971679688;-5.1053466796875
1445425681995;225.05010986328125;-112.01950073242188;2.5356767177581787;-3.3862457275390625;-10.631378173828125;-6.0860137939453125
1445425682028;225.13259887695312;-116.1854476928711;4.373332977294922;-2.11138916015625;-10.02337646484375;-4.77191162109375
1445425682061;223.9951171875;-118.05372619628906;4.849665641784668;1.811279296875;-11.004043579101562;-2.6536865234375
1445425682094;222.89013671875;-118.30844116210938;4.4284586906433105;2.5173492431640625;-11.965087890625;-3.1244049072265625
1445425682128;219.666748046875;-117.17213439941406;2.2221717834472656;1.9681854248046875;-13.083053588867188;-4.5169525146484375
1445425682160;216.6082763671875;-114.26773071289062;-0.26433098316192627;0.8502197265625;-12.47503662109375;-4.3208160400390625
1445425682198;215.58526611328125;-112.19631958007812;-1.0511671304702759;0.4971771240234375;-11.33746337890625;-3.4185943603515625
1445425682226;213.845947265625;-107.69945526123047;-2.1447455883026123;0.8306121826171875;-8.5523681640625;-1.7318572998046875
1445425682259;210.85806274414062;-103.00269317626953;-3.8074965476989746;0.3991241455078125;-6.061492919921875;-0.7904205322265625
1445425682292;209.106689453125;-100.77799987792969;-4.843684673309326;0.3795013427734375;-5.3750152587890625;-1.084625244140625
1445425682325;206.0965576171875;-96.90497589111328;-6.411857604980469;0.2618255615234375;-6.238006591796875;-3.1244049072265625
1445425682357;204.98980712890625;-95.32974243164062;-6.943456172943115;-0.0519866943359375;-10.08221435546875;-4.968048095703125
1445425682391;203.0762939453125;-93.64019775390625;-7.527395248413086;0.1833648681640625;-11.867019653320312;-5.6349029541015625
1445425682424;202.300048828125;-94.86659240722656;-7.107919692993164;1.6543731689453125;-9.944915771484375;-5.360321044921875
1445425682457;201.986572265625;-96.35012817382812;-6.957512378692627;2.693878173828125;-8.88580322265625;-4.2423553466796875
1445425682491;200.7435302734375;-100.15773010253906;-7.855079174041748;1.8897247314453125;-7.885528564453125;-2.7909698486328125
1445425682524;200.0113525390625;-104.17118072509766;-9.44237995147705;3.2234344482421875;-16.29962158203125;-2.3006439208984375
1445425682556;200.76751708984375;-106.075927734375;-9.54914665222168;4.3413848876953125;-15.691619873046875;-1.888763427734375
1445425682590;203.3890380859375;-109.0127182006836;-8.859357833862305;2.8311614990234375;-13.318405151367188;-2.8105926513671875
1445425682622;205.2904052734375;-110.27909851074219;-8.200226783752441;1.36016845703125;-10.984420776367188;-3.261688232421875
1445425682656;205.79217529296875;-110.36398315429688;-7.87006950378418;1.046356201171875;-8.76812744140625;-2.967498779296875
1445425682688;206.31829833984375;-110.12077331542969;-7.587356090545654;0.6933135986328125;-6.061492919921875;-2.5948486328125
1445425682721;206.68023681640625;-109.9012222290039;-7.468450546264648;0.477569580078125;-5.4534759521484375;-2.1241302490234375
1445425682754;207.4732666015625;-109.40093231201172;-6.758261203765869;1.105194091796875;-5.41424560546875;-2.02606201171875
1445425682788;209.2330322265625;-109.02056121826172;-5.1917338371276855;1.3797760009765625;-5.669219970703125;-1.9083709716796875
1445425682821;210.336669921875;-108.77826690673828;-4.208894729614258;0.477569580078125;-5.845733642578125;-2.20257568359375
1445425682853;213.13702392578125;-108.22604370117188;-1.6920173168182373;0.026458740234375;-5.9438018798828125;-2.634063720703125
1445425682886;214.909912109375;-108.07484436035156;-0.17573760449886322;-0.91497802734375;-8.218948364257812;-5.2034149169921875
1445425682920;217.37277221679688;-108.36451721191406;2.8668172359466553;-2.11138916015625;-10.6510009765625;-6.9097747802734375
1445425682953;217.0963134765625;-109.71529388427734;5.25658655166626;-2.0721588134765625;-13.083053588867188;-6.439056396484375
1445425682986;215.37216186523438;-111.53834533691406;5.5839362144470215;3.615692138671875;-13.887191772460938;-6.3017578125
1445425683018;213.629638671875;-112.6829833984375;4.3821892738342285;4.3021697998046875;-14.632492065429688;-6.497894287109375
1445425683051;210.59756469726562;-114.82327270507812;0.6798169016838074;2.1446990966796875;-14.4755859375;-5.987945556640625
1445425683084;209.7186279296875;-115.35556030273438;-0.9200592041015625;1.36016845703125;-12.082763671875;-4.3011932373046875
1445425683119;207.426513671875;-115.23368072509766;-3.9053709506988525;1.2621002197265625;-10.690231323242188;-3.3597564697265625
1445425683150;204.7344970703125;-114.19144439697266;-7.322269439697266;0.4383392333984375;-7.9051361083984375;-1.9279937744140625
1445425683184;203.42529296875;-113.56733703613281;-9.266220092773438;-0.5619354248046875;-6.37530517578125;-0.82965087890625
1445425683217;200.2559814453125;-111.79529571533203;-13.065007209777832;-0.4638671875;-5.8653564453125;-0.4962158203125
1445425683250;196.3770751953125;-108.10881805419922;-15.947799682617188;1.6935882568359375;-5.159271240234375;-1.261138916015625
1445425683283;194.6019287109375;-105.75257110595703;-17.145709991455078;2.3996734619140625;-4.727783203125;-1.8495330810546875
1445425683316;192.96148681640625;-102.72821807861328;-18.64849853515625;3.2038116455078125;-5.276947021484375;-3.7324066162109375
1445425683348;193.0791015625;-102.21859741210938;-18.85755729675293;5.439727783203125;-8.4935302734375;-3.889312744140625
1445425683382;193.95751953125;-103.21634674072266;-18.426008224487305;8.381729125976562;-11.16094970703125;-3.144012451171875
1445425683414;196.78509521484375;-106.88017272949219;-17.544559478759766;6.7734375;-13.004592895507812;-3.536285400390625
1445425683448;198.6173095703125;-109.0411148071289;-17.14459991455078;0.22259521484375;-11.259017944335938;-2.065277099609375
1445425683480;200.14129638671875;-112.67815399169922;-16.69243049621582;-0.91497802734375;-9.827239990234375;-3.5558929443359375
1445425683513;200.14678955078125;-114.12785339355469;-15.91008472442627;1.6543731689453125;-8.277786254882812;-3.1832427978515625
1445425683546;199.9449462890625;-113.50450897216797;-15.688735961914062;2.2035369873046875;-8.925033569335938;-3.3597564697265625
1445425683579;200.48486328125;-111.1053237915039;-15.12389087677002;5.204376220703125;-10.7686767578125;-2.8694305419921875
1445425683612;203.10009765625;-108.8785171508789;-14.390820503234863;3.2822723388671875;-7.885528564453125;-2.8890380859375
1445425683645;205.21759033203125;-107.97391510009766;-13.877453804016113;2.2035369873046875;-6.944091796875;-2.7909698486328125
1445425683678;209.23968505859375;-106.05191040039062;-13.58664321899414;0.7129364013671875;-6.72833251953125;-2.9871063232421875
1445425683711;211.4222412109375;-104.70924377441406;-14.053570747375488;1.3209381103515625;-7.9835968017578125;-4.6150054931640625
1445425683744;212.1505126953125;-104.37110900878906;-14.35524845123291;0.5167999267578125;-8.473922729492188;-4.8896026611328125
1445425683778;214.01235961914062;-105.2364730834961;-14.117012023925781;-0.6796112060546875;-8.160110473632812;-4.41888427734375
1445425683810;216.84368896484375;-107.63224029541016;-11.837255477905273;-1.464141845703125;-8.670059204101562;-3.4185943603515625
1445425683843;218.009765625;-108.50588989257812;-10.524598121643066;-1.915252685546875;-10.02337646484375;-1.3003692626953125
1445425683877;218.5439453125;-109.70561218261719;-8.94999885559082;-1.4249267578125;-12.514266967773438;-1.378814697265625
1445425683909;217.673828125;-110.05233764648438;-8.65709114074707;-0.58154296875;-13.90679931640625;-1.888763427734375
1445425683943;214.0860595703125;-109.77568054199219;-8.378201484680176;0.2618255615234375;-13.84796142578125;-2.14373779296875
1445425683975;209.74844360351562;-108.40023040771484;-7.50364351272583;1.6543731689453125;-12.730010986328125;-1.9083709716796875
1445425684011;207.65899658203125;-107.31517028808594;-6.97395133972168;1.5759124755859375;-12.47503662109375;-2.8694305419921875
1445425684043;203.836669921875;-104.83277893066406;-6.092696189880371;1.3993988037109375;-12.063156127929688;-2.7517547607421875
1445425684074;200.3436279296875;-102.89122772216797;-6.018307685852051;1.75244140625;-8.787734985351562;-1.6337890625
1445425684107;198.6151123046875;-102.16210174560547;-6.172676086425781;1.2621002197265625;-7.316741943359375;-1.4180450439453125
1445425684141;196.2257080078125;-100.57879638671875;-6.06402063369751;-0.228515625;-6.473358154296875;-1.574951171875
1445425684174;194.281494140625;-98.62864685058594;-5.224419116973877;-1.4445343017578125;-7.0029296875;-2.1829681396484375
1445425684206;193.022216796875;-97.6329345703125;-4.595371723175049;-1.8956451416015625;-7.57171630859375;-2.08489990234375
1445425684239;189.7801513671875;-96.02969360351562;-2.4874305725097656;-1.09149169921875;-5.3358001708984375;0.0921783447265625
1445425684273;188.08984375;-95.57655334472656;-1.26567804813385;2.3408355712890625;-8.160110473632812;-0.1039581298828125
1445425684306;184.629638671875;-95.0927505493164;0.1326541155576706;2.5958099365234375;-11.494369506835938;0.955169677734375
1445425684338;184.32464599609375;-95.42637634277344;0.6073159575462341;1.6347503662109375;-14.4755859375;0.680572509765625
1445425684372;184.7779541015625;-95.61660766601562;0.5215335488319397;1.98779296875;-14.299072265625;1.190521240234375
1445425684404;186.05731201171875;-96.88047790527344;-0.47635725140571594;1.2621002197265625;-12.808456420898438;1.876983642578125
1445425684437;188.6951904296875;-98.78436279296875;-1.4529297351837158;0.2029876708984375;-13.259567260742188;1.6024017333984375
1445425684470;190.4482421875;-99.12793731689453;-1.556015968322754;-0.326568603515625;-13.318405151367188;1.308197021484375
1445425684504;194.3760986328125;-98.60458374023438;-1.52921462059021;-0.4442596435546875;-11.474761962890625;-0.300079345703125
1445425684537;198.1588134765625;-97.74915313720703;-2.0462987422943115;-0.954193115234375;-10.219512939453125;-1.496490478515625
1445425684570;199.72216796875;-97.16950225830078;-2.3636937141418457;-1.09149169921875;-9.042709350585938;-2.398712158203125
1445425684602;202.2244873046875;-95.71038055419922;-2.8383333683013916;-0.405029296875;-7.1009979248046875;-3.653961181640625
1445425684635;203.319091796875;-95.19654846191406;-3.0672874450683594;-0.3854217529296875;-6.9636993408203125;-4.6346282958984375
1445425684669;204.895751953125;-94.84066009521484;-3.524606227874756;-1.9936981201171875;-7.9639739990234375;-5.7722015380859375
1445425684701;204.6883544921875;-95.9456787109375;-3.457770824432373;-3.9354248046875;-9.944915771484375;-4.77191162109375
1445425684734;203.9227294921875;-96.97610473632812;-3.049018144607544;-3.9746551513671875;-10.6510009765625;-3.39898681640625
1445425684768;200.66741943359375;-99.48787689208984;-2.0390615463256836;-1.346466064453125;-9.160385131835938;-1.6337890625
1445425684802;198.6790771484375;-100.65792083740234;-1.7829415798187256;1.556304931640625;-10.396026611328125;-0.515838623046875
1445425684836;195.7847900390625;-102.65929412841797;-1.8499330282211304;3.890289306640625;-12.278900146484375;-0.3197021484375
1445425684867;194.4644775390625;-104.27841186523438;-2.4414005279541016;2.929229736328125;-13.1026611328125;0.1706390380859375
1445425684899;195.7020263671875;-104.70462036132812;-2.767723798751831;-0.640380859375;-13.455703735351562;-0.3589324951171875
1445425684932;196.63690185546875;-104.19673156738281;-2.911884069442749;-1.15032958984375;-12.278900146484375;-0.77081298828125
1445425684967;197.95361328125;-102.21588134765625;-3.670419931411743;-0.542327880859375;-10.219512939453125;-1.319976806640625
1445425684999;198.5311279296875;-99.95906066894531;-5.128113746643066;-0.1108245849609375;-8.846572875976562;-1.6337890625
1445425685032;198.88079833984375;-98.90487670898438;-5.917337894439697;0.1245269775390625;-8.160110473632812;-1.96722412109375
1445425685070;199.9161376953125;-97.56795501708984;-7.226560592651367;-0.5619354248046875;-7.7874603271484375;-2.2418060302734375
1445425685098;200.5594482421875;-97.49130249023438;-7.664728164672852;-0.8169097900390625;-7.8462982177734375;-2.281036376953125
1445425685131;202.17730712890625;-98.4466323852539;-7.8768792152404785;-1.5426025390625;-8.042434692382812;-2.692901611328125
1445425685163;204.43603515625;-101.23526763916016;-6.6589860916137695;-1.915252685546875;-9.101547241210938;-2.6144561767578125
1445425685199;205.720703125;-103.23381805419922;-5.536816120147705;-1.1307220458984375;-10.435256958007812;-2.8105926513671875
1445425685229;208.2215576171875;-108.20056915283203;-2.3203959465026855;3.2038116455078125;-12.318130493164062;-4.0658416748046875
1445425685263;210.57913208007812;-113.510009765625;1.745256781578064;4.8709564208984375;-13.318405151367188;-5.67413330078125
1445425685295;211.146728515625;-115.85881805419922;3.319601535797119;2.8507843017578125;-10.807907104492188;-4.163909912109375
1445425685329;210.900634765625;-118.99534606933594;4.117511749267578;0.6933135986328125;-8.571990966796875;-2.6536865234375
1445425685361;210.715087890625;-119.88703155517578;3.818042039871216;0.869842529296875;-11.180557250976562;-5.1249542236328125
1445425685394;209.903564453125;-120.19906616210938;3.0257961750030518;1.2032623291015625;-11.827789306640625;-5.6349029541015625
1445425685427;208.5146484375;-119.38419342041016;2.1062705516815186;1.438629150390625;-10.25872802734375;-4.732696533203125
1445425685460;208.73834228515625;-118.8399429321289;1.996416687965393;1.497467041015625;-8.88580322265625;-4.4973297119140625
1445425685493;210.77243041992188;-117.09011840820312;1.9136921167373657;1.497467041015625;-6.8852386474609375;-2.0456695556640625
1445425685526;212.458740234375;-114.07599639892578;0.8554190397262573;1.105194091796875;-5.9830322265625;0.13140869140625
1445425685560;213.3160400390625;-112.15036010742188;0.2174481302499771;0.595245361328125;-6.120330810546875;0.0921783447265625
1445425685592;216.03472900390625;-107.85336303710938;-0.4738190770149231;-0.6992340087890625;-7.35595703125;0.30792236328125
1445425685626;219.90185546875;-103.0029296875;-0.23899754881858826;0.22259521484375;-8.003204345703125;1.1120758056640625
1445425685661;221.29254150390625;-100.44245147705078;-0.13785898685455322;0.0068511962890625;-8.630828857421875;1.014007568359375
1445425685692;223.19857788085938;-95.43561553955078;0.46361950039863586;-0.601165771484375;-8.866195678710938;-0.4373779296875
1445425685724;223.92584228515625;-93.02971649169922;0.7746490240097046;-1.7583465576171875;-16.652664184570312;-6.0075531005859375
1445425685757;226.2640380859375;-89.94318389892578;1.3494662046432495;-0.1304473876953125;-14.554046630859375;-5.026885986328125
1445425685791;227.147705078125;-90.03621673583984;1.588437557220459;-0.9934234619140625;-10.160659790039062;0.2098541259765625
1445425685823;226.70046997070312;-91.37310028076172;1.0362900495529175;-2.2682952880859375;-17.849075317382812;-5.4583892822265625
1445425685857;227.28286743164062;-93.47862243652344;0.16230086982250214;-0.640380859375;-14.338302612304688;-2.4967803955078125
1445425685889;230.43316650390625;-95.06487274169922;0.3361172378063202;-0.7384490966796875;-11.435531616210938;-1.3003692626953125
1445425685922;231.6982421875;-95.4115982055664;0.10808268934488297;-2.34674072265625;-11.651275634765625;-1.0453948974609375
1445425685956;233.41488647460938;-94.81387329101562;-0.35576462745666504;-1.797576904296875;-9.513427734375;-1.084625244140625
1445425685988;234.6361083984375;-92.91619110107422;-1.0147782564163208;-0.640380859375;-8.473922729492188;-1.4180450439453125
1445425686022;234.7071533203125;-92.1422119140625;-1.5023168325424194;-0.287353515625;-8.336624145507812;-1.771087646484375
1445425686054;234.92315673828125;-91.25895690917969;-2.425356388092041;-0.1696624755859375;-8.042434692382812;-2.5948486328125
1445425686088;236.15383911132812;-91.35289001464844;-3.0556271076202393;-1.797576904296875;-8.5523681640625;-2.8890380859375
1445425686121;236.96478271484375;-91.83431243896484;-3.045933246612549;-1.5033721923828125;-8.807342529296875;-3.0067291259765625
1445425686154;237.47686767578125;-93.55288696289062;-2.5751821994781494;-1.5818328857421875;-9.395751953125;-1.9868316650390625
1445425686187;236.7064208984375;-95.7265625;-1.727003574371338;-2.5821075439453125;-9.631103515625;-1.437652587890625
1445425686219;236.14727783203125;-96.82041931152344;-1.1959880590438843;-1.5622100830078125;-9.807632446289062;-1.6533966064453125
1445425686253;235.29647827148438;-98.56291198730469;-0.409355491399765;1.53668212890625;-11.33746337890625;-0.9669342041015625
1445425686286;235.4097900390625;-99.10499572753906;-0.11442452669143677;4.0471954345703125;-12.180831909179688;-1.261138916015625
1445425686318;236.65133666992188;-99.07783508300781;-0.08727449178695679;3.2430419921875;-11.553207397460938;-1.2219085693359375
1445425686353;238.2313232421875;-98.28606414794922;-0.825853168964386;1.0659637451171875;-11.435531616210938;-1.0453948974609375
1445425686388;239.23330688476562;-97.63395690917969;-0.9979684352874756;0.3206634521484375;-11.200164794921875;-1.261138916015625
1445425686418;240.856201171875;-95.30359649658203;-0.8875024914741516;0.1245269775390625;-9.591873168945312;-2.7713623046875
1445425686450;242.0535888671875;-92.76765441894531;-1.4283438920974731;1.2032623291015625;-7.86590576171875;-4.2423553466796875
1445425686483;242.55712890625;-91.96720123291016;-2.033600091934204;0.7913818359375;-7.5128631591796875;-4.0658416748046875
1445425686517;243.26327514648438;-91.33882141113281;-3.168705701828003;-0.3069610595703125;-8.042434692382812;-3.261688232421875
1445425686551;243.82876586914062;-91.3607177734375;-3.0209081172943115;-1.7191162109375;-9.944915771484375;-2.4771575927734375
1445425686583;244.09552001953125;-91.3113784790039;-2.469165802001953;-2.5036468505859375;-10.552932739257812;-1.692626953125
1445425686617;244.95919799804688;-91.60944366455078;-1.3010870218276978;-1.3856964111328125;-10.239120483398438;-0.4373779296875
1445425686650;245.26724243164062;-91.9174575805664;-0.8631654381752014;-0.6207733154296875;-8.807342529296875;0.2098541259765625
1445425686681;245.85549926757812;-92.25303649902344;-0.24264319241046906;0.026458740234375;-9.12115478515625;0.36676025390625
1445425686718;246.98046875;-92.65040588378906;0.014954699203372002;1.0855865478515625;-11.298233032226562;1.465118408203125
1445425686751;247.67327880859375;-92.8093032836914;0.17742639780044556;0.7129364013671875;-12.082763671875;1.9554443359375
1445425686781;249.086181640625;-92.26646423339844;0.3541014492511749;-0.1696624755859375;-12.749618530273438;1.38665771484375
1445425686814;249.36849975585938;-91.76995849609375;0.14453890919685364;0.04608154296875;-12.200454711914062;-0.5942840576171875
1445425686847;249.412841796875;-90.55075073242188;-0.8660309314727783;0.242218017578125;-11.690505981445312;-0.868865966796875
1445425686879;249.5941162109375;-89.38285827636719;-2.3734421730041504;-0.542327880859375;-9.591873168945312;-0.9277191162109375
1445425686912;249.78305053710938;-88.98799896240234;-3.1771366596221924;-1.5426025390625;-8.179718017578125;-0.9669342041015625
1445425686945;250.05694580078125;-88.25831604003906;-4.651440620422363;-1.7583465576171875;-7.74822998046875;-1.3395843505859375
1445425686979;250.00637817382812;-87.66441345214844;-5.741545677185059;-2.5232696533203125;-8.003204345703125;-2.1241302490234375
1445425687012;250.02999877929688;-87.59342193603516;-6.0579514503479;-3.6608428955078125;-8.748504638671875;-2.2221832275390625
1445425687045;250.1099853515625;-88.19676971435547;-5.900150775909424;-3.54315185546875;-9.925308227539062;-2.1633453369140625
1445425687077;248.98422241210938;-90.11560821533203;-4.412720680236816;-1.5622100830078125;-11.415924072265625;-3.9481658935546875
1445425687111;247.81829833984375;-91.50160217285156;-3.5284974575042725;-0.7384490966796875;-11.180557250976562;-3.8108673095703125
1445425687144;246.29473876953125;-96.427490234375;-1.9554102420806885;0.869842529296875;-11.376693725585938;-2.4771575927734375
1445425687177;246.21832275390625;-103.6899185180664;-0.02818135917186737;4.694427490234375;-12.9849853515625;-1.2807464599609375
1445425687209;246.988037109375;-107.10791015625;1.22728431224823;3.498016357421875;-13.475311279296875;-1.3395843505859375
1445425687243;247.74713134765625;-112.3125228881836;3.9221549034118652;-1.0718841552734375;-12.612335205078125;-2.5359954833984375
1445425687276;245.34686279296875;-115.95366668701172;4.661886692047119;-0.405029296875;-11.827789306640625;-3.6735687255859375
1445425687308;243.08758544921875;-117.3630142211914;3.8993113040924072;0.301055908203125;-10.513702392578125;-3.16363525390625
1445425687342;238.58712768554688;-119.51143646240234;1.6780059337615967;0.5756378173828125;-8.454315185546875;-1.96722412109375
1445425687374;236.52542114257812;-119.88360595703125;0.6564467549324036;0.5167999267578125;-7.826690673828125;-1.712249755859375
1445425687407;232.31546020507812;-118.85514831542969;-1.0728821754455566;1.0659637451171875;-6.630279541015625;-1.457275390625
1445425687440;228.36962890625;-116.23303985595703;-2.5588998794555664;1.0659637451171875;-5.7672882080078125;-2.02606201171875
1445425687474;226.53555297851562;-114.56834411621094;-3.3926198482513428;1.0267486572265625;-6.296844482421875;-2.575225830078125
1445425687506;223.46484375;-111.3120346069336;-4.941183090209961;1.497467041015625;-8.238555908203125;-3.712799072265625
1445425687539;221.64642333984375;-109.2737808227539;-6.510285377502441;1.0659637451171875;-9.827239990234375;-5.242645263671875
1445425687573;221.24874877929688;-109.09577941894531;-7.1987199783325195;0.28143310546875;-9.788009643554688;-5.654510498046875
1445425687606;220.42294311523438;-110.68135833740234;-7.736928939819336;1.0659637451171875;-9.650726318359375;-4.6150054931640625
1445425687638;219.53598022460938;-112.69819641113281;-7.537148952484131;2.8507843017578125;-9.101547241210938;-2.4771575927734375
1445425687672;219.52044677734375;-113.5362777709961;-7.341097831726074;2.61541748046875;-8.82696533203125;-2.457550048828125
1445425687705;219.4208984375;-114.82466125488281;-7.152622222900391;2.419281005859375;-10.611770629882812;-4.7523040771484375
1445425687737;218.08401489257812;-115.16169738769531;-7.655889511108398;0.7717742919921875;-11.121719360351562;-5.0465087890625
1445425687770;212.94699096679688;-114.6369400024414;-9.392351150512695;0.34027099609375;-11.239395141601562;-4.59539794921875
1445425687804;207.71337890625;-112.88384246826172;-10.119853973388672;1.556304931640625;-10.6510009765625;-3.5558929443359375
1445425687837;205.44036865234375;-111.85617065429688;-10.138158798217773;2.61541748046875;-9.670333862304688;-2.4379425048828125
1445425687869;200.787109375;-109.86778259277344;-10.174054145812988;2.5369720458984375;-9.140777587890625;-1.9868316650390625
1445425687902;195.6075439453125;-108.14297485351562;-10.57001781463623;0.9090576171875;-7.552093505859375;-0.810028076171875
1445425687937;192.69757080078125;-107.20775604248047;-10.850770950317383;0.6344757080078125;-7.434417724609375;-0.515838623046875
1445425687969;187.291259765625;-105.40449523925781;-10.959397315979004;0.4971771240234375;-7.4540252685546875;-0.692352294921875
1445425688001;184.8822021484375;-104.55152893066406;-10.79535961151123;1.0659637451171875;-8.395462036132812;-0.4569854736328125
1445425688035;179.86740112304688;-102.79151153564453;-10.357656478881836;1.8897247314453125;-9.00347900390625;0.111785888671875
1445425688068;174.56077575683594;-101.28787994384766;-9.529924392700195;3.8510589599609375;-9.709564208984375;0.680572509765625
1445425688100;172.4191436767578;-100.48546600341797;-8.935914993286133;6.6165313720703125;-10.5333251953125;0.6609649658203125
1445425688138;169.17791748046875;-98.8343276977539;-8.103899002075195;6.89111328125;-12.121994018554688;-0.182403564453125
1445425688167;167.64852905273438;-98.10967254638672;-7.743640899658203;5.4789581298828125;-14.35791015625;-0.2216339111328125
1445425688200;167.93893432617188;-98.4273681640625;-7.820705890655518;2.55657958984375;-12.435806274414062;-0.3589324951171875
1445425688233;169.26388549804688;-99.56682586669922;-8.1959867477417;1.53668212890625;-11.474761962890625;-0.751190185546875
1445425688270;170.4544677734375;-99.60613250732422;-8.321096420288086;1.47784423828125;-10.180282592773438;-1.4180450439453125
1445425688300;170.9535369873047;-99.30876922607422;-8.350970268249512;1.5759124755859375;-9.729171752929688;-1.1630706787109375
1445425688334;171.99127197265625;-98.61901092529297;-8.291702270507812;1.7720489501953125;-9.180007934570312;-1.378814697265625
1445425688365;174.7691650390625;-97.75048065185547;-7.592217922210693;0.595245361328125;-8.611221313476562;-1.2807464599609375
1445425688398;176.54905700683594;-97.2650375366211;-7.03032112121582;0.1245269775390625;-8.571990966796875;-1.2219085693359375
1445425688430;179.96556091308594;-96.49684143066406;-5.629975318908691;-0.2481231689453125;-8.709274291992188;-1.3984375
1445425688465;183.086181640625;-96.0455093383789;-3.875373363494873;-0.1892852783203125;-9.768402099609375;-2.5556182861328125
1445425688496;184.426025390625;-95.90875244140625;-2.99548077583313;-0.1108245849609375;-10.278350830078125;-3.026336669921875
1445425688530;186.77227783203125;-96.51854705810547;-1.7800755500793457;-0.85614013671875;-10.08221435546875;-1.6337890625
1445425688562;187.84271240234375;-97.05561065673828;-1.536557674407959;-1.5033721923828125;-10.356796264648438;-0.9669342041015625
1445425688595;189.7198486328125;-97.72169494628906;-1.4512988328933716;-1.9544830322265625;-10.807907104492188;-0.515838623046875
1445425688629;190.7742919921875;-97.81543731689453;-1.3812878131866455;-2.150604248046875;-10.02337646484375;-0.0254974365234375
1445425688661;191.26849365234375;-97.72493743896484;-1.2162352800369263;0.34027099609375;-10.042984008789062;-0.77081298828125
1445425688694;192.9718017578125;-97.56156158447266;-1.0226815938949585;0.869842529296875;-10.690231323242188;-0.77081298828125
1445425688728;195.32440185546875;-97.41573333740234;-1.1992374658584595;0.0068511962890625;-10.552932739257812;-0.4177703857421875
1445425688761;196.52264404296875;-97.17510223388672;-1.2476999759674072;-0.5030975341796875;-10.180282592773438;-0.9277191162109375
1445425688793;199.0821533203125;-96.54560089111328;-1.1821070909500122;-0.660003662109375;-9.650726318359375;-1.712249755859375
1445425688827;200.313232421875;-96.16876983642578;-1.1607061624526978;-0.5619354248046875;-9.650726318359375;-2.5359954833984375
1445425688859;201.7760009765625;-95.64749908447266;-1.3091001510620117;-0.660003662109375;-9.591873168945312;-2.4967803955078125
1445425688892;202.622802734375;-95.55506896972656;-1.4000344276428223;-1.1895599365234375;-9.140777587890625;-2.339874267578125
1445425688926;203.1607666015625;-95.58622741699219;-1.3550044298171997;-1.3072357177734375;-9.591873168945312;-2.398712158203125
1445425688958;204.14837646484375;-96.16999816894531;-0.9893414378166199;-1.346466064453125;-9.827239990234375;-1.574951171875
1445425688992;204.4261474609375;-97.26493072509766;-0.3538641035556793;-0.895355224609375;-9.670333862304688;-0.4766082763671875
1445425689025;204.112060546875;-97.63745880126953;-0.3167772591114044;-2.17022705078125;-11.886642456054688;0.052947998046875
1445425689057;202.53076171875;-98.52433776855469;-0.8075113892555237;-1.3660736083984375;-11.710113525390625;0.327545166015625
1445425689090;199.9979248046875;-99.41593933105469;-1.2821136713027954;1.7132110595703125;-11.984695434570312;0.01373291015625
1445425689124;198.77618408203125;-99.49436950683594;-1.4318052530288696;2.43890380859375;-12.004318237304688;-0.1431732177734375
1445425689157;197.5853271484375;-98.98957061767578;-2.150043487548828;4.007965087890625;-10.552932739257812;-1.5553436279296875
1445425689190;197.63720703125;-98.9314193725586;-4.113922119140625;3.321502685546875;-9.552658081054688;-1.947601318359375
1445425689222;197.79180908203125;-99.40591430664062;-5.444616794586182;1.41900634765625;-9.278060913085938;-1.5553436279296875
1445425689255;198.277587890625;-101.06926727294922;-7.823654651641846;-1.169952392578125;-9.081939697265625;-1.496490478515625
1445425689288;198.9290771484375;-101.98162078857422;-8.549592971801758;-0.405029296875;-8.395462036132812;-2.1633453369140625
1445425689321;199.28472900390625;-102.20621490478516;-8.637955665588379;-0.58154296875;-7.92474365234375;-1.96722412109375
1445425689355;199.2816162109375;-102.73368072509766;-8.692991256713867;-0.8169097900390625;-8.395462036132812;-2.6536865234375
1445425689388;199.059814453125;-102.8586196899414;-8.666897773742676;0.3206634521484375;-9.650726318359375;-2.9871063232421875
1445425689420;197.87640380859375;-102.83975982666016;-8.638245582580566;1.0659637451171875;-10.8275146484375;-2.5556182861328125
1445425689462;194.8121337890625;-102.74535369873047;-9.644819259643555;2.2231597900390625;-12.161224365234375;-1.378814697265625
1445425689489;193.061767578125;-102.95125579833984;-10.425260543823242;1.7132110595703125;-10.690231323242188;-0.1039581298828125
1445425689519;191.315673828125;-104.02425384521484;-11.583545684814453;4.1060333251953125;-9.925308227539062;-1.75146484375
1445425689553;191.79876708984375;-104.60310363769531;-12.705399513244629;1.850494384765625;-10.690231323242188;-2.26141357421875
1445425689588;192.1788330078125;-104.71276092529297;-13.102714538574219;1.0267486572265625;-10.8275146484375;-2.08489990234375
1445425689620;192.65264892578125;-104.52311706542969;-13.319195747375488;1.1444244384765625;-10.866744995117188;-2.5359954833984375
1445425689651;193.288330078125;-103.74113464355469;-12.8456449508667;0.869842529296875;-10.19989013671875;-1.75146484375
1445425689684;193.6046142578125;-103.20284271240234;-12.394364356994629;0.8306121826171875;-9.90570068359375;-1.712249755859375
1445425689718;194.1768798828125;-101.91854095458984;-10.911913871765137;0.8109893798828125;-9.06231689453125;-2.14373779296875
1445425689750;194.49981689453125;-101.20186614990234;-9.891721725463867;-0.4442596435546875;-8.709274291992188;-2.339874267578125
1445425689785;195.3133544921875;-99.55384063720703;-7.3447089195251465;-0.97381591796875;-8.630828857421875;-2.08489990234375
1445425689819;195.0391845703125;-97.87947082519531;-5.060314178466797;-0.1696624755859375;-8.218948364257812;-2.2221832275390625
1445425689849;194.48883056640625;-97.4497299194336;-4.234263896942139;1.0071258544921875;-8.003204345703125;-2.8302001953125
1445425689884;194.12890625;-98.82100677490234;-3.378493547439575;2.9488525390625;-7.944366455078125;-2.9478759765625
1445425689917;195.48040771484375;-103.20391082763672;-3.0928523540496826;3.556854248046875;-9.984146118164062;-2.1241302490234375
1445425689950;196.146728515625;-105.7641372680664;-2.8585081100463867;3.4195709228515625;-12.082763671875;-1.829925537109375
1445425689985;197.326171875;-109.5564956665039;-1.7664011716842651;3.2234344482421875;-13.2791748046875;-3.16363525390625
1445425690014;197.1939697265625;-112.33995819091797;-0.7430225610733032;1.438629150390625;-12.886917114257812;-5.6349029541015625
1445425690047;195.8909912109375;-113.60679626464844;-0.7885199785232544;1.7720489501953125;-12.47503662109375;-5.73297119140625
1445425690081;192.8319091796875;-115.46881866455078;-1.672764539718628;2.38006591796875;-10.062606811523438;-3.4970550537109375
1445425690114;191.21148681640625;-115.93177795410156;-2.2950711250305176;1.732818603515625;-7.68939208984375;-3.4382171630859375
1445425690146;190.67156982421875;-115.81341552734375;-2.58239483833313;1.0659637451171875;-6.43414306640625;-3.026336669921875
1445425690180;189.3394775390625;-115.20653533935547;-3.556929588317871;0.4383392333984375;-5.47308349609375;-1.6141815185546875
1445425690213;188.61517333984375;-114.51095581054688;-4.062713146209717;0.5756378173828125;-6.0811004638671875;-1.457275390625
1445425690246;187.62725830078125;-112.0746078491211;-4.776301860809326;0.3206634521484375;-6.238006591796875;-1.51611328125
1445425690278;188.3092041015625;-109.24781036376953;-4.883957862854004;0.9090576171875;-7.0813751220703125;-1.261138916015625
1445425690312;189.2855224609375;-107.84102630615234;-4.734601974487305;1.732818603515625;-8.395462036132812;-1.7906951904296875
1445425690344;190.96221923828125;-105.19393157958984;-4.548402786254883;2.2231597900390625;-11.415924072265625;-4.08544921875
1445425690378;191.58343505859375;-104.3685302734375;-4.505463123321533;1.3405609130859375;-11.670883178710938;-5.085723876953125
1445425690411;194.2034912109375;-104.88896942138672;-3.6447927951812744;1.673980712890625;-11.415924072265625;-5.3210906982421875
1445425690443;197.76849365234375;-107.43036651611328;-2.0599565505981445;2.38006591796875;-12.828079223632812;-5.7722015380859375
1445425690476;198.8741455078125;-108.91116333007812;-1.6886433362960815;-0.228515625;-12.847686767578125;-5.2622528076171875
1445425690509;198.6182861328125;-111.84817504882812;-2.7947046756744385;-1.3072357177734375;-11.631668090820312;-5.0661163330078125
1445425690542;196.4442138671875;-114.07435607910156;-5.078921794891357;-0.58154296875;-8.454315185546875;-4.3796539306640625
1445425690575;195.72216796875;-114.82587432861328;-6.043462753295898;0.418731689453125;-6.8264007568359375;-2.8105926513671875
1445425690608;194.8878173828125;-115.49581146240234;-7.086513996124268;0.7325439453125;-6.473358154296875;-2.1829681396484375
1445425690641;194.7532958984375;-114.7332534790039;-6.7261128425598145;0.7717742919921875;-6.1399383544921875;-2.1045074462890625
1445425690674;194.92828369140625;-113.96184539794922;-6.242232799530029;0.5756378173828125;-6.2576141357421875;-2.457550048828125
1445425690707;195.76025390625;-112.14750671386719;-4.992683410644531;0.359893798828125;-7.1990509033203125;-3.477447509765625
1445425690740;196.83673095703125;-110.41236877441406;-3.87126088142395;0.1441497802734375;-9.101547241210938;-4.4384918212890625
1445425690774;197.28082275390625;-109.79368591308594;-3.5638797283172607;-0.1892852783203125;-9.886077880859375;-5.0661163330078125
1445425690807;197.71429443359375;-110.11685943603516;-3.1147654056549072;0.418731689453125;-10.101821899414062;-5.5172271728515625
1445425690839;198.1065673828125;-111.11871337890625;-2.598022222518921;2.3996734619140625;-9.866470336914062;-4.9288177490234375
1445425690873;199.16357421875;-113.83702850341797;-1.336972951889038;3.2822723388671875;-9.650726318359375;-5.026885986328125
1445425690906;200.03973388671875;-116.69054412841797;-1.121089220046997;2.752716064453125;-10.690231323242188;-3.653961181640625
1445425690938;200.3134765625;-117.74469757080078;-1.6102114915847778;1.6543731689453125;-11.729736328125;-3.7520294189453125
1445425690971;199.85260009765625;-118.65824127197266;-3.777495861053467;1.811279296875;-11.062881469726562;-3.8108673095703125
1445425691004;199.11712646484375;-117.92841339111328;-6.130622863769531;2.5958099365234375;-10.297958374023438;-3.6147308349609375
1445425691038;198.69110107421875;-116.88189697265625;-7.168149948120117;2.4585113525390625;-9.846847534179688;-3.261688232421875
1445425691070;198.37664794921875;-114.06129455566406;-8.633682250976562;2.4781341552734375;-8.336624145507812;-2.5359954833984375
1445425691103;198.5526123046875;-110.4546890258789;-9.826106071472168;2.2231597900390625;-7.1402130126953125;-2.7517547607421875
1445425691139;198.1951904296875;-108.36746978759766;-10.630485534667969;2.43890380859375;-7.4148101806640625;-4.0070037841796875
1445425691169;195.80889892578125;-104.02596282958984;-12.336320877075195;2.2819976806640625;-8.120880126953125;-5.085723876953125
1445425691202;193.4263916015625;-101.21227264404297;-13.089975357055664;1.18365478515625;-11.023651123046875;-6.3802032470703125
1445425691236;193.4029541015625;-100.71349334716797;-12.65178394317627;0.5167999267578125;-11.612045288085938;-5.595672607421875
1445425691272;194.71600341796875;-101.01359558105469;-10.791662216186523;0.359893798828125;-10.239120483398438;-2.08489990234375
1445425691304;195.42816162109375;-101.67520141601562;-9.67563533782959;0.654083251953125;-8.454315185546875;-3.16363525390625
1445425691335;195.53955078125;-103.18424987792969;-7.341093063354492;-0.032379150390625;-8.82696533203125;-1.437652587890625
1445425691368;194.484619140625;-103.27217102050781;-5.073318004608154;0.0853118896484375;-10.7686767578125;0.445220947265625
1445425691401;194.3153076171875;-103.27315521240234;-4.328150749206543;1.7720489501953125;-10.611770629882812;-1.0257720947265625
1445425691435;194.2423095703125;-104.26696014404297;-3.9817054271698;1.98779296875;-11.062881469726562;0.5236663818359375
1445425691467;196.454345703125;-104.3713607788086;-3.1867458820343018;-0.01275634765625;-11.474761962890625;0.2098541259765625
1445425691500;197.61798095703125;-103.73589324951172;-2.5708835124969482;-0.405029296875;-10.866744995117188;-0.241241455078125
1445425691533;200.012939453125;-102.01001739501953;-1.6624674797058105;-0.7972869873046875;-9.96453857421875;-1.457275390625
1445425691566;202.18328857421875;-100.4242172241211;-1.3060616254806519;-0.5619354248046875;-9.356521606445312;-3.0459442138671875
1445425691599;203.00225830078125;-99.6618423461914;-1.2175506353378296;-0.3069610595703125;-9.297683715820312;-3.653961181640625
1445425691631;204.32269287109375;-98.3480453491211;-1.0505164861679077;-0.228515625;-9.199615478515625;-3.830474853515625
1445425691666;205.016845703125;-97.7608413696289;-0.9176332950592041;-1.1895599365234375;-9.631103515625;-3.085174560546875
1445425691698;205.51873779296875;-96.60619354248047;-0.39337158203125;-1.7191162109375;-9.748779296875;-2.37908935546875
1445425691730;204.30010986328125;-96.047119140625;0.7090609669685364;-2.05255126953125;-10.19989013671875;-0.9080963134765625
1445425691764;203.4088134765625;-95.95993041992188;1.5556830167770386;-0.4246368408203125;-10.474472045898438;0.3471527099609375
1445425691796;201.85400390625;-95.7806625366211;3.2348878383636475;1.2032623291015625;-10.19989013671875;-1.06500244140625
1445425691830;199.026611328125;-96.26434326171875;3.545257568359375;1.7132110595703125;-10.14105224609375;-0.7119598388671875
1445425691862;198.78759765625;-96.67805480957031;3.217944622039795;1.6347503662109375;-10.31756591796875;0.111785888671875
1445425691896;200.1041259765625;-96.99789428710938;2.6391918659210205;-0.601165771484375;-11.004043579101562;1.6220245361328125
1445425691928;201.464599609375;-96.26526641845703;2.8009910583496094;-1.797576904296875;-11.062881469726562;1.2297515869140625
1445425691961;201.84954833984375;-95.69338989257812;2.951775074005127;-1.4249267578125;-10.7098388671875;0.7394256591796875
1445425691994;202.3565673828125;-94.55208587646484;2.831333875656128;-0.150054931640625;-9.925308227539062;-0.751190185546875
1445425692027;202.6539306640625;-93.805419921875;2.1216487884521484;-0.032379150390625;-9.552658081054688;-2.7125244140625
1445425692060;202.8724365234375;-93.56273651123047;1.7618919610977173;-0.3069610595703125;-9.493820190429688;-3.22247314453125
1445425692094;203.79217529296875;-93.12332916259766;1.210696816444397;-0.542327880859375;-9.846847534179688;-2.7125244140625
1445425692126;204.101806640625;-93.03388977050781;0.9883884787559509;-1.4249267578125;-10.239120483398438;-1.12384033203125
1445425692160;203.35125732421875;-93.34052276611328;0.8960566520690918;-1.7191162109375;-10.160659790039062;-0.6727447509765625
1445425692192;202.0699462890625;-94.28605651855469;1.4762054681777954;0.5560302734375;-9.552658081054688;-1.3003692626953125
1445425692226;201.7303466796875;-94.92192077636719;1.7520946264266968;1.438629150390625;-9.670333862304688;-2.5359954833984375
1445425692259;200.6087646484375;-96.5162353515625;1.4191542863845825;0.595245361328125;-10.08221435546875;-1.3592071533203125
1445425692292;200.33758544921875;-97.52008819580078;0.992317259311676;-0.6207733154296875;-10.690231323242188;1.4062652587890625
1445425692325;201.40234375;-99.5760726928711;0.5821086168289185;-0.8169097900390625;-11.33746337890625;1.465118408203125
1445425692357;202.630859375;-100.2799072265625;0.9193998575210571;0.22259521484375;-12.141616821289062;0.36676025390625
1445425692391;203.52099609375;-99.69984436035156;0.7327934503555298;1.2032623291015625;-11.180557250976562;-0.1039581298828125
1445425692424;204.00823974609375;-99.32786560058594;0.29907312989234924;1.2817230224609375;-10.454864501953125;-0.4373779296875
1445425692455;205.2171630859375;-98.71768188476562;-1.1749790906906128;0.8502197265625;-9.807632446289062;-0.7904205322265625
1445425692490;206.09051513671875;-98.44904327392578;-1.9357434511184692;0.28143310546875;-9.12115478515625;-1.0257720947265625
1445425692522;208.499267578125;-97.76589965820312;-3.201552152633667;0.0656890869140625;-9.160385131835938;-1.12384033203125
1445425692555;211.68896484375;-97.34275817871094;-4.181000232696533;-0.228515625;-10.121444702148438;-1.00616455078125
1445425692591;213.37808227539062;-97.30101013183594;-4.462023735046387;-0.3069610595703125;-10.337188720703125;-1.00616455078125
1445425692621;216.43536376953125;-97.71308135986328;-4.363976001739502;-0.228515625;-10.042984008789062;-0.868865966796875
1445425692655;219.66766357421875;-99.55543518066406;-3.1891865730285645;0.16375732421875;-9.474197387695312;-1.06500244140625
1445425692687;221.2996826171875;-101.05490112304688;-2.1777186393737793;-0.032379150390625;-9.45458984375;-1.810302734375
1445425692721;224.04165649414062;-104.73592376708984;0.40413200855255127;-0.97381591796875;-9.650726318359375;-3.9677734375
1445425692753;226.12423706054688;-108.93240356445312;2.478013753890991;-1.169952392578125;-8.905410766601562;-5.301483154296875
1445425692787;227.08563232421875;-110.7446517944336;3.049968957901001;-0.5619354248046875;-8.76812744140625;-5.360321044921875
1445425692821;228.34262084960938;-112.61444854736328;3.039968729019165;0.6344757080078125;-10.003753662109375;-4.47772216796875
1445425692853;228.7315673828125;-112.86038970947266;2.6132023334503174;0.5756378173828125;-11.062881469726562;-3.45782470703125
1445425692885;229.27703857421875;-112.4508056640625;1.4374290704727173;0.2618255615234375;-10.8863525390625;-3.0459442138671875
1445425692918;229.6531982421875;-111.15007019042969;0.1467638611793518;0.34027099609375;-9.042709350585938;-1.7906951904296875
1445425692951;230.04898071289062;-110.22521209716797;-0.4231237471103668;0.6737060546875;-8.062042236328125;-1.5357208251953125
1445425692985;230.7086181640625;-107.95252990722656;-1.9875056743621826;0.869842529296875;-7.434417724609375;-1.829925537109375
1445425693018;230.9730224609375;-106.7190933227539;-2.9672863483428955;1.0071258544921875;-7.92474365234375;-2.3006439208984375
1445425693050;231.70709228515625;-104.30034637451172;-5.038853645324707;1.0855865478515625;-8.787734985351562;-2.3594818115234375
1445425693085;232.84613037109375;-102.3404312133789;-6.9425129890441895;1.0267486572265625;-10.611770629882812;-3.4185943603515625
1445425693116;233.45770263671875;-101.93834686279297;-8.009072303771973;1.164031982421875;-11.847412109375;-6.242919921875
1445425693149;234.07284545898438;-102.83220672607422;-8.01093578338623;0.869842529296875;-11.690505981445312;-7.10589599609375
1445425693184;236.44403076171875;-106.49595642089844;-7.264608383178711;-0.4246368408203125;-9.06231689453125;-5.3406982421875
1445425693217;238.13275146484375;-108.6696548461914;-6.686408042907715;-0.4442596435546875;-7.35595703125;-3.026336669921875
1445425693248;239.99810791015625;-112.4992904663086;-5.878458499908447;0.1833648681640625;-7.552093505859375;-2.9282684326171875
1445425693284;239.51956176757812;-114.92985534667969;-5.706881523132324;1.0071258544921875;-10.101821899414062;-4.53656005859375
1445425693315;239.16995239257812;-115.74517059326172;-5.736934185028076;0.8306121826171875;-10.19989013671875;-4.8699798583984375
1445425693348;238.90493774414062;-116.78960418701172;-5.671005725860596;1.2817230224609375;-9.788009643554688;-4.8307647705078125
1445425693380;237.96441650390625;-116.95909881591797;-6.0250701904296875;1.673980712890625;-9.376129150390625;-4.2031402587890625
1445425693418;237.0892333984375;-116.66677856445312;-6.525254249572754;1.3209381103515625;-9.101547241210938;-3.8697052001953125
1445425693447;235.02658081054688;-115.44535827636719;-7.7964348793029785;0.8306121826171875;-8.4346923828125;-3.536285400390625
1445425693489;232.89614868164062;-113.81306457519531;-8.916065216064453;1.164031982421875;-8.3170166015625;-3.889312744140625
1445425693512;231.85293579101562;-112.9959487915039;-9.38305950164795;1.41900634765625;-8.513153076171875;-4.222747802734375
1445425693547;230.02938842773438;-111.68978118896484;-10.074357032775879;1.6543731689453125;-8.76812744140625;-4.5757904052734375
1445425693579;229.036865234375;-111.33526611328125;-10.25256633758545;1.18365478515625;-8.238555908203125;-4.1835174560546875
1445425693612;228.95077514648438;-111.64940643310547;-10.168034553527832;0.8306121826171875;-7.86590576171875;-3.85009765625
1445425693644;229.20928955078125;-112.74887084960938;-9.785204887390137;0.5560302734375;-8.179718017578125;-3.6343536376953125
1445425693678;229.38177490234375;-113.34185028076172;-9.467413902282715;0.987518310546875;-8.76812744140625;-3.4382171630859375
1445425693713;229.6214599609375;-114.349853515625;-8.461173057556152;1.53668212890625;-8.94464111328125;-3.3009185791015625
1445425693744;229.9757080078125;-115.15506744384766;-6.849879264831543;2.5369720458984375;-9.631103515625;-3.6343536376953125
1445425693782;230.2130126953125;-115.68013763427734;-5.324713230133057;2.3996734619140625;-10.552932739257812;-4.2423553466796875
1445425693819;230.2060546875;-115.8613052368164;-4.85429048538208;1.615142822265625;-10.729446411132812;-4.6150054931640625
1445425693853;229.51507568359375;-116.00350952148438;-4.824699878692627;1.47784423828125;-10.376419067382812;-4.4973297119140625
1445425693875;228.8251953125;-115.85464477539062;-5.075737476348877;1.3797760009765625;-9.925308227539062;-4.0658416748046875
1445425693908;227.45001220703125;-115.08345031738281;-5.494533538818359;1.222869873046875;-9.140777587890625;-3.085174560546875
1445425693946;226.58587646484375;-113.96392059326172;-5.652058124542236;1.2032623291015625;-8.513153076171875;-2.575225830078125
1445425693983;225.748046875;-112.84696960449219;-5.917405605316162;1.3209381103515625;-8.611221313476562;-3.1244049072265625
1445425694008;225.40155029296875;-112.4227066040039;-6.0439629554748535;1.438629150390625;-8.670059204101562;-3.595123291015625
1445425694041;225.28326416015625;-112.14742279052734;-6.11121129989624;1.0267486572265625;-8.356246948242188;-3.16363525390625
1445425694107;226.7913818359375;-111.87135314941406;-5.813698768615723;1.046356201171875;-8.88580322265625;-2.6144561767578125
1445425694162;227.60348510742188;-111.50508880615234;-5.498380661010742;1.4582366943359375;-8.925033569335938;-2.8105926513671875
1445425694168;228.09945678710938;-111.26234436035156;-5.336264133453369;1.4582366943359375;-8.925033569335938;-2.8105926513671875
1445425694196;228.5093994140625;-110.90754699707031;-5.222812175750732;1.5170745849609375;-9.376129150390625;-2.6144561767578125
1445425694229;228.94113159179688;-109.7708969116211;-5.088254928588867;1.850494384765625;-10.297958374023438;-2.14373779296875
1445425694265;229.002685546875;-108.91260528564453;-5.151060104370117;2.61541748046875;-10.925582885742188;-2.08489990234375
1445425694295;228.90911865234375;-106.8658218383789;-5.562912940979004;2.7723236083984375;-10.866744995117188;-2.1829681396484375
1445425694328;229.12420654296875;-104.585693359375;-5.8942551612854;1.9681854248046875;-10.552932739257812;-2.065277099609375
1445425694363;229.22198486328125;-103.37098693847656;-6.037941932678223;1.0267486572265625;-10.160659790039062;-1.457275390625
1445425694393;229.58233642578125;-100.77933502197266;-6.149197101593018;1.0267486572265625;-9.866470336914062;-1.319976806640625
1445425694427;229.616455078125;-98.27140045166016;-6.103902339935303;0.9482879638671875;-9.748779296875;-1.8495330810546875
1445425694461;229.4478759765625;-97.19802856445312;-6.034731388092041;0.8502197265625;-9.827239990234375;-1.9279937744140625
1445425694493;229.6055908203125;-95.50076293945312;-5.671872138977051;0.6933135986328125;-9.709564208984375;-1.810302734375
1445425694526;230.14141845703125;-94.38997650146484;-4.997701644897461;0.34027099609375;-9.709564208984375;-1.3984375
1445425694559;230.30670166015625;-94.04537963867188;-4.563137054443359;-0.150054931640625;-10.219512939453125;-1.378814697265625
1445425694591;230.3404541015625;-93.55596923828125;-3.3439252376556396;-0.836517333984375;-10.376419067382812;-1.2807464599609375
1445425694625;230.284423828125;-93.48161315917969;-2.572601318359375;0.477569580078125;-10.101821899414062;-1.2415313720703125
1445425694658;229.9801025390625;-93.88088989257812;-1.2827380895614624;0.7129364013671875;-11.10211181640625;-1.810302734375
1445425694690;230.53109741210938;-95.21011352539062;-0.4404900372028351;0.7521514892578125;-10.180282592773438;-1.0257720947265625
1445425694724;230.940673828125;-96.08065795898438;-0.16966556012630463;0.536407470703125;-9.552658081054688;-0.574676513671875
1445425694757;231.952392578125;-97.75865173339844;0.000047811325202928856;-0.895355224609375;-11.357070922851562;-1.084625244140625
1445425694789;233.26800537109375;-98.66075134277344;0.41300466656684875;-1.0130462646484375;-10.9451904296875;-1.2415313720703125
1445425694822;234.0145263671875;-98.87914276123047;0.6967169642448425;-1.15032958984375;-10.454864501953125;-1.202301025390625
1445425694856;235.235107421875;-99.08509063720703;1.0448274612426758;-1.20916748046875;-10.8863525390625;-1.5945587158203125
1445425694889;236.237060546875;-98.91834259033203;1.2371457815170288;-0.836517333984375;-10.356796264648438;-1.4768829345703125
1445425694922;236.7235107421875;-98.63545227050781;1.2809277772903442;-0.6796112060546875;-9.846847534179688;-1.5553436279296875
1445425694955;237.58706665039062;-97.85771942138672;1.1895781755447388;-0.4246368408203125;-9.434967041015625;-1.8495330810546875
1445425694987;237.92218017578125;-97.47772979736328;1.0439172983169556;-0.1892852783203125;-9.395751953125;-2.32025146484375
1445425695021;238.32861328125;-96.86470031738281;0.6162844896316528;-0.3854217529296875;-9.376129150390625;-2.4771575927734375
1445425695054;238.620361328125;-96.43232727050781;0.2368357628583908;-0.8757476806640625;-9.278060913085938;-2.281036376953125
1445425695087;238.82958984375;-96.27530670166016;0.2257707715034485;-0.7580718994140625;-9.356521606445312;-1.4180450439453125
1445425695120;238.74700927734375;-96.36933898925781;0.5235891342163086;-0.326568603515625;-9.297683715820312;-1.06500244140625
1445425695153;238.0111083984375;-97.22596740722656;0.9608801007270813;-0.091217041015625;-9.474197387695312;-1.3592071533203125
1445425695186;237.81622314453125;-97.75933074951172;1.1912842988967896;0.10491943359375;-9.788009643554688;-1.261138916015625
1445425695222;238.07565307617188;-98.96390533447266;1.660696029663086;0.4383392333984375;-10.494094848632812;-1.06500244140625
1445425695251;239.12515258789062;-99.87789916992188;1.8653517961502075;0.301055908203125;-11.16094970703125;-1.202301025390625
1445425695285;239.82028198242188;-100.1526107788086;1.7901508808135986;0.1245269775390625;-11.16094970703125;-0.8492584228515625
1445425695318;241.36306762695312;-100.47702026367188;1.4122779369354248;0.22259521484375;-11.062881469726562;-0.2608642578125
1445425695351;243.18145751953125;-100.4645767211914;0.8635614514350891;0.3206634521484375;-10.5333251953125;-0.4569854736328125
1445425695385;244.23477172851562;-100.33731079101562;0.5773963928222656;0.1833648681640625;-10.101821899414062;-0.7315826416015625
1445425695417;246.44332885742188;-100.10912322998047;0.08664780855178833;-0.6992340087890625;-9.180007934570312;-1.829925537109375
1445425695451;247.5494384765625;-100.06832885742188;-0.08878395706415176;-1.6210479736328125;-9.317291259765625;-2.37908935546875
1445425695483;249.59173583984375;-100.16633605957031;-0.23971986770629883;-2.0133209228515625;-9.493820190429688;-2.6536865234375
1445425695518;250.7806396484375;-100.69586181640625;0.21723809838294983;-2.17022705078125;-9.709564208984375;-2.3006439208984375
1445425695551;250.9373779296875;-101.37294006347656;0.7678644061088562;-0.7972869873046875;-9.042709350585938;-1.771087646484375
1445425695583;249.85330200195312;-104.05604553222656;2.109703779220581;0.4971771240234375;-8.4346923828125;-2.4967803955078125
1445425695615;248.70327758789062;-107.92369842529297;3.3391613960266113;0.6344757080078125;-8.1405029296875;-4.2031402587890625
1445425695647;248.38397216796875;-109.84982299804688;3.858247995376587;-0.58154296875;-8.513153076171875;-4.458099365234375
1445425695681;248.46218872070312;-112.72562408447266;5.000594139099121;-1.3072357177734375;-9.611495971679688;-3.2420806884765625
1445425695714;248.49298095703125;-113.55535125732422;5.416651248931885;-0.8169097900390625;-10.19989013671875;-2.9871063232421875
1445425695746;247.8135986328125;-114.05728149414062;5.271994113922119;0.1441497802734375;-10.415634155273438;-2.8890380859375
1445425695779;247.1705322265625;-112.86872863769531;4.496930122375488;1.75244140625;-11.435531616210938;-2.516387939453125
1445425695812;246.92562866210938;-111.8994140625;3.871424436569214;1.497467041015625;-10.8863525390625;-2.5556182861328125
1445425695846;246.09368896484375;-109.30175018310547;2.1937572956085205;1.046356201171875;-10.02337646484375;-2.26141357421875
1445425695879;245.83035278320312;-105.95578002929688;0.6153146028518677;1.1444244384765625;-9.140777587890625;-1.6730194091796875
1445425695912;246.0506591796875;-104.0852279663086;-0.06270115077495575;1.3405609130859375;-9.160385131835938;-1.12384033203125
1445425695945;246.66653442382812;-100.1769027709961;-1.2511699199676514;0.8109893798828125;-8.748504638671875;0.386383056640625
1445425695978;247.01861572265625;-96.08143615722656;-1.9831827878952026;-0.895355224609375;-9.160385131835938;-0.751190185546875
1445425696011;247.03463745117188;-94.03395080566406;-1.8781466484069824;-1.5426025390625;-9.90570068359375;-1.143463134765625
1445425696043;246.65899658203125;-90.86405944824219;-0.9549183249473572;-0.3854217529296875;-12.102386474609375;-3.28131103515625
1445425696077;246.72003173828125;-90.02271270751953;-0.1026492640376091;-0.228515625;-9.68994140625;-2.26141357421875
1445425696110;246.75466918945312;-90.33526611328125;0.07310524582862854;-0.58154296875;-9.513427734375;-1.888763427734375
1445425696146;245.68853759765625;-91.85816192626953;0.18111300468444824;-1.6602783203125;-12.945755004882812;-3.202850341796875
1445425696183;245.47543334960938;-94.0980453491211;0.6979482173919678;-0.4834747314453125;-10.14105224609375;-0.9080963134765625
1445425696209;245.5499267578125;-95.50238800048828;0.7541190981864929;0.301055908203125;-9.160385131835938;0.36676025390625
1445425696242;246.34848022460938;-97.49746704101562;0.7166814208030701;0.1245269775390625;-11.867019653320312;-0.4177703857421875
1445425696274;247.30215454101562;-97.87896728515625;0.8283771872520447;0.3991241455078125;-12.35736083984375;-0.633514404296875
1445425696325;250.62042236328125;-97.6094970703125;0.35429784655570984;-0.326568603515625;-10.7098388671875;-0.6531219482421875
1445425696341;251.33660888671875;-97.34501647949219;-0.1300298571586609;-0.660003662109375;-10.19989013671875;-1.143463134765625
1445425696373;251.84225463867188;-96.97322082519531;-0.653256893157959;-0.895355224609375;-9.493820190429688;-1.51611328125
1445425696406;252.79403686523438;-96.1281509399414;-1.526208758354187;-0.4638671875;-8.395462036132812;-2.516387939453125
1445425696440;253.5225830078125;-95.71170043945312;-1.8541618585586548;0.242218017578125;-8.846572875976562;-3.22247314453125
1445425696473;255.10360717773438;-95.32473754882812;-2.4668326377868652;-0.1696624755859375;-9.376129150390625;-2.8694305419921875
1445425696506;256.11993408203125;-95.42605590820312;-2.109391450881958;-0.895355224609375;-9.160385131835938;-2.1045074462890625
1445425696538;256.36767578125;-95.638427734375;-1.7305941581726074;-0.287353515625;-8.94464111328125;-3.144012451171875
1445425696572;257.28564453125;-96.667724609375;-0.9289140105247498;1.12481689453125;-8.866195678710938;-4.8111419677734375
1445425696605;258.3973388671875;-98.95925903320312;-0.8169559240341187;0.4383392333984375;-9.06231689453125;-1.437652587890625
1445425696639;259.05999755859375;-100.124267578125;-0.9378097653388977;-0.5030975341796875;-11.51397705078125;0.30792236328125
1445425696672;261.4508056640625;-101.47948455810547;-0.6060590744018555;-1.5818328857421875;-12.41619873046875;-0.5550537109375
1445425696703;262.5831298828125;-101.66138458251953;-0.3171444237232208;-1.0718841552734375;-12.121994018554688;-0.692352294921875
1445425696737;263.6421813964844;-101.14051818847656;-0.10325203090906143;-0.4834747314453125;-11.16094970703125;-0.7904205322265625
1445425696770;263.6965637207031;-99.98983001708984;-0.6018412113189697;0.22259521484375;-9.552658081054688;-2.08489990234375
1445425696804;263.9823913574219;-99.33496856689453;-0.8337273597717285;0.34027099609375;-8.88580322265625;-3.0655670166015625
1445425696845;266.38800048828125;-97.70878601074219;-1.2186198234558105;0.7129364013671875;-9.3369140625;-3.6343536376953125
1445425696869;267.5103759765625;-97.48416137695312;-1.3690708875656128;0.3991241455078125;-9.3369140625;-3.3597564697265625
1445425696902;270.0804138183594;-98.59559631347656;-1.6461586952209473;-0.150054931640625;-9.68994140625;-2.575225830078125
1445425696937;271.36883544921875;-100.21833801269531;-1.406726598739624;0.0853118896484375;-9.90570068359375;-2.8498077392578125
1445425696968;273.6073303222656;-104.84136199951172;-0.25960782170295715;-0.718841552734375;-11.062881469726562;-4.41888427734375
1445425697001;273.9388427734375;-107.47310638427734;0.11932861059904099;-2.17022705078125;-10.925582885742188;-3.5558929443359375
1445425697036;274.8451232910156;-112.57017517089844;1.0501834154129028;-1.1895599365234375;-10.415634155273438;-2.9871063232421875
1445425697066;275.55645751953125;-114.94158172607422;1.9559040069580078;0.1441497802734375;-9.90570068359375;-2.281036376953125
1445425697101;274.90130615234375;-115.21334075927734;1.8669630289077759;-0.287353515625;-9.650726318359375;-2.7321319580078125
1445425697134;271.302001953125;-114.44739532470703;0.5674648284912109;-1.7779541015625;-8.1405029296875;-3.712799072265625
1445425697167;266.4337463378906;-112.14385986328125;-1.6145920753479004;-2.5036468505859375;-6.7675628662109375;-2.2221832275390625
1445425697199;264.01171875;-110.59371185302734;-2.753113269805908;-1.8760223388671875;-6.806793212890625;-1.5553436279296875
1445425697234;258.84765625;-107.73440551757812;-5.102667808532715;0.6737060546875;-9.68994140625;-2.3006439208984375
1445425697265;253.92669677734375;-106.61011505126953;-6.911083221435547;4.007965087890625;-11.043258666992188;-3.477447509765625
1445425697298;252.3656005859375;-107.0423583984375;-7.480014324188232;5.596649169921875;-10.807907104492188;-4.8896026611328125
1445425697330;251.201904296875;-109.32926940917969;-9.186624526977539;5.7339324951171875;-9.846847534179688;-3.6147308349609375
1445425697364;251.99685668945312;-111.33879852294922;-10.112475395202637;5.380889892578125;-11.239395141601562;-1.457275390625
1445425697396;255.74957275390625;-115.2474136352539;-10.837882041931152;5.145538330078125;-11.27862548828125;-1.06500244140625
1445425697429;259.364501953125;-117.3916244506836;-11.11811351776123;2.988067626953125;-10.5333251953125;-2.26141357421875
1445425697462;260.5513610839844;-117.81985473632812;-11.308985710144043;1.9485626220703125;-9.925308227539062;-3.0459442138671875
1445425697495;262.60626220703125;-117.66996002197266;-11.109259605407715;1.0071258544921875;-8.062042236328125;-3.771636962890625
1445425697528;265.1296691894531;-116.5445785522461;-10.171823501586914;0.7913818359375;-6.5910491943359375;-3.2420806884765625
1445425697563;266.6204833984375;-115.72267150878906;-9.63801097869873;0.595245361328125;-6.179168701171875;-2.7909698486328125
1445425697594;269.7315673828125;-114.0083999633789;-8.626273155212402;1.164031982421875;-6.296844482421875;-2.5948486328125
1445425697628;271.3621520996094;-113.2833251953125;-8.111997604370117;1.438629150390625;-8.336624145507812;-3.9481658935546875
1445425697661;275.5911865234375;-112.62638854980469;-6.569576263427734;1.36016845703125;-10.435256958007812;-5.61529541015625
1445425697694;280.3687438964844;-112.842041015625;-4.059642314910889;-0.895355224609375;-14.573654174804688;-7.5177764892578125
1445425697727;282.0584411621094;-113.03176879882812;-3.0508804321289062;-2.621337890625;-11.90625;-5.477996826171875
1445425697759;283.6235046386719;-113.36566162109375;-2.137089490890503;-2.17022705078125;-10.31756591796875;-4.5561676025390625
1445425697793;281.94549560546875;-113.31851196289062;-2.6540181636810303;-1.7779541015625;-9.081939697265625;-4.0070037841796875
1445425697827;280.2759704589844;-112.90262603759766;-3.249908685684204;-1.974090576171875;-8.179718017578125;-3.6147308349609375
1445425697859;276.0223083496094;-111.15570831298828;-4.787939071655273;-1.738739013671875;-5.8849639892578125;-2.9478759765625
1445425697892;271.12518310546875;-109.0296859741211;-6.694503307342529;-1.4249267578125;-5.47308349609375;-3.144012451171875
1445425697925;268.73931884765625;-108.18350982666016;-7.751811981201172;-1.4837646484375;-6.061492919921875;-3.3205413818359375
1445425697960;263.92822265625;-107.59646606445312;-10.255743980407715;-1.0718841552734375;-8.297409057617188;-4.163909912109375
1445425697990;261.53228759765625;-108.2500228881836;-11.45193099975586;-0.150054931640625;-9.356521606445312;-4.59539794921875
1445425698024;259.1146545410156;-111.67542266845703;-12.077827453613281;5.4005126953125;-11.21978759765625;-6.105621337890625
1445425698057;258.9846496582031;-115.95387268066406;-11.489150047302246;3.57647705078125;-12.239669799804688;-2.37908935546875
1445425698090;259.15325927734375;-117.78262329101562;-10.722315788269043;3.831451416015625;-11.572830200195312;-2.908660888671875
1445425698123;259.28228759765625;-120.51514434814453;-8.441435813903809;4.7336578369140625;-11.768951416015625;-3.9285430908203125
1445425698156;258.2975769042969;-121.82393646240234;-7.5993170738220215;5.596649169921875;-11.631668090820312;-3.7324066162109375
1445425698188;257.8719177246094;-122.11096954345703;-7.403032302856445;5.4005126953125;-10.8275146484375;-3.16363525390625
1445425698223;257.775390625;-121.58472442626953;-6.669006824493408;4.439453125;-7.80706787109375;-2.02606201171875
1445425698255;259.081298828125;-119.34561157226562;-5.326854228973389;2.6546478271484375;-5.8261260986328125;-3.085174560546875
1445425698289;259.7677307128906;-117.37942504882812;-4.644912242889404;1.0855865478515625;-5.6496124267578125;-4.281585693359375
1445425698321;259.8955383300781;-112.5346908569336;-3.9501874446868896;-1.9544830322265625;-6.55181884765625;-6.733245849609375
1445425698353;257.4478454589844;-108.943359375;-4.623889923095703;-3.54315185546875;-7.92474365234375;-9.400650024414062
1445425698387;256.49420166015625;-108.39234161376953;-4.556234359741211;-4.818023681640625;-9.533035278320312;-8.00811767578125
1445425698420;256.16790771484375;-109.4620361328125;-2.8235201835632324;-0.522705078125;-10.611770629882812;-2.281036376953125
1445425698453;253.70162963867188;-110.27278137207031;-2.9260270595550537;0.8502197265625;-8.297409057617188;-2.9871063232421875
1445425698486;248.89791870117188;-112.03765869140625;-4.258680820465088;-0.208892822265625;-8.689666748046875;-1.2219085693359375
1445425698518;248.0648193359375;-113.72888946533203;-3.792637825012207;1.7132110595703125;-11.690505981445312;-0.3981475830078125
1445425698554;247.954833984375;-114.00332641601562;-3.579939365386963;-0.267730712890625;-12.65155029296875;-0.3981475830078125
1445425698585;247.4443359375;-113.54180908203125;-3.515514373779297;-1.169952392578125;-13.49493408203125;-0.3589324951171875
1445425698618;244.9910888671875;-112.02403259277344;-4.605986595153809;-0.1892852783203125;-12.59271240234375;-1.712249755859375
1445425698651;243.82745361328125;-111.04899597167969;-5.295429229736328;1.105194091796875;-10.749069213867188;-1.9868316650390625
1445425698683;242.2352294921875;-109.04547119140625;-6.465601921081543;2.10546875;-7.4540252685546875;-3.653961181640625
1445425698717;243.038818359375;-106.97486114501953;-6.416355609893799;1.36016845703125;-8.160110473632812;-4.0070037841796875
1445425698750;244.10284423828125;-106.05127716064453;-5.955697536468506;1.046356201171875;-8.4935302734375;-4.0658416748046875
1445425698785;244.9779052734375;-105.4213638305664;-5.130778789520264;0.7325439453125;-8.630828857421875;-6.5175018310546875
1445425698816;245.56634521484375;-107.2370376586914;-4.207617282867432;0.7521514892578125;-7.0225372314453125;-4.8699798583984375
1445425698849;246.38458251953125;-108.55964660644531;-3.5640485286712646;0.6933135986328125;-6.355682373046875;-4.1246795654296875
1445425698883;247.81423950195312;-110.50569915771484;-1.7436851263046265;-1.287628173828125;-7.7678375244140625;-3.536285400390625
1445425698915;248.50042724609375;-110.95895385742188;-0.7126923203468323;-1.03265380859375;-9.591873168945312;-2.634063720703125
1445425698948;249.44830322265625;-110.50646209716797;0.00711193447932601;2.183929443359375;-15.475875854492188;-1.378814697265625
1445425698985;250.24246215820312;-109.0749282836914;-0.6679632067680359;2.5761871337890625;-12.71038818359375;-1.2415313720703125
1445425699013;251.07028198242188;-108.01708984375;-0.7270368337631226;1.7720489501953125;-10.376419067382812;-1.5945587158203125
1445425699047;252.90274047851562;-104.96651458740234;-0.7163313031196594;-0.4638671875;-8.179718017578125;-3.16363525390625
1445425699080;253.25186157226562;-101.93528747558594;-1.4805467128753662;-0.542327880859375;-7.80706787109375;-4.8699798583984375
1445425699114;253.03582763671875;-100.97215270996094;-2.1383183002471924;-0.267730712890625;-7.4736480712890625;-4.8307647705078125
1445425699146;252.32223510742188;-100.09941101074219;-3.072894334793091;0.0853118896484375;-7.9051361083984375;-4.2031402587890625
1445425699179;251.18405151367188;-100.31309509277344;-3.314375638961792;0.3795013427734375;-10.670608520507812;-3.653961181640625
1445425699213;250.8883056640625;-100.50299835205078;-3.546553611755371;0.22259521484375;-12.004318237304688;-1.829925537109375
1445425699245;251.18853759765625;-100.79058074951172;-4.565567493438721;1.3405609130859375;-10.847137451171875;-0.2216339111328125
1445425699277;251.35379028320312;-100.94088745117188;-5.2847723960876465;-0.2481231689453125;-10.25872802734375;1.9358367919921875
1445425699311;252.26934814453125;-101.47642517089844;-6.35971736907959;-1.0130462646484375;-11.612045288085938;2.1123504638671875
1445425699344;253.43402099609375;-100.77818298339844;-6.240692615509033;-0.228515625;-13.083053588867188;1.2297515869140625
1445425699378;254.17767333984375;-99.91211700439453;-6.053121566772461;1.47784423828125;-12.043548583984375;-0.6531219482421875
1445425699410;256.375;-97.77717590332031;-6.130603790283203;2.4781341552734375;-11.33746337890625;-1.18267822265625
1445425699442;260.2081604003906;-96.20507049560547;-6.603107929229736;3.949127197265625;-9.297683715820312;-2.08489990234375
1445425699476;262.94207763671875;-95.73454284667969;-6.774773120880127;3.3018798828125;-8.218948364257812;-2.08489990234375
1445425699509;269.5396423339844;-95.54743957519531;-7.025954723358154;-0.3657989501953125;-8.905410766601562;-1.51611328125
1445425699542;273.0247497558594;-96.18404388427734;-6.953033447265625;-1.3856964111328125;-11.10211181640625;-0.4373779296875
1445425699575;278.61578369140625;-99.73849487304688;-5.831079006195068;-1.0130462646484375;-9.827239990234375;-0.2804718017578125
1445425699608;281.6460266113281;-105.08891296386719;-4.263509273529053;0.5167999267578125;-7.179443359375;-2.9478759765625
1445425699641;285.7386779785156;-111.36538696289062;-2.9108834266662598;2.419281005859375;-9.96453857421875;-6.0663909912109375
1445425699674;287.78289794921875;-114.25614166259766;-2.6763103008270264;2.5173492431640625;-13.1026611328125;-5.360321044921875
1445425699707;290.2984619140625;-118.29606628417969;-3.106395959854126;0.987518310546875;-12.41619873046875;-3.6931915283203125
1445425699740;290.80804443359375;-119.28083801269531;-3.4427943229675293;1.3993988037109375;-10.8863525390625;-3.830474853515625
1445425699772;290.8106689453125;-119.46391296386719;-4.515274524688721;1.24249267578125;-9.68994140625;-4.968048095703125
1445425699805;289.6241149902344;-117.5175552368164;-6.372217178344727;0.1833648681640625;-6.806793212890625;-3.889312744140625
1445425699839;288.7183837890625;-116.17640686035156;-7.543132781982422;0.0656890869140625;-5.669219970703125;-2.7517547607421875
1445425699872;287.2491760253906;-112.76942443847656;-9.864160537719727;1.2817230224609375;-5.041595458984375;-1.810302734375
1445425699905;286.5546569824219;-108.83491516113281;-11.97233772277832;1.47784423828125;-8.76812744140625;-3.0067291259765625
1445425699940;286.5151672363281;-107.04669952392578;-12.994431495666504;1.732818603515625;-10.062606811523438;-3.5558929443359375
1445425699971;287.9466247558594;-105.71809387207031;-13.936385154724121;2.43890380859375;-9.376129150390625;-3.39898681640625
1445425700004;290.49432373046875;-107.09740447998047;-14.078843116760254;1.41900634765625;-9.788009643554688;-3.653961181640625
1445425700037;291.122802734375;-107.73016357421875;-14.48717975616455;0.418731689453125;-10.631378173828125;-3.7324066162109375
1445425700069;290.3398742675781;-108.2639389038086;-15.566558837890625;0.1441497802734375;-10.376419067382812;-4.1246795654296875
1445425700103;289.51812744140625;-108.13748168945312;-15.829222679138184;1.222869873046875;-9.415359497070312;-3.3009185791015625
1445425700135;287.36810302734375;-106.74832916259766;-15.979560852050781;1.12481689453125;-8.218948364257812;-3.0459442138671875
1445425700169;284.53826904296875;-104.56053161621094;-16.241615295410156;0.28143310546875;-6.473358154296875;-2.908660888671875
1445425700207;282.06048583984375;-102.96369171142578;-16.450380325317383;-0.1696624755859375;-6.944091796875;-3.28131103515625
1445425700235;281.0772399902344;-102.8642349243164;-16.356842041015625;-0.4246368408203125;-7.669769287109375;-3.39898681640625
1445425700268;280.7235412597656;-105.06404876708984;-15.149016380310059;0.34027099609375;-7.57171630859375;-3.3597564697265625
1445425700301;281.96240234375;-107.58467102050781;-13.767542839050293;1.6347503662109375;-7.257904052734375;-4.4384918212890625
1445425700335;286.8988037109375;-114.054443359375;-9.348325729370117;2.811553955078125;-7.944366455078125;-3.712799072265625
1445425700367;288.3155517578125;-119.55506134033203;-3.662742853164673;-1.3856964111328125;-12.47503662109375;-5.3210906982421875
1445425700399;288.2979736328125;-120.9459457397461;-0.4093606472015381;0.8109893798828125;-15.083602905273438;-7.7139129638671875
1445425700434;285.25189208984375;-122.68285369873047;2.289545774459839;1.9485626220703125;-12.769241333007812;-7.753143310546875
1445425700466;283.1705627441406;-123.61634826660156;2.742962121963501;1.3797760009765625;-11.21978759765625;-6.439056396484375
1445425700500;278.4820556640625;-123.88707733154297;2.2666261196136475;1.2032623291015625;-9.768402099609375;-5.3799285888671875
1445425700534;272.932373046875;-122.78865051269531;-0.08261800557374954;0.1245269775390625;-6.944091796875;-3.595123291015625
1445425700565;270.17236328125;-121.39392852783203;-1.4110138416290283;0.1441497802734375;-5.9438018798828125;-3.026336669921875
1445425700598;264.74652099609375;-117.07688903808594;-4.593061447143555;0.1833648681640625;-5.786895751953125;-4.36004638671875
1445425700632;258.7476501464844;-112.37921142578125;-8.503706932067871;0.7129364013671875;-8.925033569335938;-5.595672607421875
1445425700668;255.5986328125;-110.67747497558594;-10.166383743286133;0.9482879638671875;-9.729171752929688;-5.536834716796875
1445425700698;248.137451171875;-109.31682586669922;-11.774291038513184;1.046356201171875;-7.6501617431640625;-3.3205413818359375
1445425700729;242.68270874023438;-109.53314208984375;-10.560672760009766;-0.601165771484375;-10.435256958007812;-2.7909698486328125
1445425700763;241.458740234375;-109.79138946533203;-9.047074317932129;-0.777679443359375;-13.0438232421875;-4.0658416748046875
1445425700796;236.36416625976562;-112.01361083984375;-7.722929954528809;1.5955352783203125;-12.004318237304688;-1.7318572998046875
1445425700829;229.40850830078125;-114.63946533203125;-9.98212718963623;3.7137603759765625;-11.749343872070312;1.8573760986328125
1445425700862;229.38674926757812;-115.4154281616211;-10.01890754699707;2.5958099365234375;-13.416473388671875;1.4847259521484375
1445425700895;230.18508911132812;-114.67677307128906;-8.617435455322266;-0.660003662109375;-12.847686767578125;0.7001953125
1445425700928;230.4444580078125;-113.51284790039062;-7.986869812011719;-0.1892852783203125;-10.25872802734375;-1.2415313720703125
1445425700961;229.302001953125;-110.2424545288086;-8.129690170288086;0.7129364013671875;-9.238845825195312;-2.4771575927734375
1445425700994;227.701416015625;-107.39607238769531;-9.224339485168457;1.8701171875;-8.179718017578125;-4.3011932373046875
1445425701029;227.78439331054688;-106.35662841796875;-9.645676612854004;1.8308868408203125;-8.042434692382812;-4.59539794921875
1445425701060;229.46417236328125;-105.04598236083984;-9.805537223815918;1.98779296875;-8.846572875976562;-3.771636962890625
1445425701093;231.63446044921875;-105.10774993896484;-8.771974563598633;0.04608154296875;-9.670333862304688;-5.0661163330078125
1445425701126;232.05673217773438;-105.35279083251953;-7.979696273803711;0.1441497802734375;-9.356521606445312;-6.3409881591796875
1445425701158;231.19281005859375;-106.26686096191406;-6.9073710441589355;2.419281005859375;-7.63055419921875;-6.41943359375
1445425701191;228.33001708984375;-108.3082046508789;-7.467044830322266;2.7919464111328125;-8.4346923828125;-4.0658416748046875
1445425701225;226.63311767578125;-109.23887634277344;-7.843303680419922;2.8507843017578125;-9.081939697265625;-3.34014892578125
1445425701257;225.04989624023438;-110.26828002929688;-8.189983367919922;1.0855865478515625;-9.493820190429688;-2.6536865234375
1445425701291;225.19815063476562;-110.55116271972656;-8.073871612548828;1.556304931640625;-10.297958374023438;-1.00616455078125
1445425701324;227.1226806640625;-110.4072265625;-7.197919845581055;1.791656494140625;-11.808181762695312;-0.7119598388671875
1445425701356;229.96017456054688;-109.64498901367188;-7.648211479187012;0.4971771240234375;-12.318130493164062;0.935546875
1445425701391;231.97735595703125;-109.18565368652344;-7.945950031280518;0.1245269775390625;-11.062881469726562;0.4059906005859375
1445425701422;236.36648559570312;-106.95331573486328;-8.309967041015625;-0.1304473876953125;-10.572540283203125;-0.3589324951171875
1445425701455;238.59716796875;-105.46765899658203;-8.432324409484863;-0.150054931640625;-9.474197387695312;-1.8691558837890625
1445425701490;243.510009765625;-102.51815032958984;-8.699277877807617;0.34027099609375;-9.12115478515625;-2.398712158203125
1445425701522;250.16268920898438;-100.87128448486328;-8.788736343383789;1.0267486572265625;-9.258453369140625;-2.457550048828125
1445425701555;258.2353515625;-100.63695526123047;-8.158740043640137;0.5167999267578125;-10.297958374023438;-1.771087646484375
1445425701588;262.36669921875;-100.92511749267578;-7.531859397888184;0.418731689453125;-10.729446411132812;-1.143463134765625
1445425701621;269.66998291015625;-103.83114624023438;-5.926276206970215;0.7913818359375;-11.141326904296875;-1.2415313720703125
1445425701653;272.3357238769531;-106.61378479003906;-4.997640609741211;0.28143310546875;-11.533599853515625;-3.4970550537109375
1445425701687;276.2693176269531;-113.11518096923828;-3.675281286239624;-2.2486724853515625;-9.866470336914062;-6.2821502685546875
1445425701721;280.6959228515625;-119.53817749023438;-1.7392606735229492;-0.601165771484375;-7.12060546875;-5.1249542236328125
1445425701752;282.2655944824219;-121.58250427246094;-0.8672263622283936;0.928680419921875;-8.160110473632812;-5.0465087890625
1445425701785;283.3900451660156;-123.1686782836914;-0.9691015481948853;1.53668212890625;-10.415634155273438;-5.4583892822265625
1445425701818;282.982666015625;-122.44547271728516;-2.5569632053375244;1.1444244384765625;-9.434967041015625;-4.673858642578125
1445425701851;282.69073486328125;-121.2930679321289;-3.601578712463379;1.222869873046875;-8.4935302734375;-3.830474853515625
1445425701884;281.79815673828125;-117.7000503540039;-6.178866863250732;0.9482879638671875;-7.885528564453125;-3.595123291015625
1445425701918;279.4683837890625;-113.21113586425781;-9.232901573181152;0.4971771240234375;-10.003753662109375;-4.673858642578125
1445425701951;277.56610107421875;-110.73233032226562;-10.637871742248535;0.418731689453125;-11.16094970703125;-4.41888427734375
1445425701983;274.3421936035156;-106.646484375;-12.294271469116211;2.811553955078125;-10.356796264648438;-3.6147308349609375
1445425702018;272.2969055175781;-104.77762603759766;-13.339119911193848;3.9687347412109375;-6.5714263916015625;-2.7517547607421875
1445425702051;272.21221923828125;-104.69927215576172;-13.783293724060059;3.2430419921875;-5.35540771484375;-2.7713623046875
1445425702085;273.3399353027344;-105.56356811523438;-15.01098346710205;1.7720489501953125;-6.983306884765625;-3.28131103515625
1445425702116;273.7289123535156;-106.40411376953125;-16.001922607421875;0.3795013427734375;-8.454315185546875;-3.57550048828125
1445425702150;273.08172607421875;-109.32606506347656;-18.063255310058594;-0.287353515625;-9.96453857421875;-4.6934661865234375
1445425702182;271.1494445800781;-112.30519104003906;-19.67998504638672;0.3991241455078125;-10.180282592773438;-5.536834716796875
1445425702218;270.1719665527344;-113.53362274169922;-20.05866050720215;1.5759124755859375;-9.68994140625;-5.419158935546875
1445425702250;268.4563293457031;-115.1827621459961;-19.69983673095703;1.18365478515625;-9.160385131835938;-5.4583892822265625
1445425702281;267.16461181640625;-116.10874938964844;-18.22140884399414;0.5167999267578125;-8.336624145507812;-4.6934661865234375
1445425702313;266.8760681152344;-116.46392059326172;-17.013065338134766;0.1441497802734375;-8.179718017578125;-3.202850341796875
1445425702348;265.2183837890625;-117.13860321044922;-14.415894508361816;-1.1895599365234375;-7.493255615234375;-3.22247314453125
1445425702380;264.2972412109375;-117.52483367919922;-12.683248519897461;-1.0130462646484375;-6.5125885009765625;-2.5948486328125
1445425702414;262.1119384765625;-118.0152359008789;-8.782565116882324;-0.601165771484375;-6.1007080078125;-2.065277099609375
1445425702445;259.4814147949219;-118.6303482055664;-4.652482986450195;-0.836517333984375;-5.9241943359375;-2.26141357421875
1445425702485;256.177734375;-119.10389709472656;-0.24680624902248383;-0.542327880859375;-7.7089996337890625;-3.830474853515625
1445425702511;254.031005859375;-119.17390441894531;2.1760528087615967;1.222869873046875;-10.121444702148438;-4.791534423828125
1445425702544;248.7835693359375;-119.13851165771484;6.407392501831055;0.1833648681640625;-13.632217407226562;-5.8310394287109375
1445425702578;245.84408569335938;-119.50724792480469;7.897885322570801;-1.2680206298828125;-13.946029663085938;-6.4586639404296875
1445425702611;238.76632690429688;-120.2643051147461;8.56103515625;-1.856414794921875;-13.73028564453125;-6.6548004150390625
1445425702644;230.95953369140625;-121.0517578125;7.083362102508545;-0.8169097900390625;-12.730010986328125;-4.9288177490234375
1445425702676;226.79107666015625;-121.22875213623047;5.814531326293945;-0.4834747314453125;-12.043548583984375;-4.3208160400390625
1445425702710;218.23370361328125;-120.30818939208984;2.7736294269561768;-0.640380859375;-9.493820190429688;-4.105072021484375
1445425702745;209.86163330078125;-117.33699798583984;-0.06215900182723999;-2.542877197265625;-7.4540252685546875;-3.6343536376953125
1445425702775;205.753662109375;-115.37525939941406;-1.3433080911636353;-3.2685699462890625;-7.5913238525390625;-3.2420806884765625
1445425702809;197.46820068359375;-111.56424713134766;-3.5145528316497803;-2.8959197998046875;-7.5913238525390625;-2.6144561767578125
1445425702841;193.26983642578125;-110.3504867553711;-4.153082370758057;-2.974365234375;-7.257904052734375;-1.810302734375
1445425702874;185.052978515625;-108.04957580566406;-4.377160549163818;-1.4445343017578125;-9.219223022460938;1.56317138671875
1445425702908;175.4715118408203;-105.63456726074219;-5.077881336212158;3.1449737548828125;-11.357070922851562;-0.7904205322265625
1445425702941;169.93309020996094;-105.65291595458984;-6.236899375915527;4.3413848876953125;-11.553207397460938;-2.0456695556640625
1445425702973;160.6552276611328;-106.58348083496094;-8.918496131896973;-0.8757476806640625;-9.493820190429688;2.8576507568359375
1445425703007;157.0895538330078;-107.42977905273438;-9.401056289672852;-0.640380859375;-11.729736328125;0.445220947265625
1445425703040;155.27554321289062;-107.77835083007812;-8.752939224243164;0.0853118896484375;-11.984695434570312;0.2294769287109375
1445425703072;152.64141845703125;-107.23757934570312;-6.495005130767822;2.5369720458984375;-12.259292602539062;0.327545166015625
1445425703106;152.05625915527344;-106.6535415649414;-5.518635272979736;1.4582366943359375;-11.612045288085938;-0.4962158203125
1445425703139;153.03553771972656;-105.4855728149414;-4.56587553024292;0.16375732421875;-11.51397705078125;-1.12384033203125
1445425703172;154.0587615966797;-103.99505615234375;-4.792865753173828;-1.5818328857421875;-10.8275146484375;-2.6732940673828125
1445425703205;153.484130859375;-103.03044128417969;-5.032381057739258;-0.01275634765625;-8.76812744140625;-3.3597564697265625
1445425703238;151.73507690429688;-101.00344848632812;-5.4134087562561035;0.7717742919921875;-8.179718017578125;-3.791259765625
1445425703270;150.16929626464844;-98.91842651367188;-6.102052211761475;0.8306121826171875;-8.905410766601562;-3.830474853515625
1445425703305;149.44532775878906;-97.91629028320312;-6.682040214538574;-0.6992340087890625;-9.788009643554688;-3.16363525390625
1445425703337;146.72637939453125;-96.955078125;-8.027351379394531;-1.0522613525390625;-9.807632446289062;-1.8495330810546875
1445425703369;142.25241088867188;-97.4152603149414;-8.58019733428955;0.1441497802734375;-9.748779296875;-0.4766082763671875
1445425703403;139.79586791992188;-97.88093566894531;-8.634736061096191;0.7129364013671875;-9.670333862304688;-1.3003692626953125
1445425703435;134.69754028320312;-98.78186798095703;-8.774782180786133;0.7325439453125;-9.356521606445312;0.386383056640625
1445425703469;132.52906799316406;-99.60093688964844;-9.158371925354004;2.360443115234375;-10.02337646484375;-0.633514404296875
1445425703501;129.51258850097656;-101.8323745727539;-9.866360664367676;1.673980712890625;-11.043258666992188;-0.3393096923828125
1445425703535;129.19183349609375;-103.01427459716797;-9.377801895141602;1.164031982421875;-12.063156127929688;-0.7315826416015625
1445425703569;128.73716735839844;-102.47845458984375;-9.254730224609375;-0.208892822265625;-11.376693725585938;-1.00616455078125
1445425703601;128.2435760498047;-101.66900634765625;-9.458619117736816;-0.3657989501953125;-10.5921630859375;-1.51611328125
1445425703634;127.34756469726562;-99.55838012695312;-10.085477828979492;-0.1304473876953125;-9.474197387695312;-2.4379425048828125
1445425703668;127.03411865234375;-98.44949340820312;-10.434318542480469;-0.6207733154296875;-8.983871459960938;-2.7517547607421875
1445425703701;125.47396850585938;-96.25593566894531;-11.251559257507324;-0.836517333984375;-8.964248657226562;-3.144012451171875
1445425703736;122.55609130859375;-94.36522674560547;-12.262216567993164;-1.464141845703125;-9.807632446289062;-2.9871063232421875
1445425703765;120.65202331542969;-93.72370910644531;-12.685219764709473;-1.915252685546875;-10.25872802734375;-2.6536865234375
1445425703804;116.59487915039062;-93.59464263916016;-12.778042793273926;-0.7972869873046875;-9.886077880859375;-2.634063720703125
1445425703837;112.99131774902344;-95.72110748291016;-12.2962064743042;-0.7384490966796875;-8.3170166015625;-2.20257568359375
1445425703866;111.17581176757812;-97.64065551757812;-11.839890480041504;-0.777679443359375;-7.6501617431640625;-1.888763427734375
1445425703897;108.01942443847656;-102.73412322998047;-9.999527931213379;1.5955352783203125;-9.984146118164062;-2.1045074462890625
1445425703931;107.19342041015625;-105.49024963378906;-8.492485046386719;2.752716064453125;-12.376968383789062;-2.32025146484375
1445425703964;104.69691467285156;-110.14737701416016;-5.219410419464111;3.0665283203125;-15.240509033203125;-3.51666259765625
1445425703996;102.46490478515625;-111.8498764038086;-4.012991905212402;2.125091552734375;-13.416473388671875;-3.16363525390625
1445425704032;96.9964599609375;-113.8266372680664;-2.5515925884246826;2.125091552734375;-12.200454711914062;-2.4183197021484375
1445425704063;90.8419189453125;-113.79434967041016;-2.191925525665283;0.3206634521484375;-9.650726318359375;-2.2221832275390625
1445425704095;87.64730834960938;-113.10295867919922;-2.0899274349212646;-0.405029296875;-9.00347900390625;-2.7321319580078125
1445425704128;80.62884521484375;-111.12272644042969;-2.051940441131592;-2.366363525390625;-7.5913238525390625;-3.712799072265625
1445425704161;71.18045043945312;-109.12700653076172;-2.6462080478668213;-2.739013671875;-5.4338531494140625;-1.692626953125
1445425704195;62.949798583984375;-107.89000701904297;-2.4355216026306152;-0.777679443359375;-4.1982269287109375;-0.5942840576171875
1445425704228;61.038055419921875;-107.28485870361328;-1.588565707206726;-0.1304473876953125;-6.0222625732421875;-0.9080963134765625
1445425704261;60.126373291015625;-105.93965148925781;0.686105489730835;0.7913818359375;-12.278900146484375;-2.5948486328125
1445425704294;59.0577392578125;-105.86441040039062;1.7303276062011719;0.16375732421875;-12.730010986328125;-4.144287109375
1445425704326;55.7147216796875;-107.86483764648438;3.9476592540740967;0.8306121826171875;-11.553207397460938;-3.3205413818359375
1445425704359;52.91534423828125;-111.01422882080078;6.073241233825684;1.7720489501953125;-11.39630126953125;-1.96722412109375
1445425704392;50.408233642578125;-112.56250762939453;5.966396808624268;1.105194091796875;-12.082763671875;-2.2418060302734375
1445425704426;45.38409423828125;-115.17520141601562;4.595869541168213;1.3405609130859375;-12.35736083984375;-2.3006439208984375
1445425704459;42.530059814453125;-116.61492156982422;3.4383606910705566;2.0074005126953125;-11.10211181640625;-2.575225830078125
1445425704492;41.666015625;-116.8651123046875;3.021441698074341;1.5170745849609375;-10.337188720703125;-2.4771575927734375
1445425704525;40.6632080078125;-116.08045196533203;2.172476291656494;0.4383392333984375;-8.454315185546875;-2.9478759765625
1445425704558;39.558685302734375;-113.69963073730469;0.658328652381897;-0.228515625;-6.4537506103515625;-3.3205413818359375
1445425704591;39.086944580078125;-112.01378631591797;-0.1952020525932312;-0.1892852783203125;-5.9830322265625;-3.712799072265625
1445425704624;38.5946044921875;-108.10505676269531;-1.721731424331665;-0.405029296875;-6.944091796875;-5.085723876953125
1445425704656;38.62762451171875;-104.70320129394531;-2.5684356689453125;-1.4445343017578125;-8.611221313476562;-6.046783447265625
1445425704689;38.574615478515625;-103.88005065917969;-2.543426036834717;-0.8169097900390625;-9.729171752929688;-4.968048095703125
1445425704723;38.491180419921875;-103.6879653930664;-1.8477447032928467;0.7129364013671875;-13.710678100585938;-3.4185943603515625
1445425704756;38.753997802734375;-104.02874755859375;-1.2772982120513916;0.7913818359375;-12.063156127929688;-2.08489990234375
1445425704790;39.1268310546875;-106.16466522216797;-0.36657536029815674;2.988067626953125;-6.806793212890625;-2.457550048828125
1445425704823;39.370361328125;-107.89665985107422;-0.19044479727745056;-1.464141845703125;-8.532760620117188;1.4847259521484375
1445425704855;40.70440673828125;-107.77913665771484;0.35045236349105835;-1.797576904296875;-11.33746337890625;1.21014404296875
1445425704888;42.620574951171875;-107.50253295898438;1.441902756690979;0.5560302734375;-12.161224365234375;-0.241241455078125
1445425704921;44.861968994140625;-106.46157836914062;2.251608371734619;2.32122802734375;-11.768951416015625;0.562896728515625
1445425704956;46.32366943359375;-105.7811279296875;2.1581122875213623;2.693878173828125;-12.004318237304688;0.4059906005859375
1445425704987;50.28271484375;-103.96979522705078;1.1291699409484863;2.046630859375;-11.867019653320312;0.9159393310546875
1445425705019;55.092864990234375;-102.25540924072266;-0.2059016227722168;0.6737060546875;-11.200164794921875;0.052947998046875
1445425705053;57.38275146484375;-101.40475463867188;-0.6714502573013306;-0.1108245849609375;-10.631378173828125;-0.7904205322265625
1445425705085;61.76287841796875;-99.39447784423828;-1.1532766819000244;-1.5622100830078125;-9.650726318359375;-2.692901611328125
1445425705119;64.03683471679688;-98.36544036865234;-1.0840822458267212;-0.718841552734375;-8.571990966796875;-3.28131103515625
1445425705151;68.75259399414062;-96.4407730102539;-0.47535762190818787;-0.0519866943359375;-8.454315185546875;-3.1244049072265625
1445425705184;73.24703979492188;-95.10198974609375;0.09857334196567535;-1.0718841552734375;-9.670333862304688;-2.20257568359375
1445425705218;74.9190673828125;-94.92938232421875;0.3957699239253998;-2.935150146484375;-9.3369140625;-0.9277191162109375
1445425705252;76.85321044921875;-95.04315948486328;1.7248166799545288;-3.1312713623046875;-8.925033569335938;-0.064727783203125
1445425705283;77.85662841796875;-94.64507293701172;3.389207124710083;0.595245361328125;-10.337188720703125;-0.4569854736328125
1445425705318;78.33135986328125;-94.39071655273438;3.6590113639831543;2.10546875;-10.337188720703125;0.111785888671875
1445425705350;79.73809814453125;-94.25202178955078;3.0687015056610107;2.5173492431640625;-12.004318237304688;2.1123504638671875
1445425705382;80.8365478515625;-94.05716705322266;2.573199510574341;1.164031982421875;-12.9261474609375;1.6220245361328125
1445425705419;83.8582763671875;-93.35784912109375;1.7505048513412476;-0.601165771484375;-12.063156127929688;0.7394256591796875
1445425705452;86.60919189453125;-92.4113540649414;0.7592779994010925;-1.8956451416015625;-10.9451904296875;0.5236663818359375
1445425705481;87.7249755859375;-91.82050323486328;0.3058505058288574;-0.954193115234375;-9.45458984375;-0.4766082763671875
1445425705515;90.36788940429688;-90.21800231933594;-0.5049948692321777;-0.3854217529296875;-8.650436401367188;-0.868865966796875
1445425705550;93.74493408203125;-88.69913482666016;-1.4303269386291504;-0.5030975341796875;-9.140777587890625;-0.94732666015625
1445425705580;95.93463134765625;-88.0764389038086;-1.923843502998352;-1.3660736083984375;-9.376129150390625;-1.1042327880859375
1445425705614;100.38479614257812;-87.40306854248047;-2.7415003776550293;-2.5036468505859375;-9.395751953125;-1.5945587158203125
1445425705647;104.2235107421875;-88.3118896484375;-2.706162214279175;-0.6207733154296875;-8.3170166015625;-2.634063720703125
1445425705681;105.90670776367188;-89.53775787353516;-2.4779059886932373;0.22259521484375;-7.74822998046875;-2.908660888671875
1445425705713;108.83294677734375;-93.4030990600586;-1.8844045400619507;1.222869873046875;-9.631103515625;-3.889312744140625
1445425705746;111.13409423828125;-99.32479858398438;-1.0773755311965942;2.0858612060546875;-14.12255859375;-3.5558929443359375
1445425705778;112.29135131835938;-102.53433990478516;-0.4603511691093445;2.811553955078125;-14.102935791015625;-2.516387939453125
1445425705812;115.15447998046875;-108.09764099121094;0.9456365704536438;2.0074005126953125;-12.396575927734375;-2.006439208984375
1445425705844;115.74176025390625;-110.01228332519531;1.448878526687622;1.4582366943359375;-12.220062255859375;-3.1244049072265625
1445425705878;115.96856689453125;-113.03336334228516;1.5560503005981445;1.3405609130859375;-12.29852294921875;-3.7520294189453125
1445425705911;114.05032348632812;-114.8770523071289;-0.023371204733848572;1.438629150390625;-10.5921630859375;-3.45782470703125
1445425705944;112.91595458984375;-115.2756576538086;-1.1846014261245728;0.8502197265625;-8.76812744140625;-2.4771575927734375
1445425705977;110.31512451171875;-115.23255157470703;-3.7819814682006836;0.418731689453125;-7.86590576171875;-2.339874267578125
1445425706010;108.69281005859375;-114.77075958251953;-5.1623382568359375;0.0068511962890625;-6.0222625732421875;-2.14373779296875
1445425706042;105.06660461425781;-112.88800048828125;-7.855586528778076;0.026458740234375;-5.5907745361328125;-1.9868316650390625
1445425706075;102.4871826171875;-110.80367279052734;-9.771610260009766;0.6148681640625;-6.061492919921875;-2.4379425048828125
1445425706108;100.26873779296875;-109.06409454345703;-11.12183952331543;0.869842529296875;-8.454315185546875;-3.7520294189453125
1445425706141;99.36920166015625;-108.70467376708984;-11.45307731628418;0.7717742919921875;-9.042709350585938;-4.399261474609375
1445425706175;99.25274658203125;-108.99002838134766;-10.803362846374512;1.30133056640625;-9.023101806640625;-4.2423553466796875
1445425706208;99.51922607421875;-109.25635528564453;-10.20497989654541;3.57647705078125;-9.827239990234375;-2.575225830078125
1445425706241;99.19790649414062;-109.89884185791016;-9.5131254196167;3.4587860107421875;-10.25872802734375;-2.8694305419921875
1445425706274;98.0517578125;-110.27169799804688;-9.40468692779541;3.57647705078125;-11.141326904296875;-4.08544921875
1445425706306;97.24627685546875;-110.25684356689453;-9.519698143005371;3.4195709228515625;-11.21978759765625;-3.6931915283203125
1445425706341;95.0858154296875;-109.48452758789062;-10.175214767456055;2.67425537109375;-9.96453857421875;-1.96722412109375
1445425706373;93.38296508789062;-107.62751770019531;-10.754800796508789;2.9096221923828125;-9.493820190429688;-1.5357208251953125
1445425706406;92.49603271484375;-106.38052368164062;-10.994828224182129;2.6546478271484375;-9.552658081054688;-1.378814697265625
1445425706439;90.1158447265625;-103.7149658203125;-11.292054176330566;2.693878173828125;-9.3369140625;-0.7315826416015625
1445425706472;87.3900146484375;-101.18000030517578;-11.290813446044922;2.635040283203125;-10.31756591796875;-2.398712158203125
1445425706505;86.87322998046875;-99.99458312988281;-11.12680721282959;1.6543731689453125;-10.278350830078125;-3.0655670166015625
1445425706537;88.364990234375;-98.66848754882812;-10.566856384277344;-0.5030975341796875;-9.729171752929688;-1.457275390625
1445425706571;89.95404052734375;-98.24543762207031;-9.575019836425781;-0.1892852783203125;-9.611495971679688;-1.771087646484375
1445425706604;90.19873046875;-98.00033569335938;-9.085451126098633;-0.150054931640625;-9.552658081054688;-2.065277099609375
1445425706636;91.076904296875;-97.81428527832031;-7.973554611206055;0.8109893798828125;-9.474197387695312;-1.3003692626953125
1445425706670;91.79049682617188;-97.98551940917969;-7.3428144454956055;1.222869873046875;-10.494094848632812;-0.182403564453125
1445425706704;93.35647583007812;-98.29290771484375;-6.158641338348389;1.2621002197265625;-10.670608520507812;-0.064727783203125
1445425706736;95.7392578125;-97.9651107788086;-5.132104396820068;1.9681854248046875;-10.631378173828125;0.24908447265625
1445425706768;97.17901611328125;-97.83549499511719;-4.759108066558838;1.8701171875;-10.8275146484375;0.955169677734375
1445425706802;101.25814819335938;-97.58061981201172;-4.094574451446533;0.5560302734375;-11.27862548828125;1.3670501708984375
1445425706836;106.52449035644531;-96.64862823486328;-3.4244673252105713;-0.091217041015625;-11.27862548828125;1.1709136962890625
1445425706868;109.45648193359375;-96.19917297363281;-3.1219303607940674;-0.640380859375;-10.788284301757812;1.3474273681640625
1445425706901;116.31906127929688;-95.60517120361328;-2.2330827713012695;-1.0522613525390625;-10.788284301757812;-1.3592071533203125
1445425706935;120.2823486328125;-95.58892822265625;-1.7164833545684814;-0.4834747314453125;-11.631668090820312;-3.202850341796875
1445425706970;129.344482421875;-97.00302124023438;-1.2027275562286377;0.9090576171875;-9.493820190429688;-2.37908935546875
1445425707001;136.76361083984375;-100.05680084228516;-1.9748259782791138;-1.0718841552734375;-6.7675628662109375;1.38665771484375
1445425707033;142.2281494140625;-101.7679214477539;-2.09499192237854;-2.6997833251953125;-8.82696533203125;-1.4768829345703125
1445425707067;145.01307678222656;-101.61576843261719;-1.7453663349151611;-1.6995086669921875;-9.297683715820312;-2.2418060302734375
1445425707100;149.56243896484375;-101.94742584228516;-1.2546523809432983;-1.2483978271484375;-9.709564208984375;-3.261688232421875
1445425707132;150.94924926757812;-102.34163665771484;-1.2498760223388672;-0.836517333984375;-9.729171752929688;-3.3009185791015625
1445425707166;151.18772888183594;-103.45008850097656;-2.780606269836426;0.7913818359375;-9.474197387695312;-1.5553436279296875
1445425707198;149.8026123046875;-105.01483917236328;-6.964609146118164;0.8894500732421875;-9.925308227539062;-1.771087646484375
1445425707232;149.9101104736328;-106.09260559082031;-9.148874282836914;-0.5619354248046875;-11.690505981445312;-3.22247314453125
1445425707263;151.56626892089844;-108.70529174804688;-11.450441360473633;-2.05255126953125;-12.906524658203125;-4.105072021484375
1445425707296;149.2686004638672;-109.57589721679688;-13.109915733337402;0.242218017578125;-11.121719360351562;-2.7125244140625
1445425707329;147.3766632080078;-109.27914428710938;-13.999518394470215;0.8109893798828125;-11.749343872070312;-2.1829681396484375
1445425707363;143.54917907714844;-107.85289764404297;-15.396076202392578;0.16375732421875;-10.02337646484375;-1.9868316650390625
1445425707396;138.331787109375;-104.75613403320312;-16.110910415649414;0.7717742919921875;-9.199615478515625;-1.888763427734375
1445425707429;135.10391235351562;-102.71434783935547;-16.281328201293945;1.6543731689453125;-8.218948364257812;-3.28131103515625
1445425707462;129.2130584716797;-98.88134002685547;-15.189115524291992;0.1441497802734375;-8.395462036132812;-4.9288177490234375
1445425707495;126.95138549804688;-97.3425521850586;-13.824564933776855;-0.58154296875;-9.925308227539062;-1.8691558837890625
1445425707528;122.42036437988281;-94.98564147949219;-10.929499626159668;0.242218017578125;-9.866470336914062;-0.5354461669921875
1445425707561;115.15023803710938;-93.3585433959961;-8.595962524414062;2.8899993896484375;-8.591598510742188;-0.1039581298828125
1445425707594;111.49417114257812;-92.72313690185547;-7.2035603523254395;2.046630859375;-7.669769287109375;1.190521240234375
1445425707627;107.93312072753906;-91.61309051513672;-3.4143009185791016;3.1645965576171875;-11.847412109375;-1.0453948974609375
1445425707660;105.23683166503906;-92.42842102050781;-1.7659176588058472;9.813507080078125;-9.866470336914062;3.210693359375
1445425707692;103.70843505859375;-93.7345962524414;-2.6607208251953125;5.890838623046875;-8.709274291992188;4.5640106201171875
1445425707726;106.9625244140625;-95.98600006103516;-3.7569854259490967;-0.601165771484375;-14.201004028320312;3.3087615966796875
1445425707759;110.28668212890625;-95.26529693603516;-3.079658031463623;2.0858612060546875;-13.024200439453125;0.445220947265625
1445425707792;111.66732788085938;-95.1656723022461;-3.380789279937744;2.8507843017578125;-12.043548583984375;0.5236663818359375
1445425707825;116.18475341796875;-96.00839233398438;-4.436382293701172;2.242767333984375;-11.45513916015625;-0.0254974365234375
1445425707858;119.79283142089844;-96.78929138183594;-4.845665454864502;1.850494384765625;-10.788284301757812;-0.3197021484375
1445425707891;129.9723663330078;-99.44551086425781;-4.9696221351623535;1.47784423828125;-8.82696533203125;0.7198028564453125
1445425707923;140.72178649902344;-101.94574737548828;-4.990258693695068;0.1245269775390625;-8.807342529296875;1.0336151123046875
1445425707958;145.0440216064453;-102.80049133300781;-5.127083778381348;-0.3069610595703125;-9.00347900390625;0.2686920166015625
1445425707989;153.37767028808594;-104.6719741821289;-5.288912773132324;-1.1307220458984375;-8.964248657226562;-0.6727447509765625
1445425708023;157.28981018066406;-105.7765884399414;-5.162875175476074;-2.8174591064453125;-8.807342529296875;-2.339874267578125
1445425708065;163.81210327148438;-107.99185180664062;-3.7781217098236084;-3.9942626953125;-8.4935302734375;-3.1244049072265625
1445425708088;166.01524353027344;-110.98632049560547;-2.44826078414917;-4.1119384765625;-6.473358154296875;-4.105072021484375
1445425708122;167.1967010498047;-114.19532775878906;-1.3001307249069214;-5.563323974609375;-6.3164520263671875;-6.9686126708984375
1445425708155;168.4779052734375;-115.40739440917969;-0.5593643188476562;-4.1119384765625;-8.062042236328125;-7.125518798828125
1445425708188;168.3347625732422;-117.14999389648438;-0.16397641599178314;-0.267730712890625;-11.925857543945312;-4.53656005859375
1445425708220;167.3622283935547;-117.67152404785156;0.07626847922801971;1.0855865478515625;-10.219512939453125;-3.45782470703125
1445425708254;165.1612091064453;-116.90599060058594;0.5401120781898499;1.438629150390625;-8.82696533203125;-3.3597564697265625
1445425708292;162.34120178222656;-114.48020935058594;-0.7751177549362183;2.125091552734375;-9.356521606445312;-3.791259765625
1445425708321;160.28897094726562;-113.01140594482422;-2.1985206604003906;0.7913818359375;-12.35736083984375;-3.4970550537109375
1445425708353;155.1221160888672;-109.30970001220703;-4.829302787780762;1.5170745849609375;-11.78857421875;-3.0655670166015625
1445425708386;150.58590698242188;-104.64958953857422;-6.272782802581787;2.7134857177734375;-11.415924072265625;-4.105072021484375
1445425708418;148.42710876464844;-102.5237045288086;-7.016016960144043;2.7134857177734375;-10.513702392578125;-4.850372314453125
1445425708451;143.39450073242188;-99.6146240234375;-8.772411346435547;2.301605224609375;-7.8462982177734375;-5.3995513916015625
1445425708485;140.1289825439453;-98.96627807617188;-10.722634315490723;1.75244140625;-6.2183990478515625;-1.7318572998046875
1445425708518;139.3016815185547;-99.26068115234375;-11.898210525512695;1.6347503662109375;-6.473358154296875;-1.888763427734375
1445425708551;137.5326690673828;-100.7843246459961;-13.896537780761719;0.1245269775390625;-7.92474365234375;-2.2418060302734375
1445425708584;137.173828125;-102.81596374511719;-14.472521781921387;3.262664794921875;-9.572265625;-2.2221832275390625
1445425708616;138.34744262695312;-104.20028686523438;-13.79481315612793;5.3416748046875;-10.690231323242188;-2.26141357421875
1445425708651;144.32667541503906;-107.37213897705078;-11.167322158813477;5.2239837646484375;-11.317855834960938;-2.908660888671875
1445425708683;147.61636352539062;-108.85962677001953;-9.859702110290527;0.4971771240234375;-11.39630126953125;-4.5757904052734375
1445425708716;153.0710906982422;-111.13166809082031;-7.342196941375732;-0.6796112060546875;-11.180557250976562;-4.5757904052734375
1445425708752;156.4661865234375;-112.40131378173828;-5.045227527618408;0.301055908203125;-9.533035278320312;-3.7324066162109375
1445425708782;157.18650817871094;-112.99922180175781;-4.124487400054932;0.8502197265625;-8.76812744140625;-3.2420806884765625
1445425708816;158.6106414794922;-113.80392456054688;-1.8238718509674072;1.6347503662109375;-7.35595703125;-2.8105926513671875
1445425708848;159.5124053955078;-113.84239196777344;-0.42063072323799133;0.869842529296875;-6.8264007568359375;-2.634063720703125
1445425708880;161.1510772705078;-113.58331298828125;2.4278998374938965;-0.1696624755859375;-6.66949462890625;-2.8105926513671875
1445425708914;162.6287841796875;-113.20957946777344;5.068604469299316;-0.9934234619140625;-5.5711517333984375;-3.791259765625
1445425708947;163.2895965576172;-112.9659423828125;6.010305881500244;-1.3268585205078125;-5.29656982421875;-4.281585693359375
1445425708980;164.3340606689453;-112.44389343261719;6.711585998535156;-1.5818328857421875;-6.7871856689453125;-4.47772216796875
1445425709013;164.62693786621094;-111.99542999267578;6.546380043029785;-2.150604248046875;-11.062881469726562;-5.3995513916015625
1445425709045;164.2889404296875;-112.15398406982422;6.388550281524658;0.3206634521484375;-12.906524658203125;-5.595672607421875
1445425709078;162.3175506591797;-113.5839614868164;5.429989814758301;3.1057586669921875;-12.769241333007812;-5.870269775390625
1445425709112;161.1658477783203;-114.6131591796875;4.4191813468933105;4.5571441650390625;-12.102386474609375;-4.8111419677734375
1445425709146;160.3579559326172;-116.02237701416016;1.242996335029602;2.988067626953125;-12.494644165039062;-5.477996826171875
1445425709178;160.00790405273438;-116.8744125366211;-3.6185178756713867;2.046630859375;-12.455429077148438;-4.8307647705078125
1445425709210;159.2159423828125;-117.14300537109375;-8.242851257324219;0.7325439453125;-9.434967041015625;-3.45782470703125
