sep=;
timestamp;gyro-alpha;gyro-beta;gyro-gamma;accel-x;accel-y;accel-z
1445425623822;249.64349365234375;-116.96199035644531;9.458146095275879;0.0068511962890625;-10.552932739257812;-4.5169525146484375
1445425623854;244.21893310546875;-119.20185089111328;7.156764984130859;0.9090576171875;-9.670333862304688;-3.28131103515625
1445425623888;238.7108154296875;-119.71293640136719;4.342721939086914;0.869842529296875;-8.1405029296875;-2.4771575927734375
1445425623920;235.85360717773438;-119.29292297363281;2.71597957611084;0.6344757080078125;-7.63055419921875;-2.8105926513671875
1445425623953;230.1126708984375;-117.81009674072266;-0.6805708408355713;0.6344757080078125;-7.12060546875;-3.7324066162109375
1445425623986;227.51995849609375;-116.95121765136719;-2.402387857437134;0.6933135986328125;-7.23828125;-3.830474853515625
1445425624021;223.50860595703125;-115.25398254394531;-5.747818470001221;1.164031982421875;-7.92474365234375;-3.1047821044921875
1445425624052;220.82647705078125;-114.59661102294922;-8.691097259521484;1.8897247314453125;-9.00347900390625;-2.967498779296875
1445425624087;219.87432861328125;-114.96046447753906;-9.817715644836426;1.7720489501953125;-9.199615478515625;-3.6147308349609375
1445425624118;218.61337280273438;-116.40276336669922;-11.257612228393555;1.47784423828125;-8.5523681640625;-3.202850341796875
1445425624152;219.494873046875;-118.5010986328125;-11.09849739074707;2.5369720458984375;-7.434417724609375;-2.2221832275390625
1445425624185;220.57644653320312;-119.59635162353516;-10.751204490661621;3.0665283203125;-7.669769287109375;-2.7125244140625
1445425624218;222.1214599609375;-121.51129913330078;-11.022464752197266;4.0864105224609375;-8.88580322265625;-3.908935546875
1445425624251;222.94403076171875;-123.22384643554688;-11.597332000732422;3.831451416015625;-10.337188720703125;-5.6937408447265625
1445425624284;222.76190185546875;-123.68803405761719;-11.703438758850098;3.7137603759765625;-10.415634155273438;-6.1448516845703125
1445425624318;221.13247680664062;-123.48660278320312;-12.336244583129883;3.498016357421875;-10.219512939453125;-5.6349029541015625
1445425624350;220.03125;-123.04948425292969;-12.858893394470215;2.5173492431640625;-9.552658081054688;-4.47772216796875
1445425624384;217.320556640625;-120.664306640625;-13.847430229187012;2.0858612060546875;-9.415359497070312;-3.830474853515625
1445425624418;213.46365356445312;-116.9569320678711;-14.703852653503418;1.222869873046875;-9.434967041015625;-2.6144561767578125
1445425624450;211.14373779296875;-115.14293670654297;-14.882746696472168;0.242218017578125;-8.964248657226562;-1.8495330810546875
1445425624481;205.36444091796875;-110.99845886230469;-14.815563201904297;0.1245269775390625;-8.846572875976562;-1.7318572998046875
1445425624516;199.39324951171875;-106.64830780029297;-14.057306289672852;0.3795013427734375;-8.5523681640625;-1.5945587158203125
1445425624549;196.77593994140625;-104.85513305664062;-13.43136215209961;0.026458740234375;-8.513153076171875;-1.3984375
1445425624580;190.853271484375;-101.86105346679688;-11.817037582397461;-0.718841552734375;-9.846847534179688;-0.9669342041015625
1445425624616;185.9293212890625;-100.36782836914062;-10.4082612991333;2.2819976806640625;-9.611495971679688;0.1706390380859375
1445425624647;184.3702392578125;-100.30974578857422;-10.199106216430664;3.1253662109375;-8.82696533203125;0.24908447265625
1445425624679;183.3519287109375;-101.61962890625;-10.21260929107666;2.2819976806640625;-10.572540283203125;-0.810028076171875
1445425624713;183.1903076171875;-102.50288391113281;-10.071505546569824;1.7132110595703125;-13.004592895507812;-0.182403564453125
1445425624745;183.34869384765625;-103.64130401611328;-9.349189758300781;1.164031982421875;-12.337738037109375;-0.3785400390625
1445425624779;184.71795654296875;-104.526611328125;-8.649978637695312;0.6148681640625;-12.65155029296875;-0.064727783203125
1445425624812;185.48272705078125;-104.61570739746094;-8.5483980178833;0.34027099609375;-12.514266967773438;-0.4177703857421875
1445425624845;186.8004150390625;-103.71548461914062;-8.703981399536133;0.2618255615234375;-11.004043579101562;-0.82965087890625
1445425624878;187.94140625;-102.18457794189453;-9.05191707611084;-0.032379150390625;-9.278060913085938;-1.6141815185546875
1445425624911;188.2928466796875;-101.19840240478516;-9.274847030639648;-0.1304473876953125;-8.179718017578125;-2.3006439208984375
1445425624944;188.63629150390625;-99.00372314453125;-9.612351417541504;0.6737060546875;-7.4148101806640625;-3.6931915283203125
1445425624977;188.98828125;-97.93258666992188;-9.712156295776367;0.04608154296875;-9.160385131835938;-4.144287109375
1445425625010;189.85498046875;-96.43400573730469;-10.019499778747559;-0.5030975341796875;-9.68994140625;-3.6343536376953125
1445425625043;188.79754638671875;-96.2625961303711;-10.353127479553223;-0.8169097900390625;-10.042984008789062;-2.4183197021484375
1445425625076;187.5767822265625;-96.65911102294922;-10.284687042236328;0.6737060546875;-9.846847534179688;-0.692352294921875
1445425625108;186.08319091796875;-97.81119537353516;-9.166764259338379;2.5173492431640625;-9.748779296875;-1.06500244140625
1445425625142;186.34783935546875;-98.5896987915039;-8.348405838012695;3.0272979736328125;-9.297683715820312;-1.7906951904296875
1445425625174;186.98150634765625;-99.07917022705078;-8.223516464233398;1.7132110595703125;-9.278060913085938;-0.82965087890625
1445425625208;188.5784912109375;-100.29084777832031;-7.8966240882873535;0.6933135986328125;-10.356796264648438;0.01373291015625
1445425625241;190.68408203125;-100.98997497558594;-7.2789106369018555;0.869842529296875;-12.239669799804688;0.4256134033203125
1445425625274;192.05267333984375;-100.79181671142578;-6.953643798828125;0.4579620361328125;-11.847412109375;0.111785888671875
1445425625307;194.631591796875;-99.4197998046875;-6.8366594314575195;0.359893798828125;-10.572540283203125;-0.4373779296875
1445425625340;195.722900390625;-98.61427307128906;-7.035796642303467;0.1441497802734375;-9.827239990234375;-0.6727447509765625
1445425625373;197.81884765625;-96.96968841552734;-7.644938945770264;0.1245269775390625;-9.709564208984375;-1.143463134765625
1445425625406;200.12786865234375;-95.41559600830078;-8.199930191040039;0.0656890869140625;-9.533035278320312;-1.712249755859375
1445425625438;201.5626220703125;-94.82308959960938;-8.38033390045166;-0.895355224609375;-9.376129150390625;-2.0456695556640625
1445425625471;204.6514892578125;-94.36592864990234;-8.506258010864258;-1.8171844482421875;-8.846572875976562;-2.32025146484375
1445425625504;207.7908935546875;-95.42382049560547;-7.962352752685547;-3.8961944580078125;-7.74822998046875;-2.2221832275390625
1445425625538;209.3349609375;-96.7076187133789;-7.115294933319092;-4.0727081298828125;-7.80706787109375;-1.3984375
1445425625571;212.81634521484375;-100.67459106445312;-4.078274726867676;-1.15032958984375;-10.513702392578125;-2.967498779296875
1445425625604;216.41845703125;-105.21903228759766;-0.8071963787078857;0.1441497802734375;-12.945755004882812;-5.79180908203125
1445425625637;217.82369995117188;-107.97270965576172;0.607831597328186;1.105194091796875;-12.435806274414062;-4.7523040771484375
1445425625669;220.1834716796875;-113.49142456054688;2.9452106952667236;4.459075927734375;-12.239669799804688;-3.3597564697265625
1445425625703;221.515869140625;-117.68730926513672;4.1190385818481445;3.0861358642578125;-11.886642456054688;-2.4771575927734375
1445425625738;221.839111328125;-118.95723724365234;4.283281326293945;1.8897247314453125;-12.396575927734375;-2.1633453369140625
1445425625769;222.74020385742188;-119.99939727783203;4.188891410827637;2.2035369873046875;-12.514266967773438;-2.7321319580078125
1445425625802;223.89944458007812;-120.1171875;3.326998710632324;1.5955352783203125;-11.435531616210938;-3.536285400390625
1445425625835;224.54119873046875;-119.89459991455078;2.650479793548584;1.0855865478515625;-10.415634155273438;-3.144012451171875
1445425625868;225.7110595703125;-118.49668884277344;0.6864897012710571;0.1441497802734375;-6.944091796875;-2.3594818115234375
1445425625900;226.1390380859375;-117.4843978881836;-0.6332244277000427;-0.3657989501953125;-6.1595458984375;-2.516387939453125
1445425625933;226.91836547851562;-115.43795776367188;-3.4586145877838135;-1.1307220458984375;-5.4534759521484375;-2.5556182861328125
1445425625968;227.88629150390625;-113.62055206298828;-5.810980319976807;-1.1307220458984375;-6.43414306640625;-2.37908935546875
1445425626001;228.599609375;-112.74827575683594;-6.500516414642334;-0.718841552734375;-9.474197387695312;-3.4382171630859375
1445425626035;231.010498046875;-111.31111145019531;-6.62143087387085;0.04608154296875;-12.200454711914062;-4.5169525146484375
1445425626066;232.74777221679688;-111.11446380615234;-5.923589706420898;0.2618255615234375;-11.612045288085938;-4.53656005859375
1445425626100;236.35952758789062;-112.15154266357422;-3.569331645965576;0.242218017578125;-9.042709350585938;-3.653961181640625
1445425626135;239.4666748046875;-114.45951843261719;-0.8589114546775818;1.3405609130859375;-6.7871856689453125;-3.16363525390625
1445425626166;240.98562622070312;-115.9392318725586;0.047019027173519135;0.928680419921875;-9.160385131835938;-3.4970550537109375
1445425626197;243.2479248046875;-119.18829345703125;0.519413948059082;0.7325439453125;-10.670608520507812;-3.3205413818359375
1445425626230;244.39862060546875;-121.68778991699219;0.027605917304754257;1.75244140625;-11.631668090820312;-2.20257568359375
1445425626264;244.9794921875;-122.14143371582031;-0.09591126441955566;1.9485626220703125;-11.180557250976562;-1.810302734375
1445425626296;247.02288818359375;-121.14815521240234;0.1924392282962799;1.8308868408203125;-11.27862548828125;-2.398712158203125
1445425626331;249.66354370117188;-118.0996322631836;-0.29988595843315125;1.928955078125;-11.239395141601562;-3.6735687255859375
1445425626364;250.865966796875;-116.28406524658203;-1.056963324546814;2.32122802734375;-10.003753662109375;-3.4185943603515625
1445425626396;252.7847900390625;-112.40108489990234;-3.2221851348876953;2.046630859375;-8.82696533203125;-1.574951171875
1445425626428;254.36419677734375;-108.58683776855469;-5.843064308166504;0.6737060546875;-7.9835968017578125;0.562896728515625
1445425626463;255.36981201171875;-106.55958557128906;-6.927134990692139;0.22259521484375;-8.179718017578125;0.3471527099609375
1445425626494;256.4842834472656;-101.91028594970703;-8.577442169189453;0.1245269775390625;-8.748504638671875;-0.3197021484375
1445425626528;257.83831787109375;-97.15803527832031;-8.778826713562012;0.1441497802734375;-8.94464111328125;0.2294769287109375
1445425626561;258.6950378417969;-94.84024047851562;-8.429150581359863;0.477569580078125;-9.101547241210938;0.2098541259765625
1445425626594;260.35711669921875;-90.75624084472656;-7.172233581542969;1.2032623291015625;-9.788009643554688;-1.2219085693359375
1445425626627;261.9405212402344;-88.97940826416016;-5.6577653884887695;1.0267486572265625;-12.337738037109375;-3.202850341796875
1445425626659;262.6546630859375;-89.32889556884766;-4.9628496170043945;0.536407470703125;-11.435531616210938;-2.14373779296875
1445425626692;264.24371337890625;-91.94596099853516;-3.939589500427246;-0.01275634765625;-11.553207397460938;-1.5357208251953125
1445425626725;265.0753479003906;-93.54132080078125;-3.6667299270629883;-1.228790283203125;-11.553207397460938;-0.8492584228515625
1445425626759;266.77203369140625;-96.43404388427734;-3.1255438327789307;-1.228790283203125;-12.396575927734375;-0.5354461669921875
1445425626791;268.4208068847656;-97.34677124023438;-2.304710626602173;-0.7384490966796875;-12.337738037109375;-0.692352294921875
1445425626825;269.2301330566406;-97.19287872314453;-1.9460099935531616;-0.032379150390625;-11.867019653320312;-0.5354461669921875
1445425626858;270.9427490234375;-96.50875091552734;-1.7098348140716553;0.477569580078125;-10.847137451171875;0.01373291015625
1445425626891;271.8037414550781;-96.0502700805664;-1.8581167459487915;0.7129364013671875;-9.846847534179688;-0.300079345703125
1445425626928;273.2829895019531;-94.66819763183594;-2.508833408355713;1.105194091796875;-9.297683715820312;-0.4766082763671875
1445425626957;275.046630859375;-93.00252532958984;-3.448012113571167;1.673980712890625;-8.4935302734375;-1.1042327880859375
1445425626989;276.1334228515625;-92.27063751220703;-3.9858224391937256;1.75244140625;-9.140777587890625;-0.88848876953125
1445425627023;278.94500732421875;-91.13909149169922;-5.136038780212402;0.9678955078125;-9.925308227539062;-0.1627960205078125
1445425627055;282.007568359375;-90.33837890625;-5.775495529174805;0.6148681640625;-10.14105224609375;-0.5550537109375
1445425627089;283.5820617675781;-90.14315795898438;-5.612240314483643;0.7717742919921875;-9.670333862304688;-1.3003692626953125
1445425627122;286.83795166015625;-90.3982925415039;-5.294444561004639;0.654083251953125;-9.533035278320312;-1.692626953125
1445425627155;290.3787536621094;-91.86975860595703;-5.298786640167236;1.47784423828125;-9.395751953125;-2.1829681396484375
1445425627189;291.86053466796875;-92.86048889160156;-5.510940074920654;1.0659637451171875;-9.317291259765625;-1.75146484375
1445425627220;294.50665283203125;-95.28396606445312;-5.565394878387451;-2.856689453125;-10.101821899414062;-0.3393096923828125
1445425627254;296.8656311035156;-96.4718017578125;-3.5447795391082764;-2.5821075439453125;-10.866744995117188;-0.2804718017578125
1445425627287;297.98114013671875;-96.3182144165039;-2.2470269203186035;-0.3069610595703125;-11.023651123046875;-1.06500244140625
1445425627319;299.4366760253906;-95.62957000732422;-0.7112390398979187;2.7723236083984375;-10.847137451171875;0.1510162353515625
1445425627353;300.3046569824219;-95.34675598144531;-0.6356560587882996;3.1449737548828125;-10.415634155273438;0.386383056640625
1445425627386;302.8443298339844;-94.56256866455078;-1.6081827878952026;1.41900634765625;-10.670608520507812;0.759033203125
1445425627419;304.49774169921875;-93.13607788085938;-3.0865166187286377;-0.326568603515625;-10.337188720703125;0.1510162353515625
1445425627453;305.0868835449219;-92.14996337890625;-3.7163240909576416;-0.150054931640625;-9.729171752929688;-0.5550537109375
1445425627484;306.8641662597656;-89.93822479248047;-4.892499923706055;1.3993988037109375;-9.042709350585938;-1.6141815185546875
1445425627520;309.4303283691406;-88.37871551513672;-6.63529634475708;-0.0519866943359375;-9.611495971679688;-2.4967803955078125
1445425627551;310.8343505859375;-88.03284454345703;-7.537065029144287;-1.346466064453125;-9.670333862304688;-2.4967803955078125
1445425627584;312.88067626953125;-87.69051361083984;-8.603461265563965;-3.54315185546875;-10.14105224609375;-3.0655670166015625
1445425627624;313.5301513671875;-88.41934204101562;-8.64836597442627;-4.44537353515625;-10.337188720703125;-2.8890380859375
1445425627649;313.71441650390625;-89.37440490722656;-7.9423298835754395;-3.7196807861328125;-9.748779296875;-2.4967803955078125
1445425627684;313.47100830078125;-92.37239074707031;-5.317166805267334;-0.97381591796875;-9.866470336914062;-1.378814697265625
1445425627716;313.21820068359375;-95.6712875366211;-2.726884365081787;2.8507843017578125;-13.769515991210938;-2.967498779296875
1445425627750;313.47296142578125;-97.58869934082031;-1.6175317764282227;3.7333831787109375;-13.083053588867188;-4.163909912109375
1445425627783;315.5230712890625;-102.5805435180664;0.8111769556999207;2.870391845703125;-11.533599853515625;-3.39898681640625
1445425627814;317.45257568359375;-105.62980651855469;2.609387159347534;2.811553955078125;-13.78912353515625;-0.574676513671875
1445425627848;318.3301086425781;-110.29840850830078;4.6393256187438965;2.0858612060546875;-13.298797607421875;-0.2020263671875
1445425627880;316.06390380859375;-112.97283172607422;4.2245025634765625;0.359893798828125;-11.808181762695312;-3.1047821044921875
1445425627914;314.7148742675781;-113.89929962158203;3.611504077911377;0.28143310546875;-11.082489013671875;-3.830474853515625
1445425627946;311.00604248046875;-115.66397094726562;1.5272473096847534;-0.0519866943359375;-8.964248657226562;-2.4967803955078125
1445425627980;306.70751953125;-116.56259155273438;-1.0850796699523926;-0.228515625;-6.2772369384765625;-0.9669342041015625
1445425628012;304.65594482421875;-116.41114807128906;-2.4578049182891846;-0.1892852783203125;-6.120330810546875;-1.3592071533203125
1445425628046;300.541015625;-114.90441131591797;-5.433249473571777;0.3206634521484375;-6.0811004638671875;-2.4967803955078125
1445425628080;296.6533508300781;-112.4981689453125;-8.416755676269531;0.8109893798828125;-7.3951873779296875;-2.8105926513671875
1445425628111;294.3862609863281;-111.1406478881836;-9.953360557556152;0.4383392333984375;-8.964248657226562;-3.3009185791015625
1445425628145;288.7955322265625;-108.71488952636719;-12.35547161102295;-0.6796112060546875;-10.7686767578125;-4.0070037841796875
1445425628178;286.61395263671875;-108.24336242675781;-12.64452838897705;1.6347503662109375;-10.8863525390625;-4.1246795654296875
1445425628211;283.37969970703125;-108.7082290649414;-11.8197603225708;3.1449737548828125;-10.964813232421875;-3.889312744140625
1445425628244;281.0938415527344;-110.56591033935547;-10.482382774353027;2.752716064453125;-10.356796264648438;-2.2418060302734375
1445425628279;279.9437255859375;-111.82317352294922;-9.77049732208252;1.105194091796875;-9.846847534179688;-2.4183197021484375
1445425628310;276.302001953125;-114.10498809814453;-8.879091262817383;0.8306121826171875;-10.08221435546875;-2.8105926513671875
1445425628342;269.95526123046875;-114.66407775878906;-9.926765441894531;2.066253662109375;-10.6510009765625;-2.5556182861328125
1445425628376;266.28509521484375;-114.1051025390625;-10.720193862915039;2.61541748046875;-10.396026611328125;-2.8498077392578125
1445425628409;259.2566833496094;-112.23395538330078;-12.080739974975586;1.5759124755859375;-9.297683715820312;-2.9478759765625
1445425628442;253.54623413085938;-110.25215911865234;-12.982099533081055;1.18365478515625;-8.846572875976562;-1.888763427734375
1445425628474;251.02984619140625;-109.44134521484375;-13.364547729492188;1.438629150390625;-8.846572875976562;-1.4768829345703125
1445425628534;241.51962280273438;-107.52217864990234;-15.142936706542969;1.222869873046875;-8.473922729492188;-1.084625244140625
1445425628540;241.51962280273438;-107.52217864990234;-15.142936706542969;1.18365478515625;-8.277786254882812;-1.3003692626953125
1445425628582;232.35858154296875;-106.17037963867188;-15.471928596496582;0.477569580078125;-8.395462036132812;-1.0257720947265625
1445425628616;229.71795654296875;-105.72586822509766;-14.891705513000488;0.22259521484375;-8.925033569335938;-0.3981475830078125
1445425628640;226.981689453125;-105.03443145751953;-14.000347137451172;1.0855865478515625;-10.749069213867188;1.0532379150390625
1445425628683;217.249755859375;-101.70137023925781;-10.77725601196289;3.0665283203125;-11.415924072265625;0.7198028564453125
1445425628706;213.74374389648438;-100.53788757324219;-9.837889671325684;3.8510589599609375;-11.572830200195312;0.3471527099609375
1445425628745;208.23147583007812;-98.49980926513672;-8.173189163208008;4.3021697998046875;-11.729736328125;0.445220947265625
1445425628783;204.0499267578125;-96.52706909179688;-7.26735258102417;3.9098968505859375;-11.612045288085938;0.1706390380859375
1445425628821;202.0694580078125;-95.67897033691406;-7.262777328491211;3.949127197265625;-11.749343872070312;0.052947998046875
1445425628838;200.295654296875;-94.92269897460938;-7.465050220489502;3.949127197265625;-11.749343872070312;-0.1431732177734375
1445425628877;197.3623046875;-93.6899185180664;-8.352337837219238;2.7723236083984375;-10.435256958007812;0.4648284912109375
1445425628904;196.0638427734375;-93.26634216308594;-8.8369722366333;1.0267486572265625;-9.846847534179688;1.0532379150390625
1445425628948;191.9986572265625;-91.76870727539062;-9.000446319580078;1.164031982421875;-9.317291259765625;0.445220947265625
1445425628978;190.579345703125;-91.19678497314453;-8.796947479248047;1.5759124755859375;-8.94464111328125;-0.0451202392578125
1445425629003;189.211181640625;-90.65849304199219;-8.59919261932373;1.36016845703125;-8.709274291992188;0.3471527099609375
1445425629052;185.99127197265625;-89.6471176147461;-7.881909370422363;-0.1108245849609375;-9.278060913085938;-0.241241455078125
1445425629132;182.0831298828125;-89.66163635253906;-5.648536682128906;2.0270233154296875;-10.297958374023438;0.2686920166015625
1445425629149;182.0831298828125;-89.66163635253906;-5.648536682128906;2.4585113525390625;-10.31756591796875;0.641357421875
1445425629166;181.5723876953125;-90.40223693847656;-5.302643775939941;2.3408355712890625;-10.670608520507812;0.81787109375
1445425629206;181.68212890625;-92.36129760742188;-5.077917575836182;0.8502197265625;-11.710113525390625;1.072845458984375
1445425629233;183.0260009765625;-93.6218490600586;-4.996904373168945;0.5167999267578125;-11.90625;0.7786407470703125
1445425629264;183.9210205078125;-93.72848510742188;-5.057678699493408;0.8306121826171875;-12.180831909179688;-0.3589324951171875
1445425629297;185.81378173828125;-93.63748168945312;-5.632001876831055;0.9090576171875;-12.082763671875;-0.6727447509765625
1445425629330;187.8358154296875;-93.62915802001953;-6.694264888763428;0.1441497802734375;-10.552932739257812;-0.868865966796875
1445425629364;188.9439697265625;-93.52812957763672;-7.159068584442139;0.026458740234375;-9.395751953125;-0.810028076171875
1445425629397;190.7244873046875;-92.89988708496094;-7.7713165283203125;0.16375732421875;-7.86590576171875;-0.5942840576171875
1445425629430;192.79443359375;-91.69640350341797;-8.04496955871582;0.7913818359375;-7.9051361083984375;-1.1630706787109375
1445425629464;193.91717529296875;-91.05756378173828;-8.157853126525879;0.6148681640625;-8.160110473632812;-1.3003692626953125
1445425629496;195.70361328125;-90.38968658447266;-8.296219825744629;0.5167999267578125;-9.434967041015625;-1.5357208251953125
1445425629531;197.0517578125;-91.20600891113281;-8.041528701782227;0.16375732421875;-9.650726318359375;-1.4180450439453125
1445425629561;198.0281982421875;-92.082763671875;-7.713766098022461;-0.228515625;-9.591873168945312;-1.06500244140625
1445425629594;200.41571044921875;-93.85828399658203;-6.680465221405029;-1.03265380859375;-10.572540283203125;-0.3981475830078125
1445425629627;201.398681640625;-94.4266586303711;-5.998336315155029;-0.228515625;-11.592437744140625;-0.182403564453125
1445425629660;201.94427490234375;-94.85200500488281;-5.087841033935547;0.654083251953125;-11.749343872070312;-0.123565673828125
1445425629694;202.1458740234375;-95.15381622314453;-5.097736358642578;1.53668212890625;-11.965087890625;0.6021270751953125
1445425629726;202.396484375;-95.02989959716797;-5.352443695068359;0.8894500732421875;-12.396575927734375;0.445220947265625
1445425629759;202.9041748046875;-94.15576171875;-5.999883651733398;0.301055908203125;-11.612045288085938;-0.4177703857421875
1445425629792;203.001953125;-93.52592468261719;-6.39453125;0.6148681640625;-10.5921630859375;-1.319976806640625
1445425629827;203.0946044921875;-92.27120971679688;-7.498334884643555;0.4383392333984375;-10.062606811523438;-1.5945587158203125
1445425629858;203.3006591796875;-91.16459655761719;-8.809073448181152;-0.6992340087890625;-8.866195678710938;-1.1630706787109375
1445425629891;203.1190185546875;-89.9642333984375;-9.853412628173828;-1.522979736328125;-8.571990966796875;-1.437652587890625
1445425629924;202.78173828125;-89.33552551269531;-10.243868827819824;-1.6406707763671875;-8.787734985351562;-1.7906951904296875
1445425629957;202.208251953125;-88.35448455810547;-10.653403282165527;-1.3072357177734375;-9.258453369140625;-2.32025146484375
1445425629991;201.90679931640625;-88.17935180664062;-10.605047225952148;-1.0718841552734375;-10.494094848632812;-2.634063720703125
1445425630023;200.66375732421875;-89.04448699951172;-9.669819831848145;-1.15032958984375;-10.454864501953125;-2.7713623046875
1445425630056;198.84063720703125;-92.09517669677734;-7.789151191711426;-0.7580718994140625;-9.944915771484375;-3.0067291259765625
1445425630092;198.05792236328125;-94.24439239501953;-6.6633405685424805;0.3206634521484375;-10.847137451171875;-2.20257568359375
1445425630123;197.29315185546875;-100.22956848144531;-4.149136543273926;0.8109893798828125;-12.730010986328125;-1.574951171875
1445425630156;197.096435546875;-106.01461029052734;-1.1825313568115234;0.301055908203125;-13.1026611328125;0.680572509765625
1445425630189;196.626708984375;-107.82035827636719;0.25094282627105713;0.3795013427734375;-13.49493408203125;-0.7315826416015625
1445425630222;194.31976318359375;-110.19192504882812;2.3339591026306152;0.04608154296875;-13.49493408203125;-2.2221832275390625
1445425630255;189.36083984375;-111.65178680419922;2.8908493518829346;0.2029876708984375;-11.200164794921875;-1.18267822265625
1445425630288;186.2547607421875;-112.10428619384766;2.7201123237609863;0.3206634521484375;-10.14105224609375;-0.3785400390625
1445425630321;180.43109130859375;-112.85498809814453;1.8278419971466064;-0.1892852783203125;-7.68939208984375;0.2098541259765625
1445425630353;177.67471313476562;-112.8425064086914;1.098726511001587;-0.601165771484375;-6.49298095703125;-0.5550537109375
1445425630386;172.26626586914062;-112.08832550048828;-0.9829351902008057;-0.3657989501953125;-6.43414306640625;-0.9669342041015625
1445425630419;166.03746032714844;-110.73332977294922;-3.720310688018799;-0.3657989501953125;-6.747955322265625;-2.08489990234375
1445425630453;162.48919677734375;-109.75016021728516;-5.307110786437988;-3.0724334716796875;-9.101547241210938;-2.2221832275390625
1445425630487;155.6082000732422;-108.14989471435547;-7.503753185272217;-3.0724334716796875;-10.042984008789062;-2.398712158203125
1445425630518;150.59695434570312;-108.25646209716797;-7.374337673187256;0.026458740234375;-10.396026611328125;-0.005889892578125
1445425630551;147.94435119628906;-108.23224639892578;-7.025421619415283;1.53668212890625;-10.415634155273438;1.0336151123046875
1445425630584;142.23753356933594;-107.20148468017578;-6.830349445343018;1.2817230224609375;-10.572540283203125;-0.82965087890625
1445425630617;136.03170776367188;-106.56586456298828;-7.088871479034424;-0.58154296875;-10.749069213867188;-4.08544921875
1445425630650;133.3800811767578;-106.95838165283203;-7.058556079864502;-0.287353515625;-10.6510009765625;-5.0072784423828125
1445425630684;129.2504425048828;-109.06732940673828;-6.429576873779297;0.9090576171875;-11.494369506835938;-1.9083709716796875
1445425630716;126.42730712890625;-110.33273315429688;-6.177741050720215;2.046630859375;-12.063156127929688;0.81787109375
1445425630750;120.19941711425781;-112.12712097167969;-5.015247344970703;2.2819976806640625;-12.29852294921875;0.0921783447265625
1445425630786;114.97259521484375;-112.37214660644531;-3.0722484588623047;2.4781341552734375;-12.788848876953125;-3.0067291259765625
1445425630817;113.08232116699219;-112.13557434082031;-2.150916814804077;2.2231597900390625;-12.455429077148438;-3.4970550537109375
1445425630849;109.93374633789062;-111.72795867919922;-0.8950883150100708;0.928680419921875;-10.552932739257812;-2.457550048828125
1445425630881;107.17776489257812;-111.41020965576172;-0.2968669831752777;0.536407470703125;-8.709274291992188;-2.14373779296875
1445425630917;106.03355407714844;-111.0477523803711;-0.19889721274375916;0.477569580078125;-8.3758544921875;-2.339874267578125
1445425630947;104.05279541015625;-110.25931549072266;-0.1532798707485199;0.34027099609375;-8.081649780273438;-2.4967803955078125
1445425630980;102.0467529296875;-109.36510467529297;-0.025211935862898827;0.5756378173828125;-7.9835968017578125;-2.14373779296875
1445425631014;101.02713012695312;-108.99783325195312;0.11515536904335022;0.7717742919921875;-7.9051361083984375;-1.9279937744140625
1445425631046;99.96463012695312;-108.71144104003906;0.8920296430587769;0.8109893798828125;-7.5128631591796875;-2.20257568359375
1445425631079;100.41635131835938;-108.83912658691406;1.618985652923584;-0.0716094970703125;-7.57171630859375;-2.7713623046875
1445425631124;103.6519775390625;-110.15186309814453;4.706225872039795;-1.15032958984375;-9.631103515625;-4.2423553466796875
1445425631145;104.06427001953125;-110.79850006103516;5.880713939666748;-1.7191162109375;-10.847137451171875;-4.9484405517578125
1445425631178;103.79345703125;-111.5144271850586;6.862867832183838;-2.719390869140625;-11.317855834960938;-4.5757904052734375
1445425631212;102.71685791015625;-112.87157440185547;7.72448205947876;-3.739288330078125;-9.278060913085938;-3.0655670166015625
1445425631245;101.60873413085938;-113.16075134277344;7.066535472869873;-2.2094573974609375;-10.9451904296875;-4.5757904052734375
1445425631281;101.06121826171875;-112.55477142333984;6.410126209259033;-1.4249267578125;-11.435531616210938;-5.0465087890625
1445425631310;100.5330810546875;-110.75628662109375;4.6909003257751465;-0.326568603515625;-10.5333251953125;-4.77191162109375
1445425631343;100.85116577148438;-109.11419677734375;2.876459836959839;-0.3854217529296875;-8.238555908203125;-4.163909912109375
1445425631376;101.26229858398438;-108.33226776123047;2.0465104579925537;-1.3072357177734375;-7.610931396484375;-3.7324066162109375
1445425631410;102.52630615234375;-106.68705749511719;1.0336840152740479;-2.3859710693359375;-8.003204345703125;-2.8105926513671875
1445425631442;104.80943298339844;-104.73274993896484;1.1495107412338257;-0.542327880859375;-8.983871459960938;-2.6144561767578125
1445425631476;106.420654296875;-103.9516830444336;1.5124461650848389;1.0071258544921875;-9.356521606445312;-2.634063720703125
1445425631509;108.80696105957031;-103.62606811523438;1.7567589282989502;2.0074005126953125;-9.317291259765625;-2.7713623046875
1445425631544;109.58248901367188;-104.0892105102539;1.6884231567382812;1.222869873046875;-8.82696533203125;-0.3981475830078125
1445425631574;112.80760192871094;-105.21324920654297;1.7864129543304443;0.869842529296875;-9.513427734375;0.1706390380859375
1445425631608;117.31712341308594;-105.80831146240234;2.0648610591888428;-0.660003662109375;-11.141326904296875;-0.692352294921875
1445425631640;119.34051513671875;-105.85107421875;2.2217190265655518;-1.03265380859375;-11.592437744140625;-0.4569854736328125
1445425631673;123.21383666992188;-105.44522857666016;2.3562753200531006;-0.836517333984375;-12.259292602539062;-0.4569854736328125
1445425631706;127.377685546875;-104.15544891357422;2.228109836578369;-0.7384490966796875;-12.318130493164062;-0.4373779296875
1445425631742;129.4227294921875;-103.21294403076172;2.110614776611328;-0.6796112060546875;-12.004318237304688;-0.3981475830078125
1445425631772;133.38296508789062;-101.24258422851562;1.6931395530700684;-0.3854217529296875;-11.298233032226562;-0.4569854736328125
1445425631806;137.61627197265625;-99.55872344970703;0.9040078520774841;0.6933135986328125;-10.160659790039062;-0.7119598388671875
1445425631839;140.05320739746094;-99.04300689697266;0.39002734422683716;0.5167999267578125;-9.376129150390625;-0.77081298828125
1445425631871;145.6025390625;-98.383544921875;-0.7209932208061218;-0.4834747314453125;-8.689666748046875;-0.6531219482421875
1445425631905;148.54808044433594;-98.20048522949219;-1.1984543800354004;0.301055908203125;-9.278060913085938;0.01373291015625
1445425631937;154.62673950195312;-98.52813720703125;-1.4233144521713257;1.164031982421875;-8.689666748046875;0.30792236328125
1445425631970;161.96868896484375;-100.1065673828125;-0.7656835317611694;-0.1696624755859375;-8.003204345703125;-0.005889892578125
1445425632004;166.17327880859375;-101.1453628540039;-0.45230796933174133;-1.915252685546875;-8.630828857421875;0.4648284912109375
1445425632037;174.51052856445312;-103.45025634765625;0.43535497784614563;-3.0920562744140625;-11.121719360351562;-0.1431732177734375
1445425632069;180.28448486328125;-105.42098999023438;2.01289701461792;-0.9934234619140625;-11.357070922851562;-1.261138916015625
1445425632102;182.3319091796875;-106.5982437133789;2.9332306385040283;0.4971771240234375;-11.200164794921875;-1.888763427734375
1445425632138;186.05743408203125;-109.67936706542969;4.422913551330566;0.9678955078125;-10.552932739257812;-4.026611328125
1445425632168;189.833740234375;-111.83356475830078;4.493463039398193;-2.2682952880859375;-8.650436401367188;-4.6934661865234375
1445425632201;191.31134033203125;-112.32652282714844;4.075295925140381;-1.915252685546875;-8.748504638671875;-4.47772216796875
1445425632235;193.4703369140625;-112.47811889648438;2.5492053031921387;-0.3854217529296875;-9.846847534179688;-3.8108673095703125
1445425632268;195.7847900390625;-111.760498046875;0.6614685654640198;0.418731689453125;-9.591873168945312;-2.065277099609375
1445425632301;197.185791015625;-111.01611328125;-0.1594100147485733;0.7521514892578125;-9.00347900390625;-1.692626953125
1445425632333;200.13873291015625;-108.54684448242188;-1.9532368183135986;1.0659637451171875;-8.5523681640625;-0.77081298828125
1445425632367;201.2127685546875;-106.947998046875;-3.089653253555298;0.9482879638671875;-8.650436401367188;-0.2804718017578125
1445425632400;202.2578125;-103.26150512695312;-5.250124931335449;0.242218017578125;-8.846572875976562;1.0924530029296875
1445425632433;203.6668701171875;-99.22894287109375;-6.211882591247559;0.359893798828125;-9.611495971679688;0.955169677734375
1445425632467;204.03961181640625;-97.14227294921875;-6.226595401763916;1.12481689453125;-10.219512939453125;-0.2608642578125
1445425632498;204.8192138671875;-92.71732330322266;-5.758683681488037;2.0858612060546875;-10.08221435546875;-0.3589324951171875
1445425632531;205.802001953125;-89.12627410888672;-5.282167434692383;1.811279296875;-12.161224365234375;-2.08489990234375
1445425632564;206.532470703125;-88.07209777832031;-5.032773971557617;0.7129364013671875;-12.259292602539062;-2.4183197021484375
1445425632598;208.325439453125;-88.02861022949219;-4.007823944091797;-0.1892852783203125;-11.808181762695312;-1.5945587158203125
1445425632631;208.921630859375;-88.66753387451172;-3.5094120502471924;-0.326568603515625;-11.886642456054688;-1.0453948974609375
1445425632664;209.67059326171875;-90.45751953125;-2.8228611946105957;-0.4246368408203125;-12.043548583984375;-1.4768829345703125
1445425632696;210.74493408203125;-92.46395111083984;-2.7583930492401123;0.242218017578125;-11.10211181640625;-0.633514404296875
1445425632730;211.56732177734375;-93.47853088378906;-2.9243862628936768;-0.4638671875;-10.847137451171875;-0.0843353271484375
1445425632762;213.623046875;-94.85834503173828;-3.004146099090576;-0.6207733154296875;-10.690231323242188;-0.2020263671875
1445425632797;215.626953125;-94.88589477539062;-2.7392115592956543;-0.34619140625;-9.650726318359375;-0.2020263671875
1445425632828;216.87890625;-94.6968765258789;-2.630777597427368;-0.0519866943359375;-9.278060913085938;-0.2020263671875
1445425632862;219.53240966796875;-94.26683044433594;-2.7213780879974365;-0.1696624755859375;-9.023101806640625;-1.12384033203125
1445425632895;220.58856201171875;-94.19519805908203;-2.860772132873535;-0.660003662109375;-9.180007934570312;-1.96722412109375
1445425632928;222.17239379882812;-94.60114288330078;-2.7865538597106934;-0.9345855712890625;-9.317291259765625;-2.14373779296875
1445425632961;223.87451171875;-95.64997863769531;-2.024785280227661;-1.4249267578125;-9.356521606445312;-1.3984375
1445425632994;224.38137817382812;-96.3774185180664;-1.3890928030014038;-2.2094573974609375;-10.297958374023438;-0.868865966796875
1445425633026;223.2772216796875;-98.84512329101562;0.2722916603088379;-2.2486724853515625;-10.474472045898438;-0.2020263671875
1445425633059;218.94659423828125;-103.66474914550781;1.6995950937271118;0.10491943359375;-11.004043579101562;0.2686920166015625
1445425633093;216.60391235351562;-106.76538848876953;2.1422348022460938;2.635040283203125;-9.68994140625;-1.6533966064453125
1445425633125;214.10470581054688;-112.92864227294922;2.795872688293457;2.066253662109375;-8.591598510742188;-3.1047821044921875
1445425633159;214.888671875;-116.96739959716797;3.8919718265533447;-0.0716094970703125;-8.3758544921875;-4.2619781494140625
1445425633192;215.4908447265625;-117.66513061523438;4.4132232666015625;-0.1892852783203125;-8.709274291992188;-3.8108673095703125
1445425633226;216.44879150390625;-117.44213104248047;4.484340190887451;0.477569580078125;-9.748779296875;-3.34014892578125
1445425633257;217.5367431640625;-115.77692413330078;3.447721004486084;0.654083251953125;-10.101821899414062;-3.3793792724609375
1445425633290;218.03680419921875;-114.45545196533203;2.528627872467041;0.654083251953125;-9.827239990234375;-3.0067291259765625
1445425633324;219.10919189453125;-110.78889465332031;0.27325642108917236;1.36016845703125;-9.219223022460938;-1.457275390625
1445425633357;219.40798950195312;-108.66010284423828;-0.9730327725410461;1.732818603515625;-8.670059204101562;-0.0843353271484375
1445425633390;218.7572021484375;-103.7737045288086;-3.3016669750213623;1.2621002197265625;-8.238555908203125;1.2885894775390625
1445425633422;218.14422607421875;-98.1138916015625;-4.7764363288879395;0.3206634521484375;-8.670059204101562;0.8374786376953125
1445425633456;217.77456665039062;-95.26750946044922;-5.092545986175537;0.987518310546875;-10.31756591796875;-0.5550537109375
1445425633489;217.080078125;-90.07299041748047;-5.051629543304443;1.47784423828125;-11.690505981445312;-1.75146484375
1445425633521;217.43035888671875;-86.23562622070312;-5.151151657104492;1.222869873046875;-13.84796142578125;-4.0462188720703125
1445425633554;218.15548706054688;-85.5968017578125;-5.277616500854492;-0.3854217529296875;-13.475311279296875;-3.9677734375
1445425633587;220.23406982421875;-86.3158187866211;-5.220117092132568;-1.15032958984375;-11.474761962890625;-2.2221832275390625
1445425633621;221.33889770507812;-88.44695281982422;-5.053692817687988;-1.8367919921875;-12.788848876953125;-1.5553436279296875
1445425633653;221.76025390625;-89.62438201904297;-4.977994918823242;-2.0721588134765625;-13.181106567382812;-1.00616455078125
1445425633686;223.06494140625;-91.91825866699219;-4.520884990692139;-0.208892822265625;-9.513427734375;0.4844512939453125
1445425633718;224.08099365234375;-93.51580047607422;-4.38223123550415;-0.1696624755859375;-11.21978759765625;0.01373291015625
1445425633754;224.6658935546875;-93.9102554321289;-4.404730796813965;-0.032379150390625;-11.592437744140625;-0.182403564453125
1445425633785;226.1644287109375;-93.73237609863281;-4.5975260734558105;0.026458740234375;-9.944915771484375;-0.300079345703125
1445425633820;227.7081298828125;-92.86363983154297;-5.059335708618164;-0.1696624755859375;-9.258453369140625;-1.378814697265625
1445425633852;228.38406372070312;-92.35157775878906;-5.354251384735107;-0.208892822265625;-9.493820190429688;-2.006439208984375
1445425633892;229.37701416015625;-91.52349853515625;-6.099313259124756;-0.2481231689453125;-9.317291259765625;-2.14373779296875
1445425633918;229.8199462890625;-91.26655578613281;-6.500534534454346;-0.542327880859375;-9.513427734375;-1.496490478515625
1445425633951;230.7535400390625;-90.99039459228516;-7.106492042541504;-0.7972869873046875;-9.729171752929688;-0.692352294921875
1445425633984;231.031982421875;-91.18121337890625;-6.496029376983643;-0.601165771484375;-9.709564208984375;-0.2608642578125
1445425634017;230.98577880859375;-91.31566619873047;-5.790308952331543;1.47784423828125;-9.846847534179688;-1.18267822265625
1445425634050;231.4486083984375;-91.61972045898438;-4.475344657897949;2.242767333984375;-9.807632446289062;-1.3395843505859375
1445425634084;232.17071533203125;-92.13235473632812;-3.796748638153076;1.497467041015625;-9.611495971679688;-1.4768829345703125
1445425634116;232.35894775390625;-92.48347473144531;-3.5739595890045166;0.6344757080078125;-9.591873168945312;-1.6730194091796875
1445425634153;232.6734619140625;-93.44170379638672;-3.3360602855682373;-0.4638671875;-9.434967041015625;-1.3984375
1445425634187;233.02593994140625;-95.11695098876953;-3.59147572517395;-0.228515625;-10.19989013671875;-0.2216339111328125
1445425634216;233.31182861328125;-95.90758514404297;-3.806288480758667;-0.1304473876953125;-11.062881469726562;0.13140869140625
1445425634252;233.74517822265625;-96.08445739746094;-4.2258124351501465;-0.522705078125;-12.180831909179688;0.01373291015625
1445425634281;233.6824951171875;-94.39021301269531;-4.966709613800049;-0.0716094970703125;-10.6510009765625;0.0333404541015625
1445425634314;233.40652465820312;-93.28634643554688;-5.5764970779418945;0.0068511962890625;-9.846847534179688;-0.4962158203125
1445425634347;232.9232177734375;-91.0211181640625;-7.028345108032227;-0.01275634765625;-9.00347900390625;-1.4180450439453125
1445425634382;232.92156982421875;-89.96576690673828;-7.714005470275879;-0.228515625;-8.787734985351562;-2.08489990234375
1445425634413;232.5870361328125;-88.15243530273438;-8.814717292785645;-2.425201416015625;-8.748504638671875;-3.144012451171875
1445425634445;231.2784423828125;-87.1106948852539;-9.028056144714355;-5.053375244140625;-9.395751953125;-2.692901611328125
1445425634481;230.5849609375;-87.13395690917969;-8.670674324035645;-4.3276824951171875;-9.96453857421875;-0.8492584228515625
1445425634512;228.57000732421875;-88.77821350097656;-6.537106513977051;-0.0716094970703125;-11.670883178710938;-1.7318572998046875
1445425634545;226.01235961914062;-91.94983673095703;-3.3726511001586914;2.5958099365234375;-12.396575927734375;-3.6343536376953125
1445425634578;225.52166748046875;-94.07048797607422;-1.9210909605026245;2.988067626953125;-12.29852294921875;-3.3597564697265625
1445425634610;227.224609375;-99.9906997680664;0.9813413023948669;2.32122802734375;-13.828353881835938;-0.5550537109375
1445425634644;228.45968627929688;-105.75594329833984;3.691507577896118;1.850494384765625;-14.848251342773438;0.3471527099609375
1445425634676;227.31390380859375;-107.84639739990234;4.465918064117432;1.732818603515625;-14.181396484375;-1.18267822265625
1445425634709;223.96075439453125;-110.39314270019531;4.89286994934082;-1.03265380859375;-13.1026611328125;-4.65423583984375
1445425634743;222.245849609375;-111.38436126708984;4.975996494293213;-1.3072357177734375;-11.572830200195312;-1.96722412109375
1445425634776;218.0772705078125;-113.10784912109375;4.988336563110352;-0.326568603515625;-9.729171752929688;0.01373291015625
1445425634808;212.933349609375;-114.43730163574219;4.287892818450928;1.7132110595703125;-5.5711517333984375;0.2098541259765625
1445425634841;210.698974609375;-114.69438171386719;3.6893794536590576;1.7132110595703125;-4.9435272216796875;-0.1039581298828125
1445425634875;206.693359375;-114.23074340820312;2.0450620651245117;0.359893798828125;-4.1393890380859375;-1.888763427734375
1445425634908;203.68511962890625;-112.44493103027344;0.3516544699668884;0.595245361328125;-5.610382080078125;-3.1244049072265625
1445425634940;202.686279296875;-111.3245620727539;-0.33713579177856445;0.5560302734375;-7.23828125;-2.7713623046875
1445425634974;201.85882568359375;-109.29035186767578;-1.1983168125152588;-0.777679443359375;-10.415634155273438;-4.673858642578125
1445425635007;201.3582763671875;-108.65161895751953;-1.192256212234497;-2.34674072265625;-7.57171630859375;-3.9285430908203125
1445425635039;201.077392578125;-108.96062469482422;-0.6410121321678162;-2.3859710693359375;-9.650726318359375;-2.6732940673828125
1445425635072;201.989013671875;-108.92361450195312;1.6195834875106812;-1.7191162109375;-16.083877563476562;-4.026611328125
1445425635105;203.02294921875;-108.66556549072266;2.81947922706604;4.4002227783203125;-5.9241943359375;-2.9282684326171875
1445425635139;203.43377685546875;-110.1494369506836;3.708956003189087;5.2239837646484375;-4.6885528564453125;-3.7520294189453125
1445425635171;204.2711181640625;-110.20609283447266;3.1436777114868164;-0.542327880859375;-11.945480346679688;1.7200775146484375
1445425635204;205.9844970703125;-109.09756469726562;3.3572113513946533;0.5167999267578125;-14.004867553710938;-0.82965087890625
1445425635238;207.565673828125;-107.97528839111328;4.055656433105469;-0.1108245849609375;-10.8863525390625;-1.4768829345703125
1445425635270;208.97052001953125;-106.30720520019531;4.093842029571533;-0.6796112060546875;-11.768951416015625;-0.5942840576171875
1445425635304;209.4508056640625;-105.01972961425781;3.633857011795044;-1.169952392578125;-11.494369506835938;-0.7904205322265625
1445425635337;210.6268310546875;-101.84516143798828;2.996849298477173;-1.03265380859375;-9.807632446289062;-2.4967803955078125
1445425635370;211.4327392578125;-98.57894134521484;2.1805338859558105;1.3209381103515625;-8.473922729492188;-3.0655670166015625
1445425635402;211.61883544921875;-97.10297393798828;1.510206699371338;1.673980712890625;-8.1405029296875;-2.7713623046875
1445425635435;211.87353515625;-95.160888671875;0.1813981682062149;0.34027099609375;-9.160385131835938;-1.9279937744140625
1445425635469;211.88916015625;-94.43367767333984;-0.0693998634815216;-1.8367919921875;-11.062881469726562;-0.4766082763671875
1445425635501;212.39462280273438;-94.35142517089844;0.41346055269241333;-1.2680206298828125;-11.141326904296875;0.1510162353515625
1445425635535;215.06732177734375;-93.81571960449219;1.9606541395187378;1.36016845703125;-7.9835968017578125;2.210418701171875
1445425635567;216.83309936523438;-93.31117248535156;2.683809518814087;1.8897247314453125;-8.964248657226562;-1.6730194091796875
1445425635601;219.5069580078125;-91.88328552246094;3.0542149543762207;1.0071258544921875;-10.552932739257812;-1.8691558837890625
1445425635635;222.76715087890625;-91.08541870117188;2.7930896282196045;0.22259521484375;-11.965087890625;0.445220947265625
1445425635667;224.29559326171875;-90.73527526855469;2.5681333541870117;-2.739013671875;-12.41619873046875;3.1126251220703125
1445425635702;226.107421875;-89.31917572021484;2.25748348236084;-1.8956451416015625;-12.35736083984375;0.4059906005859375
1445425635733;226.26837158203125;-88.40143585205078;1.9879649877548218;0.5560302734375;-11.984695434570312;-0.3197021484375
1445425635766;226.382080078125;-86.5644760131836;0.8801334500312805;1.0267486572265625;-11.317855834960938;-0.77081298828125
1445425635800;227.45904541015625;-84.82070922851562;-0.7170264720916748;0.1245269775390625;-9.788009643554688;-1.18267822265625
1445425635834;228.64141845703125;-83.55455780029297;-2.242375612258911;-0.8757476806640625;-7.9051361083984375;-1.12384033203125
1445425635865;229.18719482421875;-82.99783325195312;-2.9648773670196533;-2.5036468505859375;-7.061767578125;-1.1630706787109375
1445425635897;230.29165649414062;-82.2135009765625;-3.957326889038086;-4.190399169921875;-7.8462982177734375;-1.6337890625
1445425635931;230.69287109375;-82.10502624511719;-4.098647117614746;-4.4649810791015625;-11.16094970703125;-2.7321319580078125
1445425635964;230.2125244140625;-82.91901397705078;-3.454765796661377;-3.739288330078125;-12.239669799804688;-2.8302001953125
1445425635996;227.62725830078125;-86.14472198486328;-1.9362901449203491;0.0656890869140625;-10.454864501953125;-4.65423583984375
1445425636032;225.85897827148438;-88.76030731201172;-1.3478144407272339;1.791656494140625;-10.7098388671875;-4.0658416748046875
1445425636062;224.29159545898438;-96.81144714355469;-0.6107739210128784;4.066802978515625;-14.377532958984375;1.1709136962890625
1445425636096;226.89306640625;-104.82882690429688;0.9793432354927063;5.204376220703125;-16.12310791015625;1.700469970703125
1445425636128;228.08810424804688;-107.83161163330078;1.9234027862548828;1.5170745849609375;-14.907089233398438;-0.810028076171875
1445425636162;227.98818969726562;-112.26034545898438;3.659172296524048;-0.85614013671875;-14.279464721679688;-4.6150054931640625
1445425636195;224.8248291015625;-116.22037506103516;3.650829315185547;1.0267486572265625;-12.278900146484375;-2.8105926513671875
1445425636228;222.159423828125;-117.80833435058594;2.4999866485595703;0.869842529296875;-9.297683715820312;-1.084625244140625
1445425636260;216.98348999023438;-120.21572875976562;-0.4174153506755829;0.595245361328125;-7.3951873779296875;-0.5354461669921875
1445425636293;214.79232788085938;-120.6263427734375;-1.6801111698150635;-0.032379150390625;-5.492706298828125;-0.1627960205078125
1445425636327;209.34701538085938;-119.64335632324219;-4.929300785064697;0.7717742919921875;-4.2570648193359375;-0.064727783203125
1445425636360;204.30255126953125;-116.74066925048828;-9.302817344665527;1.36016845703125;-6.630279541015625;0.19024658203125
1445425636393;202.348388671875;-115.05326080322266;-11.471939086914062;1.1444244384765625;-8.905410766601562;-0.0451202392578125
1445425636426;197.08782958984375;-110.82200622558594;-15.39793586730957;3.2234344482421875;-8.709274291992188;-1.06500244140625
1445425636458;192.6514892578125;-107.3483657836914;-17.69974136352539;6.1850433349609375;-7.316741943359375;-2.08489990234375
1445425636493;190.789794921875;-106.2667236328125;-18.549781799316406;7.34222412109375;-8.336624145507812;-2.6144561767578125
1445425636524;189.23956298828125;-106.37921905517578;-19.554784774780273;6.8715057373046875;-12.180831909179688;-3.026336669921875
1445425636557;189.936767578125;-107.4153823852539;-19.562158584594727;4.0275726318359375;-9.278060913085938;-1.6533966064453125
1445425636591;191.79522705078125;-110.13005065917969;-19.67903709411621;3.8510589599609375;-8.473922729492188;-1.712249755859375
1445425636624;195.09326171875;-113.83621215820312;-19.752056121826172;4.3413848876953125;-10.160659790039062;-1.96722412109375
1445425636656;196.8106689453125;-115.4682388305664;-19.748266220092773;3.2038116455078125;-10.062606811523438;-3.28131103515625
1445425636690;198.39764404296875;-116.59195709228516;-19.730318069458008;2.9488525390625;-8.689666748046875;-3.8108673095703125
1445425636723;198.25927734375;-114.8773422241211;-19.468990325927734;3.615692138671875;-9.415359497070312;-4.9876708984375
1445425636756;198.43701171875;-113.82335662841797;-19.08277702331543;3.1057586669921875;-11.415924072265625;-5.90948486328125
1445425636789;198.8797607421875;-111.91244506835938;-17.881925582885742;2.73309326171875;-11.376693725585938;-6.2625274658203125
1445425636821;199.172607421875;-110.41316223144531;-15.989503860473633;0.4383392333984375;-8.473922729492188;-4.65423583984375
1445425636855;199.6446533203125;-110.06775665283203;-14.908832550048828;0.3795013427734375;-7.7286224365234375;-3.908935546875
1445425636888;201.23779296875;-109.68478393554688;-12.551453590393066;0.4579620361328125;-6.3360748291015625;-1.7318572998046875
1445425636921;202.04754638671875;-109.25003051757812;-11.137995719909668;-0.542327880859375;-6.6498870849609375;-2.2221832275390625
1445425636953;203.004638671875;-108.10762786865234;-7.894076347351074;-0.7580718994140625;-6.414520263671875;-2.0456695556640625
1445425636987;204.48095703125;-108.15919494628906;-3.736680746078491;-0.85614013671875;-6.55181884765625;-2.967498779296875
1445425637020;204.91680908203125;-108.43928527832031;-1.6529847383499146;-2.05255126953125;-8.866195678710938;-3.889312744140625
1445425637052;204.71099853515625;-109.13302612304688;0.8296673893928528;-1.6014404296875;-10.866744995117188;-3.791259765625
1445425637085;203.9832763671875;-109.78996276855469;1.3961390256881714;1.41900634765625;-12.004318237304688;-3.6343536376953125
1445425637119;203.2362060546875;-110.14550018310547;1.2030810117721558;3.1842041015625;-12.671173095703125;-4.1246795654296875
1445425637151;200.69354248046875;-110.42733001708984;0.37573906779289246;1.12481689453125;-13.298797607421875;-3.536285400390625
1445425637185;196.598876953125;-109.36048889160156;-0.5395972728729248;-1.287628173828125;-12.945755004882812;-1.12384033203125
1445425637220;194.09698486328125;-108.29357147216797;-1.0258411169052124;-0.3657989501953125;-12.612335205078125;-1.3395843505859375
1445425637252;188.5528564453125;-105.96160888671875;-2.1209352016448975;1.6347503662109375;-10.31756591796875;-1.0453948974609375
1445425637286;183.51568603515625;-103.52864837646484;-3.377382278442383;3.831451416015625;-8.062042236328125;-1.8691558837890625
1445425637322;181.43310546875;-102.19579315185547;-4.249033451080322;3.69415283203125;-7.7286224365234375;-2.065277099609375
1445425637350;178.20237731933594;-99.7209243774414;-6.525048732757568;2.5958099365234375;-7.3363494873046875;-1.496490478515625
1445425637385;176.3352508544922;-97.86907958984375;-9.138821601867676;1.2621002197265625;-7.826690673828125;-0.88848876953125
1445425637415;175.62391662597656;-97.1451187133789;-10.434040069580078;1.0267486572265625;-8.120880126953125;-0.9277191162109375
1445425637449;173.54759216308594;-95.62078857421875;-11.703803062438965;0.0853118896484375;-11.082489013671875;0.01373291015625
1445425637482;172.9014892578125;-94.9464340209961;-11.377528190612793;2.5173492431640625;-11.141326904296875;0.680572509765625
1445425637514;172.4928741455078;-94.24811553955078;-9.770706176757812;3.63531494140625;-9.631103515625;0.621734619140625
1445425637548;173.86720275878906;-94.49983215332031;-8.21016788482666;2.7919464111328125;-10.396026611328125;0.1510162353515625
1445425637580;175.2627410888672;-94.8249282836914;-7.751047611236572;0.22259521484375;-12.259292602539062;1.465118408203125
1445425637613;178.97445678710938;-95.69779968261719;-6.766732215881348;-1.169952392578125;-11.533599853515625;0.01373291015625
1445425637646;182.29925537109375;-95.99931335449219;-6.116408824920654;-1.15032958984375;-11.39630126953125;1.1709136962890625
1445425637679;183.8731689453125;-95.89097595214844;-6.002363681793213;-1.1895599365234375;-11.51397705078125;0.6609649658203125
1445425637712;187.1136474609375;-95.10015869140625;-6.12757682800293;0.6933135986328125;-10.5921630859375;-1.829925537109375
1445425637745;189.9952392578125;-94.2569351196289;-7.069669723510742;1.2621002197265625;-8.4935302734375;-1.888763427734375
1445425637779;191.1826171875;-93.95004272460938;-7.7385358810424805;0.7521514892578125;-8.336624145507812;-1.692626953125
1445425637812;193.763427734375;-93.29158782958984;-8.698286056518555;0.3795013427734375;-9.140777587890625;-1.9868316650390625
1445425637844;195.2113037109375;-92.99950408935547;-8.875231742858887;-1.15032958984375;-10.278350830078125;-1.888763427734375
1445425637878;197.05908203125;-92.57840728759766;-8.268841743469238;-3.2685699462890625;-10.042984008789062;-0.4569854736328125
1445425637911;196.8265380859375;-92.27024841308594;-6.359894275665283;-3.170501708984375;-9.317291259765625;0.1510162353515625
1445425637944;196.2178955078125;-92.26933288574219;-5.480483055114746;2.2819976806640625;-10.101821899414062;-1.574951171875
1445425637977;194.817626953125;-93.761474609375;-4.9703779220581055;2.6546478271484375;-9.90570068359375;0.9159393310546875
1445425638010;195.3529052734375;-94.99671936035156;-5.183928966522217;2.2035369873046875;-10.572540283203125;1.7789306640625
1445425638043;196.0537109375;-95.34211730957031;-5.271485328674316;0.242218017578125;-12.553482055664062;0.9747772216796875
1445425638076;196.7432861328125;-95.35392761230469;-5.305902481079102;0.8502197265625;-11.984695434570312;-0.064727783203125
1445425638109;196.78125;-95.0029067993164;-5.474750995635986;1.2032623291015625;-10.552932739257812;-0.810028076171875
1445425638142;196.716552734375;-94.30936431884766;-6.522716522216797;0.3991241455078125;-9.886077880859375;-1.2807464599609375
1445425638174;197.2569580078125;-93.97974395751953;-7.656404972076416;-0.326568603515625;-9.317291259765625;-2.08489990234375
1445425638208;197.71099853515625;-93.93445587158203;-8.040034294128418;-1.5818328857421875;-8.532760620117188;-1.6533966064453125
1445425638241;198.7802734375;-94.46753692626953;-8.600725173950195;-2.5624847412109375;-8.76812744140625;-1.457275390625
1445425638273;199.4681396484375;-96.51920318603516;-7.911222457885742;-2.484039306640625;-8.787734985351562;-1.2219085693359375
1445425638306;199.915771484375;-97.8454818725586;-7.060145378112793;-1.8367919921875;-8.905410766601562;-1.18267822265625
1445425638339;201.37921142578125;-101.07964324951172;-4.162758827209473;1.36016845703125;-10.749069213867188;-1.947601318359375
1445425638373;203.04742431640625;-104.50415802001953;-0.7974956035614014;4.439453125;-11.808181762695312;-3.39898681640625
1445425638407;203.766357421875;-105.92756652832031;0.607791543006897;4.71405029296875;-12.141616821289062;-3.9285430908203125
1445425638438;204.47686767578125;-108.72006225585938;2.813976287841797;4.007965087890625;-12.671173095703125;-1.5945587158203125
1445425638471;204.25830078125;-109.802734375;3.0384809970855713;2.67425537109375;-12.29852294921875;-2.065277099609375
1445425638505;203.76104736328125;-111.16009521484375;2.4933645725250244;2.49774169921875;-11.78857421875;-2.32025146484375
1445425638537;204.0625;-111.48258209228516;1.401390790939331;1.36016845703125;-8.964248657226562;-2.6144561767578125
1445425638571;204.3687744140625;-111.40836334228516;0.6566424369812012;0.2618255615234375;-7.669769287109375;-2.1045074462890625
1445425638604;204.9517822265625;-110.7051773071289;-1.0730836391448975;-0.1892852783203125;-7.12060546875;-1.9868316650390625
1445425638636;204.90386962890625;-109.23934173583984;-2.738737106323242;0.04608154296875;-6.238006591796875;-1.810302734375
1445425638670;204.7857666015625;-108.18714141845703;-3.316650629043579;0.4579620361328125;-6.238006591796875;-2.02606201171875
1445425638703;204.947509765625;-105.78644561767578;-4.238243103027344;-1.5033721923828125;-11.141326904296875;-4.0070037841796875
1445425638736;205.38055419921875;-104.98992156982422;-4.387247562408447;-3.1901092529296875;-11.494369506835938;-4.850372314453125
1445425638768;206.623291015625;-105.718505859375;-3.5239381790161133;-1.974090576171875;-8.513153076171875;-4.8111419677734375
1445425638804;210.10211181640625;-108.85989379882812;-0.8773908019065857;3.63531494140625;-6.061492919921875;-4.0658416748046875
1445425638834;211.22463989257812;-110.88357543945312;-0.13983546197414398;1.928955078125;-8.5523681640625;-2.7517547607421875
1445425638868;212.06723022460938;-114.95609283447266;0.03872973844408989;0.5167999267578125;-10.866744995117188;-1.51611328125
1445425638903;213.3419189453125;-117.49547576904297;0.6326659917831421;1.12481689453125;-12.828079223632812;-2.4771575927734375
1445425638933;213.554931640625;-117.81863403320312;0.668653130531311;1.75244140625;-11.847412109375;-3.0459442138671875
1445425638967;213.79486083984375;-116.24575805664062;0.152304008603096;2.9488525390625;-11.21978759765625;-2.457550048828125
1445425639001;215.18557739257812;-113.38589477539062;-0.44878047704696655;3.262664794921875;-10.964813232421875;-2.6536865234375
1445425639032;216.06170654296875;-111.5060806274414;-1.0194884538650513;2.8899993896484375;-9.788009643554688;-1.7318572998046875
1445425639069;217.79177856445312;-107.37171936035156;-2.5413239002227783;-0.4246368408203125;-8.454315185546875;0.327545166015625
1445425639102;219.42532348632812;-102.56395721435547;-4.161105632781982;-1.7779541015625;-7.297119140625;1.641632080078125
1445425639133;219.57257080078125;-99.94111633300781;-4.880458354949951;-1.8956451416015625;-7.7286224365234375;1.3670501708984375
1445425639164;218.53009033203125;-94.86250305175781;-4.831626892089844;-0.640380859375;-11.533599853515625;-1.378814697265625
1445425639197;218.19671630859375;-90.28644561767578;-3.7854483127593994;2.301605224609375;-13.141891479492188;-3.536285400390625
1445425639230;218.6641845703125;-88.88102722167969;-3.3763816356658936;1.0071258544921875;-10.9451904296875;-2.4379425048828125
1445425639264;220.07861328125;-88.1810531616211;-2.827789545059204;-1.1307220458984375;-10.572540283203125;-2.4771575927734375
1445425639303;220.69366455078125;-89.159912109375;-2.5158889293670654;0.4383392333984375;-11.867019653320312;-1.2219085693359375
1445425639329;221.14801025390625;-89.9481430053711;-2.383467197418213;-0.5030975341796875;-15.181671142578125;-2.5556182861328125
1445425639362;222.8162841796875;-91.69114685058594;-1.9387929439544678;0.7717742919921875;-9.023101806640625;0.2686920166015625
1445425639395;223.67568969726562;-92.77604675292969;-1.9352189302444458;-1.03265380859375;-12.239669799804688;-0.2608642578125
1445425639429;224.816162109375;-94.45913696289062;-2.33125901222229;-1.09149169921875;-12.337738037109375;-0.0451202392578125
1445425639462;226.4283447265625;-94.35237121582031;-2.436410427093506;-0.3069610595703125;-9.68994140625;-0.4177703857421875
1445425639495;227.25750732421875;-93.83056640625;-2.566986083984375;-1.228790283203125;-9.552658081054688;-2.26141357421875
1445425639528;228.21807861328125;-92.67269134521484;-3.0315661430358887;-1.346466064453125;-9.395751953125;-3.0459442138671875
1445425639561;228.24249267578125;-91.8797378540039;-3.807401180267334;-0.4246368408203125;-8.964248657226562;-2.7713623046875
1445425639593;228.12796020507812;-91.69951629638672;-4.306572437286377;-1.03265380859375;-9.160385131835938;-1.457275390625
1445425639627;227.7884521484375;-91.71988677978516;-4.498781204223633;-0.6796112060546875;-9.474197387695312;-0.4177703857421875
1445425639660;227.4725341796875;-91.98159790039062;-3.746067762374878;1.0659637451171875;-9.768402099609375;-1.18267822265625
1445425639693;227.25604248046875;-92.19300842285156;-3.251446485519409;1.9681854248046875;-9.827239990234375;-1.8495330810546875
1445425639726;226.81036376953125;-92.6504898071289;-2.30981707572937;1.8701171875;-9.356521606445312;-1.6730194091796875
1445425639758;226.58013916015625;-92.93025970458984;-1.9813121557235718;-0.5619354248046875;-10.042984008789062;-0.3785400390625
1445425639791;225.94500732421875;-93.92383575439453;-1.695799469947815;-0.8757476806640625;-10.121444702148438;-0.82965087890625
1445425639825;224.98626708984375;-95.4104995727539;-1.7557581663131714;0.1833648681640625;-10.5921630859375;0.1706390380859375
1445425639858;224.4395751953125;-96.15828704833984;-1.9714601039886475;0.3206634521484375;-11.553207397460938;-0.1431732177734375
1445425639891;224.130859375;-96.96920013427734;-2.5259833335876465;0.7913818359375;-11.631668090820312;-1.574951171875
1445425639924;224.06805419921875;-96.5667495727539;-3.560589075088501;-0.6796112060546875;-9.925308227539062;-0.8492584228515625
1445425639957;223.864990234375;-96.01164245605469;-4.179254055023193;-0.9934234619140625;-9.317291259765625;-1.3395843505859375
1445425639989;223.16839599609375;-94.56591796875;-5.346189498901367;-0.8757476806640625;-8.76812744140625;-2.8105926513671875
1445425640022;222.46868896484375;-93.20551300048828;-6.313632965087891;-1.6210479736328125;-8.983871459960938;-2.8105926513671875
1445425640055;222.13262939453125;-92.73966979980469;-6.5893120765686035;-2.739013671875;-9.219223022460938;-2.8694305419921875
1445425640090;221.0975341796875;-92.56922149658203;-6.4271392822265625;-3.54315185546875;-8.336624145507812;-2.4183197021484375
1445425640122;220.56591796875;-93.11475372314453;-6.074600696563721;-3.6412200927734375;-7.9051361083984375;-0.4766082763671875
1445425640155;218.75091552734375;-95.63032531738281;-4.502176284790039;-0.208892822265625;-9.081939697265625;-0.0451202392578125
1445425640187;215.71725463867188;-99.0655288696289;-2.178398847579956;5.00823974609375;-14.965927124023438;-3.16363525390625
1445425640222;214.63302612304688;-100.68643951416016;-1.3262251615524292;6.008514404296875;-14.338302612304688;-5.0661163330078125
1445425640254;215.1407470703125;-104.99556732177734;0.3924008309841156;2.7919464111328125;-13.2203369140625;-4.36004638671875
1445425640286;216.5;-109.71701049804688;2.4578781127929688;1.12481689453125;-13.259567260742188;-1.143463134765625
1445425640320;216.24349975585938;-111.42855834960938;3.091881036758423;1.6347503662109375;-11.749343872070312;-1.3984375
1445425640353;214.17584228515625;-113.74557495117188;2.476256847381592;2.125091552734375;-10.239120483398438;-2.457550048828125
1445425640385;212.35400390625;-114.63220977783203;0.8792463541030884;1.811279296875;-8.630828857421875;-2.6144561767578125
1445425640421;211.4793701171875;-114.76392364501953;-0.050139568746089935;1.046356201171875;-7.885528564453125;-2.339874267578125
1445425640452;208.93374633789062;-114.6191177368164;-2.5185317993164062;0.0068511962890625;-6.5322113037109375;-1.5553436279296875
1445425640486;206.36932373046875;-113.86565399169922;-5.193393707275391;-0.1696624755859375;-4.9435272216796875;-1.457275390625
1445425640518;205.75537109375;-113.14057159423828;-6.28051233291626;0.7717742919921875;-4.963134765625;-1.8495330810546875
1445425640552;206.27557373046875;-111.07508087158203;-8.801190376281738;0.987518310546875;-9.395751953125;-5.301483154296875
1445425640583;206.42047119140625;-110.41826629638672;-10.160863876342773;0.477569580078125;-10.690231323242188;-6.105621337890625
1445425640618;205.752685546875;-110.83674621582031;-12.322528839111328;1.5759124755859375;-11.984695434570312;-5.1837921142578125
1445425640649;205.734375;-112.32228088378906;-12.716291427612305;3.69415283203125;-8.473922729492188;-4.9288177490234375
1445425640686;206.65435791015625;-115.26781463623047;-12.062922477722168;1.164031982421875;-10.003753662109375;-5.2818603515625
1445425640718;206.3623046875;-117.88301849365234;-11.241806030273438;-0.85614013671875;-11.415924072265625;-5.8310394287109375
1445425640751;204.047119140625;-120.14022827148438;-10.866484642028809;0.7129364013671875;-9.886077880859375;-5.870269775390625
1445425640782;201.5927734375;-120.66166687011719;-11.49641227722168;1.8897247314453125;-9.415359497070312;-5.2230224609375
1445425640819;195.9537353515625;-120.84148406982422;-13.46200942993164;2.929229736328125;-9.160385131835938;-3.0459442138671875
1445425640848;193.156494140625;-120.4379653930664;-14.310296058654785;3.949127197265625;-8.003204345703125;-0.9080963134765625
1445425640881;188.69085693359375;-118.9917984008789;-15.567010879516602;3.262664794921875;-7.3363494873046875;-0.633514404296875
1445425640914;185.0877685546875;-117.34728240966797;-17.123268127441406;1.8701171875;-6.5125885009765625;-1.202301025390625
1445425640949;183.12158203125;-116.17051696777344;-17.980112075805664;0.9678955078125;-6.1399383544921875;-1.261138916015625
1445425640979;178.6661834716797;-112.89349365234375;-18.97846221923828;1.0071258544921875;-6.7087249755859375;-0.9865570068359375
1445425641012;173.48800659179688;-109.16242218017578;-18.527904510498047;1.6935882568359375;-9.12115478515625;-0.1627960205078125
1445425641048;170.58551025390625;-107.04034423828125;-17.625478744506836;2.43890380859375;-9.96453857421875;0.111785888671875
1445425641079;166.17723083496094;-102.95868682861328;-14.812310218811035;5.4593505859375;-10.31756591796875;0.1706390380859375
1445425641111;164.5180206298828;-99.7132797241211;-11.965485572814941;8.381729125976562;-10.356796264648438;-1.3592071533203125
1445425641145;164.0426483154297;-98.85520935058594;-11.278172492980957;9.127029418945312;-10.5921630859375;-1.6730194091796875
1445425641178;164.9595489501953;-99.1073989868164;-11.530817985534668;6.7342071533203125;-12.102386474609375;-0.515838623046875
1445425641211;168.14596557617188;-100.66011810302734;-12.187738418579102;3.3999481201171875;-12.35736083984375;-0.0451202392578125
1445425641243;169.6001434326172;-101.70777130126953;-12.248169898986816;3.3411102294921875;-12.41619873046875;-0.94732666015625
1445425641277;171.30386352539062;-102.01226043701172;-12.201128959655762;0.418731689453125;-12.749618530273438;-3.908935546875
1445425641310;172.95932006835938;-102.04757690429688;-12.692073822021484;4.145263671875;-8.532760620117188;-1.2807464599609375
1445425641342;173.40211486816406;-102.14802551269531;-13.861126899719238;2.9096221923828125;-8.003204345703125;-0.9669342041015625
1445425641376;176.00314331054688;-102.45388793945312;-16.33323097229004;2.360443115234375;-8.022811889648438;-1.574951171875
1445425641410;178.5336456298828;-102.53522491455078;-16.96772575378418;2.5761871337890625;-7.826690673828125;-1.692626953125
1445425641441;183.483642578125;-102.53089141845703;-18.046634674072266;0.4579620361328125;-7.316741943359375;-1.574951171875
1445425641474;188.67218017578125;-102.81803894042969;-18.700151443481445;1.164031982421875;-7.944366455078125;-2.339874267578125
1445425641508;191.2366943359375;-103.21635437011719;-18.882492065429688;2.635040283203125;-9.493820190429688;-3.1047821044921875
1445425641541;196.2677001953125;-105.04753112792969;-18.86292266845703;2.4781341552734375;-9.042709350585938;-3.261688232421875
1445425641574;201.62921142578125;-107.61997985839844;-18.227582931518555;0.3206634521484375;-8.062042236328125;-4.0658416748046875
1445425641606;203.52947998046875;-108.83499145507812;-17.837604522705078;-1.522979736328125;-8.82696533203125;-4.5561676025390625
1445425641640;205.7109375;-111.0230712890625;-16.85078239440918;-2.2094573974609375;-11.533599853515625;-4.5561676025390625
1445425641673;205.27276611328125;-112.02777099609375;-15.924087524414062;0.1245269775390625;-11.612045288085938;-2.1045074462890625
1445425641706;204.04132080078125;-111.82213592529297;-15.33736515045166;0.9678955078125;-11.39630126953125;-1.5945587158203125
1445425641738;200.57745361328125;-110.15853118896484;-13.9998197555542;1.6935882568359375;-11.867019653320312;-1.947601318359375
1445425641772;198.23992919921875;-109.01426696777344;-13.433353424072266;1.556304931640625;-11.612045288085938;-1.9083709716796875
1445425641804;193.517333984375;-106.76216125488281;-12.596587181091309;1.75244140625;-10.729446411132812;-1.692626953125
1445425641838;189.2974853515625;-104.92411804199219;-12.319575309753418;2.752716064453125;-10.7098388671875;-2.281036376953125
1445425641872;187.358154296875;-104.2114486694336;-12.270898818969727;2.125091552734375;-9.395751953125;-2.14373779296875
1445425641903;184.62274169921875;-103.30117797851562;-11.7516450881958;0.3206634521484375;-7.375579833984375;-0.6138916015625
1445425641936;182.7445068359375;-102.23681640625;-10.593365669250488;-0.150054931640625;-7.92474365234375;0.1510162353515625
1445425641970;181.3148193359375;-101.42483520507812;-9.953203201293945;-0.7972869873046875;-9.140777587890625;0.30792236328125
1445425642003;177.2110137939453;-98.9011459350586;-8.664856910705566;1.0855865478515625;-9.238845825195312;-0.300079345703125
1445425642035;175.14442443847656;-97.66812896728516;-8.147738456726074;3.51763916015625;-9.866470336914062;-0.3785400390625
1445425642069;171.5628204345703;-96.0015640258789;-7.648001670837402;3.498016357421875;-11.51397705078125;0.0921783447265625
1445425642101;170.39138793945312;-95.83756256103516;-7.708475589752197;2.5369720458984375;-10.7098388671875;1.4258880615234375
1445425642135;170.34671020507812;-96.12308502197266;-7.719662189483643;2.2035369873046875;-12.435806274414062;1.0532379150390625
1445425642167;170.5822296142578;-96.90198516845703;-7.35755729675293;2.046630859375;-10.611770629882812;0.562896728515625
1445425642201;172.2779541015625;-96.89488983154297;-7.536192417144775;0.418731689453125;-11.474761962890625;-1.084625244140625
1445425642233;173.3656768798828;-96.93968963623047;-7.896910667419434;-0.34619140625;-12.769241333007812;-1.5945587158203125
1445425642266;175.7448272705078;-97.18865203857422;-8.429403305053711;-1.03265380859375;-10.9451904296875;-1.06500244140625
1445425642300;177.43145751953125;-96.88845825195312;-7.979036331176758;0.16375732421875;-8.415084838867188;-0.633514404296875
1445425642334;177.89759826660156;-96.5186996459961;-7.694493770599365;1.2817230224609375;-7.6501617431640625;-0.4766082763671875
1445425642365;179.25787353515625;-95.70752716064453;-7.1807403564453125;2.360443115234375;-7.7678375244140625;-0.4962158203125
1445425642399;180.1248779296875;-95.33133697509766;-6.998601913452148;1.791656494140625;-8.650436401367188;-1.3395843505859375
1445425642433;181.83416748046875;-94.69184112548828;-6.755309104919434;1.12481689453125;-9.06231689453125;-1.261138916015625
1445425642467;183.06103515625;-94.30209350585938;-6.418723106384277;-1.4249267578125;-7.944366455078125;-0.4373779296875
1445425642497;183.4683837890625;-94.25534057617188;-6.0004682540893555;-1.5426025390625;-8.925033569335938;-1.1630706787109375
1445425642536;185.0843505859375;-94.75888061523438;-4.298789024353027;-1.0130462646484375;-13.49493408203125;-3.2420806884765625
1445425642564;185.2857666015625;-96.05680084228516;-2.8214025497436523;1.6935882568359375;-10.337188720703125;0.4648284912109375
1445425642598;185.15972900390625;-96.82714080810547;-2.927781581878662;1.497467041015625;-11.317855834960938;0.4648284912109375
1445425642629;186.45379638671875;-97.11744689941406;-3.52388334274292;0.28143310546875;-12.180831909179688;1.38665771484375
1445425642663;188.0064697265625;-96.00928497314453;-3.5232293605804443;1.164031982421875;-10.964813232421875;1.1120758056640625
1445425642697;189.01019287109375;-95.31332397460938;-3.28412127494812;1.732818603515625;-10.25872802734375;0.7786407470703125
1445425642728;192.13916015625;-94.05475616455078;-2.829637050628662;2.3996734619140625;-10.14105224609375;-1.574951171875
1445425642762;197.3572998046875;-94.143310546875;-3.10311222076416;1.0659637451171875;-9.45458984375;-1.496490478515625
1445425642795;200.23974609375;-95.1049575805664;-3.4443602561950684;0.987518310546875;-8.454315185546875;-0.4766082763671875
1445425642828;206.14697265625;-98.3626708984375;-4.096285343170166;-0.7580718994140625;-7.5128631591796875;1.38665771484375
1445425642861;209.7054443359375;-100.26917266845703;-4.056031703948975;0.4971771240234375;-8.88580322265625;-1.1042327880859375
1445425642894;215.909423828125;-102.68255615234375;-3.542159080505371;0.8109893798828125;-9.45458984375;-1.1630706787109375
1445425642926;220.03753662109375;-103.7253646850586;-3.5388238430023193;-3.2685699462890625;-9.572265625;-3.1244049072265625
1445425642960;221.36013793945312;-104.51669311523438;-3.627890110015869;-4.50421142578125;-11.494369506835938;-4.36004638671875
1445425642992;222.1865234375;-106.17670440673828;-4.102401256561279;-1.797576904296875;-11.572830200195312;-1.3984375
1445425643026;219.47674560546875;-107.26737976074219;-6.206443786621094;-1.4445343017578125;-12.337738037109375;-2.634063720703125
1445425643058;218.141357421875;-108.02816772460938;-7.650704383850098;-1.0718841552734375;-12.180831909179688;-2.4379425048828125
1445425643091;215.191162109375;-109.04845428466797;-10.002250671386719;2.32122802734375;-10.25872802734375;-2.398712158203125
1445425643124;211.94732666015625;-109.2009048461914;-11.359121322631836;0.7325439453125;-9.886077880859375;-3.908935546875
1445425643157;210.16839599609375;-109.05814361572266;-11.727836608886719;0.34027099609375;-9.944915771484375;-3.477447509765625
1445425643190;206.6614990234375;-108.48371887207031;-11.67172622680664;0.34027099609375;-9.631103515625;-2.634063720703125
1445425643224;204.371337890625;-107.84347534179688;-11.519126892089844;0.28143310546875;-8.964248657226562;-2.4967803955078125
1445425643256;198.9716796875;-106.23445892333984;-11.215767860412598;0.3991241455078125;-8.454315185546875;-2.4771575927734375
1445425643289;192.5985107421875;-104.63035583496094;-10.801477432250977;0.1441497802734375;-8.336624145507812;-2.4183197021484375
1445425643323;189.3634033203125;-103.84126281738281;-10.36911678314209;-0.6796112060546875;-9.533035278320312;-0.810028076171875
1445425643356;183.43475341796875;-102.11698913574219;-8.804586410522461;-0.91497802734375;-10.003753662109375;0.7198028564453125
1445425643389;177.85440063476562;-99.59872436523438;-6.108386516571045;0.6933135986328125;-9.886077880859375;0.58251953125
1445425643421;175.2075653076172;-98.24574279785156;-4.671006202697754;4.6748199462890625;-8.866195678710938;-1.457275390625
1445425643454;169.72262573242188;-96.99319458007812;-3.9402384757995605;10.75494384765625;-9.709564208984375;-1.5357208251953125
1445425643487;167.95603942871094;-97.44243621826172;-5.238973140716553;4.576751708984375;-10.160659790039062;3.524505615234375
1445425643522;167.5167236328125;-99.79118347167969;-8.487335205078125;-2.2486724853515625;-13.55377197265625;2.7399749755859375
1445425643553;170.582275390625;-100.26220703125;-7.771387100219727;-0.287353515625;-13.416473388671875;0.386383056640625
1445425643586;172.8115692138672;-98.47589111328125;-6.9846577644348145;4.94940185546875;-11.062881469726562;-0.6727447509765625
1445425643620;173.87059020996094;-98.01370239257812;-7.266005516052246;4.380615234375;-11.082489013671875;-0.88848876953125
1445425643652;177.06858825683594;-98.22056579589844;-8.103007316589355;1.850494384765625;-10.670608520507812;-1.574951171875
1445425643686;179.45693969726562;-98.93804168701172;-8.251916885375977;1.732818603515625;-8.76812744140625;-0.6138916015625
1445425643722;185.004150390625;-101.19940948486328;-7.90126371383667;1.0267486572265625;-8.179718017578125;-0.1627960205078125
1445425643752;191.3184814453125;-103.85088348388672;-6.941606044769287;0.3795013427734375;-7.5324859619140625;-0.94732666015625
1445425643787;194.326171875;-105.03636169433594;-6.323418140411377;0.4971771240234375;-6.355682373046875;-0.692352294921875
1445425643821;198.9896240234375;-107.0025405883789;-5.144526958465576;0.359893798828125;-6.1399383544921875;-1.3003692626953125
1445425643850;202.52099609375;-108.68508911132812;-4.066651344299316;0.418731689453125;-9.140777587890625;-3.8697052001953125
1445425643883;203.9788818359375;-109.4593276977539;-3.3948135375976562;0.28143310546875;-11.572830200195312;-5.1053466796875
1445425643917;205.95587158203125;-110.7780990600586;-2.3547685146331787;-0.4442596435546875;-12.886917114257812;-5.90948486328125
1445425643949;206.37225341796875;-111.532958984375;-2.157257318496704;-0.150054931640625;-10.631378173828125;-5.1641845703125
1445425643983;205.38861083984375;-113.7408676147461;-2.6249654293060303;0.4383392333984375;-9.729171752929688;-4.7523040771484375
1445425644018;204.18524169921875;-115.5425796508789;-3.608140230178833;1.2621002197265625;-11.357070922851562;-4.1835174560546875
1445425644049;203.98681640625;-115.7890853881836;-3.798236608505249;1.41900634765625;-11.141326904296875;-4.163909912109375
1445425644082;203.4405517578125;-114.7672348022461;-4.030332565307617;1.8897247314453125;-8.395462036132812;-2.8498077392578125
1445425644118;201.57196044921875;-112.72791290283203;-5.143953323364258;1.105194091796875;-6.5125885009765625;-0.4177703857421875
1445425644150;200.8558349609375;-110.09992980957031;-6.225340366363525;0.8109893798828125;-6.296844482421875;-1.0453948974609375
1445425644180;200.9769287109375;-108.60830688476562;-6.634331703186035;0.536407470703125;-6.5125885009765625;-1.1630706787109375
1445425644214;201.599609375;-105.44710540771484;-7.1379547119140625;0.6933135986328125;-8.1405029296875;-0.94732666015625
1445425644251;201.9368896484375;-103.86029052734375;-7.272164821624756;1.0855865478515625;-9.748779296875;-1.6533966064453125
1445425644279;202.06536865234375;-100.30216979980469;-7.355068206787109;2.046630859375;-13.436080932617188;-5.3995513916015625
1445425644312;201.7816162109375;-99.2112808227539;-7.275301933288574;0.869842529296875;-10.984420776367188;-6.5763397216796875
1445425644347;203.0518798828125;-99.68366241455078;-6.466969966888428;0.6344757080078125;-9.846847534179688;-5.6349029541015625
1445425644378;206.30438232421875;-103.758544921875;-4.800800800323486;3.3999481201171875;-10.6510009765625;-3.45782470703125
1445425644412;207.43658447265625;-106.21533966064453;-4.183139801025391;1.0659637451171875;-13.691055297851562;-2.5948486328125
1445425644444;208.6021728515625;-110.44898986816406;-3.39481520652771;-0.836517333984375;-13.2791748046875;-3.595123291015625
1445425644477;208.56683349609375;-113.2022476196289;-2.669365406036377;-0.718841552734375;-10.219512939453125;-3.9481658935546875
1445425644510;207.94549560546875;-113.96942138671875;-2.788881778717041;0.3206634521484375;-7.885528564453125;-2.692901611328125
1445425644545;206.705322265625;-114.8904800415039;-3.655947208404541;0.3991241455078125;-7.0225372314453125;-1.771087646484375
1445425644576;206.0045166015625;-114.79731750488281;-4.584499359130859;1.046356201171875;-6.9636993408203125;-1.7906951904296875
1445425644609;205.838134765625;-114.27371215820312;-4.929744243621826;1.12481689453125;-6.806793212890625;-1.9868316650390625
1445425644642;205.9476318359375;-112.49270629882812;-5.363035678863525;0.6737060546875;-6.5714263916015625;-2.32025146484375
1445425644675;207.1561279296875;-109.85063171386719;-5.471614360809326;0.0853118896484375;-7.92474365234375;-2.0456695556640625
1445425644709;208.07632446289062;-108.5024642944336;-5.365873336791992;-0.0519866943359375;-9.631103515625;-2.457550048828125
1445425644741;210.115234375;-105.81768035888672;-4.700321197509766;0.987518310546875;-11.984695434570312;-4.8699798583984375
1445425644774;211.020263671875;-104.8057632446289;-4.1938605308532715;1.3209381103515625;-11.690505981445312;-6.556732177734375
1445425644808;212.46746826171875;-104.69307708740234;-3.101811170578003;1.53668212890625;-11.651275634765625;-6.556732177734375
1445425644841;213.92498779296875;-106.98365020751953;-2.1565136909484863;1.7132110595703125;-11.023651123046875;-5.1249542236328125
1445425644874;214.580810546875;-108.67550659179688;-2.0521252155303955;1.9485626220703125;-11.21978759765625;-3.1832427978515625
1445425644906;215.00225830078125;-112.31378936767578;-3.196678400039673;2.046630859375;-12.396575927734375;-3.39898681640625
1445425644939;214.0419921875;-114.63333129882812;-5.714741230010986;1.6347503662109375;-11.984695434570312;-3.3205413818359375
1445425644972;213.72662353515625;-115.24283599853516;-6.865341663360596;1.4582366943359375;-10.690231323242188;-3.1047821044921875
1445425645005;213.02001953125;-115.98081970214844;-9.09843635559082;1.673980712890625;-8.473922729492188;-2.14373779296875
1445425645039;212.1900634765625;-116.00953674316406;-11.42870807647705;1.3993988037109375;-6.179168701171875;-1.6730194091796875
1445425645072;211.8182373046875;-115.63874053955078;-12.584708213806152;1.18365478515625;-5.8849639892578125;-2.1633453369140625
1445425645105;211.41217041015625;-114.21432495117188;-14.470257759094238;1.47784423828125;-6.5910491943359375;-3.8697052001953125
1445425645137;211.35009765625;-113.18183898925781;-15.23136043548584;1.850494384765625;-8.336624145507812;-4.9484405517578125
1445425645170;210.8914794921875;-110.852294921875;-16.70401954650879;1.811279296875;-8.964248657226562;-5.0072784423828125
1445425645203;210.89495849609375;-109.54550170898438;-17.511938095092773;3.0076904296875;-9.376129150390625;-4.71307373046875
1445425645237;211.36126708984375;-109.576171875;-17.708942413330078;3.498016357421875;-9.06231689453125;-4.9876708984375
1445425645270;212.302490234375;-110.45065307617188;-17.621356964111328;3.4587860107421875;-10.239120483398438;-5.1249542236328125
1445425645302;212.62771606445312;-111.89575958251953;-17.509281158447266;4.3610076904296875;-10.25872802734375;-4.71307373046875
1445425645335;212.77011108398438;-112.70734405517578;-17.827739715576172;4.5963592529296875;-9.729171752929688;-5.085723876953125
1445425645368;211.72027587890625;-114.53205871582031;-19.743791580200195;3.5960845947265625;-7.7678375244140625;-3.9481658935546875
1445425645401;208.45138549804688;-115.2635726928711;-21.668109893798828;3.046905517578125;-6.9048614501953125;-2.967498779296875
1445425645434;206.7664794921875;-114.68057250976562;-21.894624710083008;3.87066650390625;-8.062042236328125;-3.595123291015625
1445425645467;203.7335205078125;-112.8980484008789;-21.623332977294922;4.066802978515625;-9.552658081054688;-4.222747802734375
1445425645500;200.04742431640625;-110.82142639160156;-21.229578018188477;2.67425537109375;-8.571990966796875;-3.0067291259765625
1445425645533;198.3441162109375;-109.72303771972656;-20.95547866821289;2.38006591796875;-8.689666748046875;-3.0655670166015625
1445425645568;194.4254150390625;-107.2094497680664;-20.747713088989258;1.928955078125;-9.670333862304688;-3.39898681640625
1445425645601;189.18359375;-104.85749816894531;-20.88614845275879;1.7132110595703125;-9.729171752929688;-2.9282684326171875
1445425645633;186.3470458984375;-103.89859771728516;-20.790985107421875;1.497467041015625;-9.395751953125;-2.8105926513671875
1445425645670;180.792724609375;-102.90647888183594;-19.657211303710938;0.928680419921875;-9.081939697265625;-2.3006439208984375
1445425645701;178.30470275878906;-102.68358612060547;-18.630956649780273;0.6737060546875;-9.552658081054688;-0.1431732177734375
1445425645735;173.43580627441406;-102.47872161865234;-16.18071174621582;0.8894500732421875;-9.670333862304688;0.562896728515625
1445425645764;170.75277709960938;-102.3472900390625;-14.859029769897461;1.1444244384765625;-8.846572875976562;1.7397003173828125
1445425645798;165.80624389648438;-101.58518981933594;-11.94793701171875;2.3996734619140625;-9.670333862304688;1.7200775146484375
1445425645831;161.46759033203125;-99.80652618408203;-9.952298164367676;3.4587860107421875;-11.16094970703125;0.955169677734375
1445425645863;159.08480834960938;-98.73883819580078;-9.450187683105469;2.4781341552734375;-10.7686767578125;1.700469970703125
1445425645897;158.81646728515625;-98.6182861328125;-9.143085479736328;0.9482879638671875;-11.259017944335938;1.21014404296875
1445425645931;159.1288299560547;-98.04905700683594;-7.52175235748291;0.477569580078125;-12.828079223632812;-0.0451202392578125
1445425645962;159.1675262451172;-97.39433288574219;-6.553565979003906;0.8894500732421875;-11.631668090820312;-0.2020263671875
1445425645996;159.851806640625;-96.02449798583984;-5.3979716300964355;1.2817230224609375;-11.435531616210938;-0.7904205322265625
1445425646028;160.9700469970703;-95.0307388305664;-5.571991920471191;0.9482879638671875;-10.807907104492188;-1.3984375
1445425646062;161.56707763671875;-94.76934051513672;-5.894331932067871;0.2029876708984375;-8.748504638671875;-1.5553436279296875
1445425646095;162.43911743164062;-94.3960189819336;-6.501685619354248;0.301055908203125;-8.238555908203125;-1.692626953125
1445425646128;162.83355712890625;-93.92681121826172;-6.8329997062683105;1.0071258544921875;-7.9639739990234375;-1.5357208251953125
1445425646164;162.79486083984375;-93.64961242675781;-6.877881050109863;1.18365478515625;-8.042434692382812;-1.3592071533203125
1445425646194;162.44688415527344;-93.0337142944336;-6.798840522766113;0.869842529296875;-9.827239990234375;-1.0453948974609375
1445425646226;162.53118896484375;-92.52352142333984;-6.378269672393799;-0.150054931640625;-10.905975341796875;1.1120758056640625
1445425646260;162.5054473876953;-92.43699645996094;-5.936309337615967;-0.091217041015625;-10.31756591796875;1.818145751953125
1445425646292;161.85891723632812;-93.04450988769531;-4.669551849365234;-0.091217041015625;-10.25872802734375;1.014007568359375
1445425646326;162.0286407470703;-93.97827911376953;-3.5038414001464844;2.0858612060546875;-11.572830200195312;-0.5942840576171875
1445425646359;161.81723022460938;-94.3299560546875;-3.3380439281463623;2.10546875;-11.612045288085938;-0.4766082763671875
1445425646391;162.26979064941406;-95.10124206542969;-3.6113951206207275;1.105194091796875;-10.572540283203125;-0.4373779296875
1445425646424;162.98855590820312;-95.41038513183594;-3.963106632232666;-0.836517333984375;-10.6510009765625;-0.633514404296875
1445425646457;164.0406494140625;-95.68050384521484;-4.652581214904785;-1.3268585205078125;-10.7098388671875;-1.00616455078125
1445425646490;164.1830596923828;-95.11566925048828;-4.676445960998535;-0.954193115234375;-9.591873168945312;-1.75146484375
1445425646523;164.09619140625;-94.53520965576172;-4.484153747558594;-0.3854217529296875;-8.964248657226562;-2.1241302490234375
1445425646556;163.67930603027344;-93.37457275390625;-4.205113410949707;0.7521514892578125;-8.905410766601562;-2.692901611328125
1445425646589;163.24546813964844;-92.77350616455078;-4.095787048339844;0.1833648681640625;-9.278060913085938;-2.457550048828125
1445425646623;162.57948303222656;-92.75977325439453;-3.905299186706543;-0.9934234619140625;-9.846847534179688;-1.3003692626953125
1445425646655;159.88644409179688;-93.8947982788086;-2.6671085357666016;-2.1898345947265625;-10.690231323242188;-1.378814697265625
1445425646689;158.69651794433594;-94.98526763916016;-1.773342251777649;1.8701171875;-8.1993408203125;0.2686920166015625
1445425646722;155.9292755126953;-97.65056610107422;-0.9400649666786194;1.2817230224609375;-8.336624145507812;1.876983642578125
1445425646755;153.7347412109375;-99.41696166992188;-1.177008867263794;0.869842529296875;-12.828079223632812;0.0921783447265625
1445425646788;152.92845153808594;-99.95870971679688;-1.119640827178955;0.34027099609375;-12.396575927734375;0.4059906005859375
1445425646821;151.29702758789062;-99.99630737304688;-1.2818048000335693;0.22259521484375;-11.749343872070312;0.4844512939453125
1445425646853;149.616943359375;-99.38287353515625;-2.0498602390289307;0.04608154296875;-11.004043579101562;0.30792236328125
1445425646887;148.80899047851562;-98.92562866210938;-2.583587646484375;-0.1108245849609375;-10.7098388671875;-0.0451202392578125
1445425646920;146.8500518798828;-97.86018371582031;-3.650953531265259;-0.4834747314453125;-9.45458984375;-0.9080963134765625
1445425646952;145.8089141845703;-97.23146057128906;-4.133723258972168;-0.836517333984375;-9.00347900390625;-1.829925537109375
1445425646988;143.60325622558594;-95.9969482421875;-5.079512596130371;-1.15032958984375;-9.278060913085938;-2.08489990234375
1445425647019;140.3889617919922;-95.45541381835938;-6.162743091583252;-1.8367919921875;-9.788009643554688;-2.5556182861328125
1445425647051;135.49844360351562;-96.5912094116211;-7.18021297454834;-2.68017578125;-9.68994140625;-2.1045074462890625
1445425647084;132.3365478515625;-97.97669219970703;-7.401302814483643;-3.1508941650390625;-9.238845825195312;-1.5945587158203125
1445425647117;125.527587890625;-102.65205383300781;-6.4915852546691895;-2.05255126953125;-9.278060913085938;0.621734619140625
1445425647151;122.33975219726562;-105.54044342041016;-5.776885986328125;3.7725982666015625;-12.788848876953125;-1.437652587890625
1445425647184;117.5447998046875;-110.69706726074219;-3.9074461460113525;4.4002227783203125;-13.84796142578125;-3.202850341796875
1445425647217;113.63006591796875;-114.25933837890625;-1.3048326969146729;1.9093475341796875;-11.239395141601562;-4.2619781494140625
1445425647252;108.75030517578125;-116.06131744384766;-0.5734159350395203;-0.542327880859375;-9.081939697265625;-2.5359954833984375
1445425647283;105.95806884765625;-116.509521484375;-0.865014910697937;-0.3657989501953125;-9.356521606445312;-2.1633453369140625
1445425647315;102.80105590820312;-116.54303741455078;-1.4689230918884277;1.0855865478515625;-10.297958374023438;-1.9279937744140625
1445425647350;95.146240234375;-114.9655990600586;-3.4130711555480957;1.8308868408203125;-10.356796264648438;-2.006439208984375
1445425647381;86.86956787109375;-111.75563049316406;-5.472986221313477;1.2817230224609375;-8.925033569335938;-2.20257568359375
1445425647414;82.770751953125;-109.7005844116211;-6.216675281524658;-0.3657989501953125;-6.5910491943359375;-1.6141815185546875
1445425647447;74.73291015625;-105.08773803710938;-6.991546630859375;-0.7972869873046875;-7.63055419921875;-0.9865570068359375
1445425647481;67.71124267578125;-100.2325210571289;-6.894735813140869;0.928680419921875;-12.063156127929688;-2.4183197021484375
1445425647514;65.20956420898438;-98.67086791992188;-6.996063232421875;3.439178466796875;-8.1405029296875;-3.261688232421875
1445425647547;61.229705810546875;-98.829833984375;-8.910670280456543;4.262939453125;-6.296844482421875;-2.26141357421875
1445425647579;55.121612548828125;-99.54608917236328;-13.412735939025879;-0.4442596435546875;-9.434967041015625;-2.8105926513671875
1445425647613;51.256988525390625;-99.71331787109375;-15.701910018920898;-4.994537353515625;-12.063156127929688;-2.457550048828125
1445425647646;46.5645751953125;-101.72576141357422;-16.338359832763672;-3.3862457275390625;-10.25872802734375;-1.829925537109375
1445425647679;41.909576416015625;-103.08111572265625;-14.30903148651123;2.0270233154296875;-9.06231689453125;0.1706390380859375
1445425647711;38.67132568359375;-102.98021697998047;-13.592455863952637;3.5372467041015625;-10.356796264648438;0.7001953125
1445425647744;31.917724609375;-101.43489074707031;-12.900941848754883;3.3411102294921875;-12.788848876953125;0.876708984375
1445425647778;26.465545654296875;-99.25640106201172;-12.787166595458984;2.811553955078125;-12.161224365234375;0.07257080078125
1445425647810;23.218475341796875;-97.92496490478516;-13.076192855834961;2.419281005859375;-12.121994018554688;-0.6531219482421875
1445425647844;16.019134521484375;-95.07958221435547;-13.991814613342285;1.41900634765625;-11.670883178710938;-1.8495330810546875
1445425647877;9.21044921875;-92.6950454711914;-14.787420272827148;-0.3657989501953125;-9.356521606445312;-1.6337890625
1445425647910;5.83294677734375;-91.72355651855469;-14.997475624084473;-1.3660736083984375;-8.611221313476562;-1.1042327880859375
1445425647943;358.0469055175781;-90.08621978759766;-14.766486167907715;-3.0135955810546875;-8.3170166015625;-0.2216339111328125
1445425647976;353.4662780761719;-89.55413818359375;-14.244861602783203;-3.4450836181640625;-8.238555908203125;0.2686920166015625
1445425648008;343.6051940917969;-89.43708038330078;-12.350083351135254;-2.935150146484375;-8.925033569335938;1.38665771484375
1445425648041;333.53765869140625;-90.78826904296875;-10.129122734069824;-0.6796112060546875;-10.7098388671875;2.0142822265625
1445425648076;328.4690856933594;-92.04324340820312;-9.049187660217285;0.654083251953125;-11.867019653320312;1.7200775146484375
1445425648108;319.6307678222656;-95.99710083007812;-7.005733013153076;1.732818603515625;-12.102386474609375;1.44549560546875
1445425648140;313.9289245605469;-101.14749145507812;-4.554143905639648;2.0270233154296875;-13.141891479492188;1.1120758056640625
1445425648173;311.4021911621094;-103.25553131103516;-3.1851658821105957;2.066253662109375;-14.259841918945312;1.072845458984375
1445425648206;305.3287353515625;-105.8784408569336;-0.8878082036972046;1.673980712890625;-12.612335205078125;-0.2608642578125
1445425648240;298.23431396484375;-107.38935089111328;-0.15997859835624695;2.49774169921875;-12.259292602539062;-1.3395843505859375
1445425648273;294.60479736328125;-108.12078857421875;-0.38768619298934937;2.242767333984375;-11.612045288085938;-1.5945587158203125
1445425648305;287.6556701660156;-108.78080749511719;-0.9332312345504761;0.6344757080078125;-9.415359497070312;-0.633514404296875
1445425648339;284.1370849609375;-108.4620361328125;-1.1974397897720337;0.595245361328125;-5.5123138427734375;0.4059906005859375
1445425648371;277.1351013183594;-107.2873764038086;-1.838761806488037;0.0853118896484375;-4.610107421875;0.5236663818359375
1445425648405;271.6534423828125;-105.54739379882812;-3.0457639694213867;-1.1307220458984375;-6.296844482421875;0.9159393310546875
1445425648438;268.8045654296875;-104.18120574951172;-3.8432061672210693;-1.0522613525390625;-7.8462982177734375;1.2885894775390625
1445425648471;260.910400390625;-101.00111389160156;-5.272989749908447;-0.1696624755859375;-8.4935302734375;1.9946746826171875
1445425648503;256.05999755859375;-99.31037902832031;-5.7029242515563965;1.9093475341796875;-9.827239990234375;2.8772735595703125
1445425648538;247.62298583984375;-95.59962463378906;-5.740923881530762;3.4784088134765625;-11.39630126953125;2.1123504638671875
1445425648569;241.18197631835938;-92.42682647705078;-5.137404918670654;4.1060333251953125;-13.318405151367188;-0.005889892578125
1445425648602;238.78387451171875;-91.4300765991211;-4.699520587921143;2.55657958984375;-11.259017944335938;1.9750518798828125
1445425648642;235.4073486328125;-90.3615951538086;-3.7756054401397705;3.2430419921875;-12.514266967773438;1.3474273681640625
1445425648668;232.02044677734375;-89.3744888305664;-3.060703992843628;2.693878173828125;-12.847686767578125;0.621734619140625
1445425648703;230.53860473632812;-88.82315063476562;-2.8431522846221924;2.301605224609375;-11.710113525390625;0.07257080078125
1445425648734;227.84780883789062;-87.64723205566406;-3.0072615146636963;1.6543731689453125;-10.08221435546875;0.19024658203125
1445425648767;224.69424438476562;-86.75897979736328;-3.682926654815674;1.105194091796875;-9.866470336914062;-0.300079345703125
1445425648802;223.09747314453125;-86.4896240234375;-3.9649953842163086;0.8306121826171875;-9.827239990234375;-0.7315826416015625
1445425648833;219.80120849609375;-86.21658325195312;-4.305163860321045;0.301055908203125;-10.670608520507812;-1.6337890625
1445425648868;216.84716796875;-86.79832458496094;-4.44193696975708;-1.09149169921875;-10.337188720703125;-0.6138916015625
1445425648899;215.72955322265625;-87.64820098876953;-4.369083881378174;-1.0718841552734375;-9.748779296875;0.13140869140625
1445425648935;213.25381469726562;-89.67115020751953;-3.9469404220581055;-0.1108245849609375;-9.474197387695312;0.111785888671875
1445425648965;210.5115966796875;-91.93968200683594;-3.34908390045166;1.2032623291015625;-9.90570068359375;-1.202301025390625
1445425648998;209.0595703125;-93.08727264404297;-3.1771342754364014;1.6543731689453125;-10.297958374023438;-0.751190185546875
1445425649032;206.19219970703125;-95.28857421875;-3.5397534370422363;1.9485626220703125;-10.7686767578125;-0.300079345703125
1445425649064;204.9903564453125;-96.15862274169922;-3.9344887733459473;1.24249267578125;-11.298233032226562;-0.241241455078125
1445425649097;203.39703369140625;-96.9582748413086;-4.622550010681152;0.595245361328125;-11.141326904296875;-0.300079345703125
1445425649130;202.61761474609375;-96.46998596191406;-4.884899139404297;0.5560302734375;-10.121444702148438;-0.4373779296875
1445425649164;202.37457275390625;-95.677001953125;-5.009743690490723;0.301055908203125;-9.886077880859375;-0.9669342041015625
1445425649197;201.1832275390625;-93.62020111083984;-5.596715927124023;-0.4638671875;-9.238845825195312;-1.9868316650390625
1445425649229;199.15380859375;-91.89689636230469;-6.515378475189209;-0.091217041015625;-8.630828857421875;-2.575225830078125
1445425649262;198.0089111328125;-91.22511291503906;-6.990423679351807;-0.91497802734375;-9.552658081054688;-2.5948486328125
1445425649296;195.80792236328125;-90.20972442626953;-7.878069877624512;-1.8171844482421875;-10.690231323242188;-2.1241302490234375
1445425649329;193.07861328125;-90.15983581542969;-8.28722858428955;-1.464141845703125;-10.494094848632812;-1.143463134765625
1445425649361;191.49493408203125;-90.74874114990234;-7.977041721343994;-0.287353515625;-9.68994140625;-1.00616455078125
1445425649394;188.06732177734375;-93.22296905517578;-6.699875354766846;0.22259521484375;-8.3758544921875;-0.751190185546875
1445425649427;186.156005859375;-95.08700561523438;-6.05399751663208;0.6737060546875;-8.983871459960938;-1.0257720947265625
1445425649460;183.08990478515625;-99.43671417236328;-4.586536407470703;1.9681854248046875;-13.122268676757812;-3.16363525390625
1445425649493;182.61395263671875;-104.00006866455078;-1.9756149053573608;1.0071258544921875;-13.1614990234375;-2.516387939453125
1445425649527;182.576171875;-106.40745544433594;-0.3045375943183899;1.0071258544921875;-13.318405151367188;-2.1829681396484375
1445425649559;180.560302734375;-110.40935516357422;2.203190565109253;2.5369720458984375;-12.41619873046875;-1.1042327880859375
1445425649592;179.11305236816406;-112.11502838134766;2.69091796875;1.98779296875;-10.415634155273438;-1.8691558837890625
1445425649627;175.5967559814453;-114.3337173461914;1.8678487539291382;1.3797760009765625;-10.003753662109375;-2.1241302490234375
1445425649659;171.86500549316406;-114.18421936035156;0.2870651185512543;0.28143310546875;-8.94464111328125;-2.1829681396484375
1445425649692;167.48622131347656;-112.59651947021484;-0.9926345944404602;0.1441497802734375;-6.2576141357421875;-1.6730194091796875
1445425649726;165.34042358398438;-111.76374053955078;-1.5914065837860107;0.10491943359375;-4.6885528564453125;-1.3984375
1445425649758;163.02490234375;-110.20028686523438;-2.2631208896636963;0.28143310546875;-4.5120391845703125;-0.9669342041015625
1445425649791;163.35568237304688;-109.21940612792969;-2.316352367401123;1.41900634765625;-9.513427734375;-2.3006439208984375
1445425649824;165.0849609375;-107.2789077758789;-2.4792375564575195;1.732818603515625;-12.59271240234375;-4.105072021484375
1445425649857;164.90658569335938;-107.67163848876953;-2.4689600467681885;1.046356201171875;-12.631942749023438;-5.8114166259765625
1445425649889;165.56561279296875;-109.02366638183594;-1.6248834133148193;0.6933135986328125;-11.533599853515625;-5.6349029541015625
1445425649922;169.7077178955078;-111.74928283691406;1.556613564491272;2.164306640625;-9.081939697265625;-3.57550048828125
1445425649956;169.65274047851562;-114.54878234863281;1.2786680459976196;1.30133056640625;-10.31756591796875;-0.810028076171875
1445425649991;169.1929168701172;-115.69941711425781;0.3904149830341339;1.615142822265625;-11.710113525390625;-3.0459442138671875
1445425650022;170.12388610839844;-116.30534362792969;-0.5811740159988403;2.38006591796875;-11.670883178710938;-3.6147308349609375
1445425650054;170.93728637695312;-115.78687286376953;-1.6571056842803955;1.3797760009765625;-10.631378173828125;-3.085174560546875
1445425650087;171.1326904296875;-115.30584716796875;-2.3408336639404297;0.6737060546875;-9.650726318359375;-2.457550048828125
1445425650121;171.67660522460938;-113.52716064453125;-3.7976458072662354;0.242218017578125;-7.68939208984375;-2.4183197021484375
1445425650154;172.36473083496094;-110.79689025878906;-5.337826728820801;0.04608154296875;-7.0225372314453125;-3.477447509765625
1445425650187;172.62937927246094;-109.13495635986328;-6.086575508117676;0.0853118896484375;-7.375579833984375;-4.0658416748046875
1445425650220;173.41949462890625;-105.60760498046875;-6.8694658279418945;-1.464141845703125;-9.356521606445312;-4.9876708984375
1445425650252;174.31639099121094;-104.28250122070312;-6.473630428314209;-1.9544830322265625;-10.7686767578125;-4.6346282958984375
1445425650286;176.91412353515625;-103.30815124511719;-4.301300525665283;-1.346466064453125;-10.729446411132812;-3.8108673095703125
1445425650319;179.5780487060547;-103.09224700927734;-2.280355930328369;1.12481689453125;-9.042709350585938;-1.692626953125
1445425650352;180.34881591796875;-103.28389739990234;-1.7670576572418213;2.752716064453125;-8.846572875976562;-3.791259765625
1445425650384;180.8653564453125;-104.48114776611328;-1.366692304611206;-1.1895599365234375;-9.650726318359375;0.680572509765625
1445425650418;184.04827880859375;-104.67416381835938;0.08003895729780197;-0.7580718994140625;-11.141326904296875;-0.6531219482421875
1445425650451;185.083740234375;-104.18669891357422;0.629341721534729;-0.4442596435546875;-11.317855834960938;-0.2804718017578125
1445425650483;186.7149658203125;-103.05722045898438;1.4477936029434204;-0.01275634765625;-11.10211181640625;0.0333404541015625
1445425650516;187.295166015625;-102.03333282470703;1.6422981023788452;0.242218017578125;-10.415634155273438;-0.241241455078125
1445425650550;187.70947265625;-99.81648254394531;1.3974860906600952;-0.0519866943359375;-10.101821899414062;-0.5354461669921875
1445425650583;188.259765625;-97.65428161621094;0.9359424114227295;0.16375732421875;-9.96453857421875;-1.6141815185546875
1445425650616;188.767578125;-96.69186401367188;0.7312653660774231;1.615142822265625;-9.611495971679688;-2.5359954833984375
1445425650648;190.3931884765625;-95.28801727294922;0.25439807772636414;1.556304931640625;-9.415359497070312;-1.75146484375
1445425650683;192.9530029296875;-94.47064208984375;-0.1025233268737793;0.1245269775390625;-10.02337646484375;0.24908447265625
1445425650719;194.0926513671875;-94.4457778930664;0.08202249556779861;-1.0130462646484375;-10.356796264648438;-0.2020263671875
1445425650747;196.37493896484375;-94.5155029296875;1.0323389768600464;0.1833648681640625;-9.474197387695312;0.01373291015625
1445425650781;199.0982666015625;-94.64592742919922;1.5963191986083984;2.3996734619140625;-8.4935302734375;0.4256134033203125
1445425650814;200.09283447265625;-94.54000091552734;1.5157002210617065;1.3797760009765625;-8.1993408203125;0.58251953125
1445425650847;201.6790771484375;-94.10154724121094;1.0690370798110962;-1.0718841552734375;-11.690505981445312;0.19024658203125
1445425650879;202.3038330078125;-93.97557067871094;0.9997249245643616;0.9090576171875;-11.808181762695312;-1.496490478515625
1445425650914;203.6602783203125;-94.46442413330078;0.7040112614631653;-0.5619354248046875;-10.572540283203125;1.1512908935546875
1445425650946;206.264404296875;-93.95892333984375;0.37194910645484924;-2.17022705078125;-11.317855834960938;0.2294769287109375
1445425650981;206.6800537109375;-93.71632385253906;0.17920738458633423;-1.15032958984375;-10.905975341796875;0.36676025390625
1445425651011;206.9295654296875;-93.06715393066406;-0.30683407187461853;-0.522705078125;-10.670608520507812;0.30792236328125
1445425651044;207.16650390625;-91.995361328125;-1.3052748441696167;0.10491943359375;-10.180282592773438;-1.5553436279296875
1445425651078;206.9783935546875;-91.72879028320312;-1.880232572555542;-0.640380859375;-8.983871459960938;-1.810302734375
1445425651111;206.72174072265625;-91.52764892578125;-2.8420357704162598;-0.97381591796875;-8.650436401367188;-1.457275390625
1445425651143;206.9847412109375;-91.62881469726562;-3.5450479984283447;-2.032928466796875;-8.709274291992188;-1.0453948974609375
1445425651176;206.84454345703125;-91.9628677368164;-3.771777629852295;-2.40557861328125;-9.140777587890625;-1.084625244140625
1445425651210;205.287841796875;-93.98844909667969;-3.4458463191986084;-1.15032958984375;-10.494094848632812;-2.08489990234375
1445425651242;203.82391357421875;-97.81119537353516;-1.9621752500534058;0.7129364013671875;-10.7686767578125;-4.47772216796875
1445425651276;203.796630859375;-100.37592315673828;-1.0015376806259155;1.928955078125;-11.16094970703125;-4.71307373046875
1445425651308;205.4556884765625;-106.52581024169922;1.201438069343567;5.06707763671875;-13.84796142578125;-2.1829681396484375
1445425651341;205.55963134765625;-109.18012237548828;1.694608211517334;2.7723236083984375;-13.338027954101562;0.13140869140625
1445425651374;205.29425048828125;-112.30641174316406;2.1345176696777344;1.5955352783203125;-12.376968383789062;-1.261138916015625
1445425651408;205.8609619140625;-113.24309539794922;2.597933530807495;1.673980712890625;-8.905410766601562;-2.20257568359375
1445425651442;206.01611328125;-113.57823181152344;2.40301513671875;0.869842529296875;-7.1990509033203125;-1.3003692626953125
1445425651473;206.50054931640625;-114.20305633544922;1.5243252515792847;0.4971771240234375;-6.7675628662109375;-1.0257720947265625
1445425651506;206.890869140625;-113.66238403320312;0.3954668641090393;0.2618255615234375;-5.786895751953125;-1.319976806640625
1445425651540;207.0770263671875;-112.858154296875;-0.22556506097316742;0.2618255615234375;-5.7672882080078125;-1.7318572998046875
1445425651573;207.77996826171875;-110.26935577392578;-1.5317729711532593;0.8109893798828125;-7.7678375244140625;-3.34014892578125
1445425651606;208.05551147460938;-107.4964599609375;-3.444798469543457;-1.7583465576171875;-15.279739379882812;-4.9876708984375
1445425651639;208.37939453125;-107.29669952392578;-3.6307036876678467;-2.366363525390625;-14.98553466796875;-5.3995513916015625
1445425651671;211.15234375;-109.57200622558594;-1.082992672920227;0.04608154296875;-7.23828125;-4.0070037841796875
1445425651704;212.96652221679688;-111.15575408935547;0.6158549785614014;2.811553955078125;-6.355682373046875;-2.9871063232421875
1445425651738;216.12588500976562;-113.94916534423828;2.288236618041992;2.49774169921875;-8.670059204101562;-2.8890380859375
1445425651770;217.66677856445312;-116.44969177246094;1.5084561109542847;1.5170745849609375;-12.749618530273438;-2.4967803955078125
1445425651804;217.94271850585938;-117.44254302978516;0.9184145331382751;1.3405609130859375;-12.631942749023438;-2.457550048828125
1445425651837;218.137939453125;-117.1623306274414;0.07474790513515472;0.9482879638671875;-10.8863525390625;-2.281036376953125
1445425651870;219.040283203125;-114.62134552001953;-0.3538675308227539;1.732818603515625;-10.396026611328125;-2.006439208984375
1445425651902;219.75494384765625;-113.03376007080078;-0.6643993258476257;2.1446990966796875;-9.984146118164062;-2.1045074462890625
1445425651935;220.62451171875;-109.36495208740234;-1.9158731698989868;1.5170745849609375;-8.4935302734375;-1.6533966064453125
1445425651969;221.50765991210938;-105.08033752441406;-3.1300415992736816;0.3206634521484375;-7.5913238525390625;-0.1627960205078125
1445425652006;222.13665771484375;-102.67591094970703;-3.5796585083007812;-0.150054931640625;-7.493255615234375;0.562896728515625
1445425652035;222.8123779296875;-97.51486206054688;-4.1929850578308105;-0.01275634765625;-8.866195678710938;0.504058837890625
1445425652067;222.1077880859375;-92.36909484863281;-3.779933214187622;0.5560302734375;-11.259017944335938;-0.123565673828125
1445425652100;221.68634033203125;-90.0057373046875;-3.149909257888794;1.5170745849609375;-12.59271240234375;-0.9277191162109375
1445425652134;222.27377319335938;-86.84053039550781;-2.095055103302002;-0.01275634765625;-12.631942749023438;-2.8694305419921875
1445425652168;223.9525146484375;-86.7962417602539;-1.2939817905426025;0.16375732421875;-11.78857421875;-1.3395843505859375
1445425652200;224.28604125976562;-87.27348327636719;-1.1862118244171143;0.0068511962890625;-11.062881469726562;-1.2807464599609375
1445425652233;224.9375;-88.80824279785156;-1.159751296043396;0.28143310546875;-11.259017944335938;-1.496490478515625
1445425652268;226.64593505859375;-90.4442138671875;-0.9228873252868652;-0.5030975341796875;-9.944915771484375;0.386383056640625
1445425652300;227.64093017578125;-91.02400207519531;-0.7927234172821045;-0.287353515625;-10.180282592773438;-0.4373779296875
1445425652334;229.5120849609375;-91.56047821044922;-0.721983790397644;-0.1892852783203125;-11.27862548828125;-0.5942840576171875
1445425652364;230.3697509765625;-91.50530242919922;-0.8576835989952087;-0.01275634765625;-10.690231323242188;-0.4962158203125
1445425652398;232.4730224609375;-91.05789184570312;-1.4230880737304688;-0.1696624755859375;-9.768402099609375;-0.77081298828125
1445425652431;233.41415405273438;-90.64669799804688;-1.7730416059494019;-1.09149169921875;-9.807632446289062;-1.75146484375
1445425652463;234.72994995117188;-89.5983657836914;-2.4461863040924072;-1.3072357177734375;-9.552658081054688;-2.2221832275390625
1445425652497;235.38623046875;-88.73719024658203;-3.1817970275878906;-0.777679443359375;-9.415359497070312;-2.0456695556640625
1445425652531;235.63116455078125;-88.5358657836914;-3.5673439502716064;-1.346466064453125;-9.886077880859375;-0.6727447509765625
1445425652563;235.51800537109375;-88.67057800292969;-3.8629870414733887;-1.6602783203125;-9.96453857421875;-0.0451202392578125
1445425652596;234.07171630859375;-89.53938293457031;-3.0034193992614746;-0.9345855712890625;-10.02337646484375;0.4844512939453125
1445425652628;233.21807861328125;-90.07050323486328;-2.3192691802978516;0.4383392333984375;-9.866470336914062;0.6021270751953125
1445425652662;231.31829833984375;-91.0145492553711;-1.157710313796997;2.5958099365234375;-9.827239990234375;-1.3003692626953125
1445425652694;229.72235107421875;-92.06546783447266;-1.1950145959854126;1.9093475341796875;-10.494094848632812;-0.2216339111328125
1445425652729;229.8319091796875;-92.58924865722656;-1.4852936267852783;1.2032623291015625;-10.807907104492188;-0.182403564453125
1445425652761;230.58245849609375;-93.0577621459961;-2.0527267456054688;-0.91497802734375;-10.866744995117188;-0.2020263671875
1445425652794;231.02850341796875;-92.40974426269531;-2.4134387969970703;-1.3072357177734375;-10.042984008789062;-0.5942840576171875
1445425652826;230.82647705078125;-91.69316101074219;-2.6714046001434326;-1.0130462646484375;-9.670333862304688;-1.0257720947265625
1445425652859;229.97857666015625;-90.21344757080078;-3.372040271759033;-0.91497802734375;-9.376129150390625;-1.9868316650390625
1445425652893;229.65170288085938;-89.61166381835938;-3.6905324459075928;-1.6798858642578125;-9.434967041015625;-2.6144561767578125
1445425652925;229.03106689453125;-88.77561950683594;-4.166150093078613;-2.366363525390625;-9.434967041015625;-2.5948486328125
1445425652958;228.237060546875;-88.62609100341797;-4.240861415863037;-3.7588958740234375;-9.219223022460938;-1.692626953125
1445425652991;227.711669921875;-89.13184356689453;-3.9658594131469727;-3.9354248046875;-9.160385131835938;-0.9865570068359375
1445425653024;225.6884765625;-91.59703063964844;-2.5088624954223633;-1.169952392578125;-10.062606811523438;-0.5550537109375
1445425653057;222.15826416015625;-95.22813415527344;-0.4100590646266937;2.61541748046875;-13.887191772460938;-3.4970550537109375
1445425653091;220.80758666992188;-97.32850646972656;0.5726389288902283;3.57647705078125;-13.592987060546875;-4.6150054931640625
1445425653124;222.03289794921875;-102.78536224365234;2.859537363052368;4.5571441650390625;-13.004592895507812;-2.516387939453125
1445425653157;223.2769775390625;-108.99568176269531;4.785533905029297;3.1645965576171875;-14.063705444335938;0.6609649658203125
1445425653189;222.84503173828125;-111.0877685546875;5.0709052085876465;1.3405609130859375;-13.298797607421875;-0.3589324951171875
1445425653222;221.153564453125;-113.12108612060547;4.984739303588867;-0.01275634765625;-10.415634155273438;-2.8498077392578125
1445425653256;220.10772705078125;-113.73297119140625;4.540592670440674;0.026458740234375;-7.8462982177734375;-2.2418060302734375
1445425653289;217.50909423828125;-114.84947204589844;2.756812810897827;0.1245269775390625;-7.061767578125;-1.3592071533203125
1445425653321;215.3438720703125;-114.94473266601562;0.9042146801948547;0.8306121826171875;-6.238006591796875;-0.2804718017578125
1445425653354;214.754150390625;-114.37373352050781;0.17254449427127838;0.9090576171875;-5.9830322265625;-0.4569854736328125
1445425653388;214.3919677734375;-112.13594055175781;-0.7696694731712341;0.9090576171875;-6.4537506103515625;-1.084625244140625
1445425653421;214.61834716796875;-108.84637451171875;-1.4912108182907104;2.2035369873046875;-8.3758544921875;-2.4379425048828125
1445425653455;214.20916748046875;-107.55667114257812;-2.085479736328125;0.242218017578125;-13.49493408203125;-5.5172271728515625
1445425653486;214.41058349609375;-108.15412139892578;-1.5985381603240967;-1.3072357177734375;-14.514816284179688;-5.9487152099609375
1445425653519;217.62448120117188;-110.59660339355469;1.739053726196289;1.0267486572265625;-8.76812744140625;-3.3009185791015625
1445425653552;219.28265380859375;-111.5655746459961;3.010226011276245;2.5958099365234375;-7.316741943359375;-2.20257568359375
1445425653586;221.167724609375;-113.08199310302734;3.187049150466919;1.5170745849609375;-11.690505981445312;-3.6147308349609375
1445425653619;220.84420776367188;-113.74739837646484;2.241603136062622;-0.267730712890625;-10.7686767578125;-4.6150054931640625
1445425653652;218.8486328125;-114.59183502197266;-0.22935667634010315;-0.718841552734375;-9.827239990234375;-3.8697052001953125
1445425653685;218.33575439453125;-113.73416137695312;-1.0464208126068115;0.301055908203125;-8.336624145507812;-2.065277099609375
1445425653718;218.80322265625;-111.63276672363281;-1.289069652557373;1.6543731689453125;-8.218948364257812;-0.8492584228515625
1445425653751;218.97039794921875;-110.23127746582031;-1.628753423690796;1.928955078125;-8.218948364257812;-0.633514404296875
1445425653785;218.73016357421875;-106.89885711669922;-2.654493570327759;1.928955078125;-8.709274291992188;-0.9080963134765625
1445425653822;217.8306884765625;-103.07546997070312;-3.626009225845337;1.222869873046875;-9.493820190429688;-0.300079345703125
1445425653850;217.47406005859375;-101.02068328857422;-3.858631134033203;1.2621002197265625;-9.670333862304688;0.36676025390625
1445425653885;217.19207763671875;-96.69945526123047;-3.7176880836486816;2.3408355712890625;-12.455429077148438;0.1510162353515625
1445425653917;216.77215576171875;-94.62784576416016;-3.5193588733673096;2.5761871337890625;-13.338027954101562;-1.9279937744140625
1445425653950;217.29287719726562;-91.43389892578125;-2.938277244567871;0.8502197265625;-10.337188720703125;-2.692901611328125
1445425653981;219.62701416015625;-90.79920959472656;-2.4962384700775146;0.4579620361328125;-10.7686767578125;-1.6730194091796875
1445425654014;220.28326416015625;-90.96786499023438;-2.4156265258789062;-0.3854217529296875;-11.827789306640625;-1.8691558837890625
1445425654048;221.10003662109375;-92.15204620361328;-2.165750026702881;-0.405029296875;-9.827239990234375;-0.3393096923828125
1445425654081;221.94580078125;-93.0445785522461;-1.901045322418213;-0.091217041015625;-9.670333862304688;-0.6138916015625
1445425654114;224.59274291992188;-94.15103149414062;-1.4557057619094849;-0.3069610595703125;-11.592437744140625;-0.88848876953125
1445425654147;227.39248657226562;-94.01553344726562;-1.0726345777511597;-0.405029296875;-11.298233032226562;-0.3393096923828125
1445425654181;228.53961181640625;-93.70817565917969;-1.0682333707809448;-0.660003662109375;-10.572540283203125;-0.0843353271484375
1445425654213;230.60675048828125;-92.87662506103516;-1.4610522985458374;-0.97381591796875;-9.96453857421875;-0.5550537109375
1445425654246;231.53909301757812;-92.28964233398438;-1.790967345237732;-0.287353515625;-9.788009643554688;-1.3984375
1445425654282;233.04547119140625;-90.85013580322266;-2.7408833503723145;0.0656890869140625;-9.650726318359375;-1.8691558837890625
1445425654312;234.22317504882812;-89.57379150390625;-3.9419050216674805;0.3795013427734375;-9.572265625;-2.32025146484375
1445425654345;234.774658203125;-89.12976837158203;-4.532154560089111;-0.0716094970703125;-9.45458984375;-1.0453948974609375
1445425654379;235.88131713867188;-88.7941665649414;-5.337612152099609;-0.660003662109375;-9.611495971679688;-0.5550537109375
1445425654410;236.1380615234375;-88.84294128417969;-5.212814807891846;-0.7384490966796875;-10.278350830078125;-1.202301025390625
1445425654444;235.95697021484375;-88.93083190917969;-4.78624153137207;-0.7580718994140625;-10.337188720703125;-1.457275390625
1445425654477;235.74462890625;-89.07837677001953;-3.4879634380340576;-0.1892852783203125;-9.925308227539062;-1.437652587890625
1445425654510;235.50015258789062;-89.6771469116211;-2.811229705810547;1.47784423828125;-9.513427734375;-1.6533966064453125
1445425654544;235.3118896484375;-90.29054260253906;-3.000230312347412;0.4383392333984375;-10.003753662109375;0.4256134033203125
